t_ns,ax,ay,az,accuracy
21725297568256,-0.82313097,8.963513,4.249653,3
21725299947267,-0.82313097,8.949157,4.2975097,3
21725302326225,-0.8279166,8.968299,4.273581,3
21725304705235,-0.8279166,8.949157,4.240082,3
21725307084194,-0.8327023,8.9348,4.206582,3
21725309463152,-0.82313097,8.944371,4.1587257,3
21725311842110,-0.8470592,8.9348,4.173083,3
21725314221069,-0.86141616,8.930014,4.182654,3
21725316600027,-0.8662018,8.920443,4.23051,3
21725318978985,-0.86141616,8.9348,4.2352962,3
21725321357944,-0.8470592,8.920443,4.206582,3
21725323736902,-0.8279166,8.9348,4.1587257,3
21725326115860,-0.80877405,8.939586,4.130012,3
21725328494819,-0.7800602,8.915657,4.1443686,3
21725330873777,-0.7369894,8.9013,4.139583,3
21725333252787,-0.70348984,8.906086,4.168297,3
21725335631746,-0.6795616,8.891729,4.1635113,3
21725338010704,-0.64606214,8.886943,4.1443686,3
21725340389662,-0.6029913,8.886943,4.1204405,3
21725342768621,-0.5838487,8.896515,4.091727,3
21725345147579,-0.55513483,8.877372,4.082155,3
21725347526537,-0.51206404,8.867801,4.125226,3
21725349905496,-0.4881358,8.843872,4.1635113,3
21725352284454,-0.4881358,8.848659,4.1443686,3
21725354663412,-0.4833502,8.853444,4.1204405,3
21725357042371,-0.47377887,8.839087,4.130012,3
21725359421329,-0.44985065,8.853444,4.106084,3
21725361800287,-0.47856453,8.834301,4.1204405,3
21725364179298,-0.5072784,8.85823,4.139583,3
21725366558256,-0.5407779,8.853444,4.15394,3
21725368937215,-0.57906306,8.848659,4.1491547,3
21725371316173,-0.6125626,8.834301,4.1635113,3
21725373695131,-0.6556334,8.872586,4.168297,3
21725376074090,-0.6795616,8.877372,4.168297,3
21725378452996,-0.6939186,8.891729,4.2017965,3
21725380832006,-0.7178468,8.882157,4.206582,3
21725383210965,-0.70348984,8.896515,4.2161536,3
21725385589923,-0.74177504,8.925228,4.240082,3
21725387968881,-0.76570326,8.930014,4.254439,3
21725390347840,-0.7848458,8.930014,4.2448673,3
21725392726850,-0.79920274,8.930014,4.2448673,3
21725395105808,-0.8039884,8.944371,4.240082,3
21725397484767,-0.80877405,8.949157,4.2687955,3
21725399863725,-0.79441714,8.9108715,4.2927237,3
21725402242683,-0.7800602,8.9108715,4.3262234,3
21725404621642,-0.7848458,8.920443,4.302295,3
21725407000600,-0.79441714,8.920443,4.3070807,3
21725409379558,-0.7609176,8.920443,4.2975097,3
21725411758517,-0.7513463,8.9013,4.278367,3
21725414137475,-0.7704889,8.896515,4.273581,3
21725416516433,-0.7513463,8.9108715,4.2687955,3
21725418895392,-0.7704889,8.915657,4.2448673,3
21725421274350,-0.80877405,8.9108715,4.220939,3
21725423653360,-0.8279166,8.920443,4.206582,3
21725426032319,-0.86141616,8.9348,4.1778684,3
21725428411277,-0.89491564,8.925228,4.1491547,3
21725430790235,-0.91884387,8.915657,4.1491547,3
21725433169194,-0.9523434,8.906086,4.1204405,3
21725435548152,-0.9667004,8.896515,4.1491547,3
21725437927058,-1.0001999,8.915657,4.1347976,3
21725440306069,-1.0097711,8.9013,4.1108694,3
21725442685027,-1.0097711,8.915657,4.1108694,3
21725445063985,-0.9810573,8.925228,4.0965123,3
21725447442944,-0.9667004,8.920443,4.101298,3
21725449821902,-0.93320084,8.939586,4.115655,3
21725452200860,-0.89013004,8.953942,4.125226,3
21725454579819,-0.86141616,8.944371,4.1347976,3
21725456958829,-0.7848458,8.958728,4.1443686,3
21725459337787,-0.7465607,8.949157,4.1587257,3
21725461716746,-0.6891329,8.949157,4.1635113,3
21725464095704,-0.6125626,8.9348,4.1778684,3
21725466474662,-0.5407779,8.891729,4.206582,3
21725468853621,-0.49292147,8.877372,4.23051,3
21725471232579,-0.4546363,8.886943,4.254439,3
21725473611537,-0.41156548,8.882157,4.254439,3
21725475990496,-0.37806597,8.85823,4.273581,3
21725478369454,-0.38763726,8.853444,4.2831526,3
21725480748412,-0.3684947,8.839087,4.2831526,3
21725483127371,-0.39720857,8.829515,4.2687955,3
21725485506381,-0.44506502,8.839087,4.278367,3
21725487885340,-0.52163535,8.839087,4.2592244,3
21725490264298,-0.5982057,8.848659,4.249653,3
21725492643256,-0.6556334,8.834301,4.249653,3
21725495022215,-0.7178468,8.882157,4.2352962,3
21725497401173,-0.7752745,8.9108715,4.2352962,3
21725499780131,-0.8422736,8.920443,4.23051,3
21725502159090,-0.8997013,8.930014,4.211368,3
21725504538048,-0.95712906,8.939586,4.1922255,3
21725506917006,-0.9810573,8.925228,4.1922255,3
21725509295965,-0.9954142,8.9348,4.182654,3
21725511674923,-0.9906286,8.973084,4.173083,3
21725514053933,-1.0097711,8.9826565,4.168297,3
21725516432892,-0.9810573,8.987442,4.1587257,3
21725518811850,-0.9810573,8.992228,4.139583,3
21725521190808,-0.9379865,8.9826565,4.1587257,3
21725523569767,-0.8805587,8.968299,4.15394,3
21725525948725,-0.8566305,8.973084,4.139583,3
21725528327683,-0.81834537,8.977871,4.1443686,3
21725530706642,-0.7848458,8.944371,4.1443686,3
21725533085600,-0.7704889,8.9348,4.130012,3
21725535464558,-0.75613195,8.915657,4.106084,3
21725537843517,-0.7609176,8.906086,4.115655,3
21725540222423,-0.75613195,8.872586,4.1443686,3
21725542601433,-0.7704889,8.863015,4.1347976,3
21725544980444,-0.80877405,8.843872,4.1204405,3
21725547359402,-0.8327023,8.853444,4.106084,3
21725549738360,-0.82313097,8.829515,4.0965123,3
21725552117319,-0.83748794,8.834301,4.101298,3
21725554496277,-0.8709874,8.839087,4.115655,3
21725556875235,-0.8757731,8.853444,4.1204405,3
21725559254194,-0.8997013,8.843872,4.1347976,3
21725561633152,-0.8853444,8.863015,4.1491547,3
21725564012110,-0.8709874,8.872586,4.1635113,3
21725566391069,-0.8422736,8.9108715,4.15394,3
21725568770027,-0.83748794,8.9013,4.1491547,3
21725571148985,-0.79920274,8.9013,4.1491547,3
21725573527996,-0.74177504,8.896515,4.15394,3
21725575906954,-0.6843473,8.915657,4.1635113,3
21725578285912,-0.65084773,8.915657,4.1922255,3
21725580664871,-0.59342,8.915657,4.1922255,3
21725583043829,-0.5407779,8.920443,4.1874394,3
21725585422787,-0.5168497,8.882157,4.197011,3
21725587801746,-0.47856453,8.877372,4.1874394,3
21725590180704,-0.47856453,8.882157,4.1874394,3
21725592559662,-0.4642076,8.896515,4.197011,3
21725594938621,-0.49292147,8.896515,4.197011,3
21725597317579,-0.5072784,8.896515,4.197011,3
21725599696537,-0.53599226,8.896515,4.1587257,3
21725602075496,-0.59342,8.920443,4.130012,3
21725604454506,-0.64606214,8.9108715,4.1204405,3
21725606833465,-0.6891329,8.939586,4.125226,3
21725609212371,-0.7609176,8.949157,4.125226,3
21725611591381,-0.7800602,8.939586,4.125226,3
21725613970340,-0.8662018,8.944371,4.130012,3
21725616349298,-0.91405827,8.939586,4.115655,3
21725618728256,-0.9284152,8.968299,4.125226,3
21725621107215,-0.9523434,8.977871,4.106084,3
21725623486173,-0.9762716,8.977871,4.101298,3
21725625865131,-0.9906286,9.020942,4.115655,3
21725628244090,-1.0001999,9.01137,4.1347976,3
21725630623048,-0.9810573,9.016156,4.1347976,3
21725633002058,-0.971486,9.016156,4.1347976,3
21725635381017,-0.94277215,9.025727,4.130012,3
21725637759975,-0.90448695,9.020942,4.125226,3
21725640138933,-0.89491564,9.006584,4.1347976,3
21725642517892,-0.89491564,8.977871,4.168297,3
21725644896850,-0.8709874,8.949157,4.2017965,3
21725647275808,-0.8757731,8.930014,4.2017965,3
21725649654767,-0.89013004,8.9348,4.211368,3
21725652033673,-0.9092726,8.9108715,4.2161536,3
21725654412683,-0.91405827,8.925228,4.2017965,3
21725656791642,-0.9284152,8.906086,4.211368,3
21725659170652,-0.9619147,8.9013,4.220939,3
21725661549558,-0.971486,8.896515,4.2257247,3
21725663928569,-0.971486,8.891729,4.2257247,3
21725666307527,-0.9667004,8.891729,4.249653,3
21725668686485,-0.98584294,8.882157,4.2352962,3
21725671065444,-0.9810573,8.872586,4.240082,3
21725673444402,-0.9810573,8.9013,4.23051,3
21725675823360,-0.9523434,8.886943,4.249653,3
21725678202319,-0.9092726,8.882157,4.2592244,3
21725680581277,-0.89491564,8.853444,4.2448673,3
21725682960235,-0.8422736,8.853444,4.220939,3
21725685339194,-0.8039884,8.863015,4.206582,3
21725687718152,-0.7609176,8.829515,4.197011,3
21725690097110,-0.7082755,8.819944,4.173083,3
21725692476121,-0.6795616,8.819944,4.1587257,3
21725694855079,-0.6221339,8.853444,4.139583,3
21725697234037,-0.56470615,8.853444,4.139583,3
21725699612996,-0.5024927,8.877372,4.115655,3
21725701991954,-0.4833502,8.886943,4.1204405,3
21725704370912,-0.44027936,8.863015,4.1347976,3
21725706749871,-0.44027936,8.863015,4.1204405,3
21725709128829,-0.41635114,8.85823,4.125226,3
21725711507787,-0.3924229,8.853444,4.130012,3
21725713886746,-0.39720857,8.843872,4.130012,3
21725716265704,-0.40677986,8.882157,4.139583,3
21725718644715,-0.39720857,8.891729,4.130012,3
21725721023673,-0.42592242,8.915657,4.130012,3
21725723402631,-0.41635114,8.9348,4.1443686,3
21725725781590,-0.4546363,8.949157,4.1874394,3
21725728160548,-0.46899325,8.939586,4.168297,3
21725730539506,-0.4642076,8.944371,4.173083,3
21725732918465,-0.4881358,8.949157,4.173083,3
21725735297423,-0.52163535,8.953942,4.1635113,3
21725737676381,-0.5455636,8.963513,4.1635113,3
21725740055340,-0.56470615,8.953942,4.1587257,3
21725742434298,-0.6125626,8.958728,4.1635113,3
21725744813256,-0.66041905,8.963513,4.1587257,3
21725747192215,-0.7465607,8.949157,4.1491547,3
21725749571225,-0.8039884,8.944371,4.115655,3
21725751950183,-0.85184485,8.949157,4.0965123,3
21725754329142,-0.9284152,8.953942,4.106084,3
21725756708100,-0.9810573,8.958728,4.115655,3
21725759087058,-1.0289137,8.958728,4.1108694,3
21725761466017,-1.0576276,8.953942,4.125226,3
21725763844975,-1.1150553,8.953942,4.15394,3
21725766223933,-1.1389836,8.939586,4.15394,3
21725768602892,-1.1772687,8.968299,4.1491547,3
21725770981850,-1.1916257,8.9826565,4.1491547,3
21725773360808,-1.1724831,9.01137,4.1587257,3
21725775739767,-1.1629118,8.997013,4.168297,3
21725778118725,-1.1389836,8.9826565,4.168297,3
21725780497735,-1.1006985,8.987442,4.197011,3
21725782876694,-1.0719845,8.963513,4.2257247,3
21725785255600,-1.0576276,8.963513,4.2352962,3
21725787634610,-1.0001999,8.949157,4.23051,3
21725790013569,-0.94277215,8.944371,4.220939,3
21725792392527,-0.89491564,8.915657,4.240082,3
21725794771485,-0.8470592,8.896515,4.2448673,3
21725797150444,-0.82313097,8.882157,4.2448673,3
21725799529402,-0.8039884,8.9013,4.249653,3
21725801908360,-0.79920274,8.896515,4.2448673,3
21725804287319,-0.7848458,8.85823,4.240082,3
21725806666329,-0.7848458,8.872586,4.2257247,3
21725809045287,-0.7896315,8.872586,4.206582,3
21725811424246,-0.8039884,8.843872,4.1922255,3
21725813803204,-0.8279166,8.848659,4.211368,3
21725816182162,-0.83748794,8.843872,4.240082,3
21725818561121,-0.8709874,8.848659,4.254439,3
21725820940079,-0.89013004,8.853444,4.273581,3
21725823319037,-0.8662018,8.839087,4.278367,3
21725825697996,-0.89013004,8.834301,4.26401,3
21725828076954,-0.8709874,8.843872,4.2448673,3
21725830455912,-0.83748794,8.863015,4.211368,3
21725832834871,-0.7896315,8.853444,4.206582,3
21725835213829,-0.72263247,8.877372,4.168297,3
21725837592840,-0.6795616,8.886943,4.130012,3
21725839971798,-0.6269195,8.872586,4.1347976,3
21725842350756,-0.5694918,8.882157,4.1635113,3
21725844729715,-0.53599226,8.877372,4.168297,3
21725847108673,-0.5024927,8.85823,4.15394,3
21725849487631,-0.4833502,8.853444,4.1491547,3
21725851866590,-0.46899325,8.848659,4.115655,3
21725854245496,-0.4977071,8.85823,4.0965123,3
21725856624506,-0.52163535,8.843872,4.106084,3
21725859003465,-0.5886344,8.843872,4.115655,3
21725861382371,-0.6652047,8.872586,4.130012,3
21725863761381,-0.7322037,8.882157,4.1443686,3
21725866140340,-0.79441714,8.930014,4.1347976,3
21725868519350,-0.8566305,8.915657,4.115655,3
21725870898308,-0.8853444,8.886943,4.0965123,3
21725873277267,-0.8805587,8.882157,4.0965123,3
21725875656225,-0.9092726,8.9013,4.0677986,3
21725878035183,-0.8662018,8.891729,4.072584,3
21725880414142,-0.8470592,8.886943,4.091727,3
21725882793100,-0.8279166,8.915657,4.1108694,3
21725885172058,-0.79920274,8.930014,4.125226,3
21725887551017,-0.7800602,8.930014,4.125226,3
21725889929975,-0.7178468,8.9108715,4.15394,3
21725892308985,-0.6556334,8.9108715,4.182654,3
21725894687944,-0.6269195,8.9013,4.206582,3
21725897066902,-0.5886344,8.891729,4.211368,3
21725899445860,-0.57906306,8.85823,4.182654,3
21725901824819,-0.56470615,8.853444,4.2257247,3
21725904203777,-0.56470615,8.867801,4.26401,3
21725906582735,-0.5694918,8.9013,4.2975097,3
21725908961694,-0.60777694,8.906086,4.321438,3
21725911340652,-0.65084773,8.906086,4.3501515,3
21725913719610,-0.6939186,8.920443,4.359723,3
21725916098569,-0.72741807,8.906086,4.3501515,3
21725918477527,-0.7896315,8.930014,4.354937,3
21725920856485,-0.8279166,8.939586,4.3501515,3
21725923235496,-0.8662018,8.939586,4.3501515,3
21725925614454,-0.85184485,8.939586,4.359723,3
21725927993412,-0.8422736,8.958728,4.359723,3
21725930372371,-0.85184485,8.958728,4.331009,3
21725932751329,-0.8327023,8.953942,4.316652,3
21725935130287,-0.79920274,8.953942,4.2927237,3
21725937509246,-0.7704889,8.949157,4.220939,3
21725939888204,-0.7609176,8.968299,4.1587257,3
21725942267162,-0.7178468,8.9826565,4.101298,3
21725944646121,-0.70348984,8.977871,4.082155,3
21725947025079,-0.64606214,8.958728,4.130012,3
21725949404090,-0.6364908,8.944371,4.168297,3
21725951783048,-0.61734825,8.963513,4.2017965,3
21725954162006,-0.57427746,8.953942,4.1635113,3
21725956540965,-0.57427746,8.949157,4.0869412,3
21725958919923,-0.59342,8.9826565,4.019942,3
21725961298829,-0.5694918,9.001799,3.9864426,3
21725963677840,-0.6125626,9.01137,4.0007997,3
21725966056798,-0.6652047,9.01137,4.0534415,3
21725968435756,-0.6891329,8.973084,4.1443686,3
21725970814715,-0.7513463,8.958728,4.1778684,3
21725973193673,-0.74177504,8.939586,4.173083,3
21725975572631,-0.7369894,8.920443,4.1204405,3
21725977951642,-0.7322037,8.915657,4.0295134,3
21725980330600,-0.7178468,8.920443,3.9577286,3
21725982709558,-0.6987042,8.9348,3.9146578,3
21725985088517,-0.70348984,8.9108715,3.9433718,3
21725987467475,-0.72741807,8.891729,4.0007997,3
21725989846433,-0.74177504,8.872586,4.063013,3
21725992225392,-0.7704889,8.886943,4.1587257,3
21725994604350,-0.76570326,8.85823,4.206582,3
21725996983308,-0.7513463,8.834301,4.206582,3
21725999362267,-0.72263247,8.886943,4.182654,3
21726001741225,-0.6556334,8.872586,4.1204405,3
21726004120183,-0.5838487,8.882157,4.130012,3
21726006499194,-0.5024927,8.886943,4.1778684,3
21726008878152,-0.43070808,8.863015,4.249653,3
21726011257110,-0.32063824,8.79123,4.3118663,3
21726013636069,-0.2009971,8.738588,4.273581,3
21726016015027,-0.009571291,8.863015,4.2352962,3
21726018393985,-0.019142581,9.059227,4.26401,3
21726020772944,0.1052842,9.006584,4.2257247,3
21726023151902,0.15314065,8.930014,4.0773697,3
21726025530860,-0.0047856453,8.992228,4.024728,3
21726027909819,-0.15314065,8.891729,4.1443686,3
21726030288777,-0.31585258,8.743374,4.359723,3
21726032667787,-0.53599226,8.729017,4.517649,3
21726035046746,-0.75613195,8.719446,4.546363,3
21726037425704,-0.79441714,8.647661,4.493721,3
21726039804662,-0.9619147,8.743374,4.354937,3
21726042183621,-1.038485,8.848659,4.206582,3
21726044562579,-1.105484,8.853444,4.1347976,3
21726046941537,-1.1964114,8.939586,4.168297,3
21726049320496,-1.3447664,9.001799,4.240082,3
21726051699454,-1.416551,9.030513,4.287938,3
21726054078412,-1.4883357,9.006584,4.2592244,3
21726056457371,-1.5936198,9.092726,4.115655,3
21726058836329,-1.6558332,9.126225,4.072584,3
21726061215340,-1.6606189,9.073584,4.1108694,3
21726063594298,-1.6223338,9.064013,4.197011,3
21726065973256,-1.5361922,9.044869,4.278367,3
21726068352215,-1.4213367,8.939586,4.2831526,3
21726070731173,-1.2777673,8.9108715,4.206582,3
21726073110131,-1.1294123,8.886943,4.063013,3
21726075489090,-0.9954142,8.867801,3.9960139,3
21726077868048,-0.8279166,8.776874,3.9816568,3
21726080247006,-0.7465607,8.762517,4.0773697,3
21726082625912,-0.7178468,8.752945,4.115655,3
21726085004923,-0.7178468,8.815159,4.1443686,3
21726087383933,-0.7082755,8.843872,4.106084,3
21726089762892,-0.7800602,8.906086,4.034299,3
21726092141850,-0.80877405,8.944371,3.9673,3
21726094520808,-0.8853444,8.987442,3.9816568,3
21726096899767,-0.9284152,9.025727,4.0295134,3
21726099278725,-1.0336994,9.006584,4.125226,3
21726101657683,-1.0336994,9.01137,4.220939,3
21726104036642,-1.0719845,8.987442,4.2257247,3
21726106415600,-1.0911272,8.992228,4.206582,3
21726108794558,-1.0815558,8.925228,4.1587257,3
21726111173517,-1.0432707,8.85823,4.1874394,3
21726113552475,-1.0049855,8.819944,4.2687955,3
21726115931485,-0.9284152,8.800801,4.3070807,3
21726118310444,-0.8566305,8.776874,4.369294,3
21726120689402,-0.74177504,8.786445,4.3740797,3
21726123068360,-0.6364908,8.853444,4.321438,3
21726125447319,-0.5455636,8.9013,4.240082,3
21726127826277,-0.4354937,8.9348,4.23051,3
21726130205235,-0.35413775,8.973084,4.23051,3
21726132584194,-0.29671,8.997013,4.2448673,3
21726134963152,-0.26799613,9.025727,4.3070807,3
21726137342110,-0.29192436,9.025727,4.3118663,3
21726139721069,-0.35413775,9.030513,4.302295,3
21726142100079,-0.42592242,9.030513,4.2352962,3
21726144479037,-0.53599226,9.020942,4.1778684,3
21726146857996,-0.63170516,9.020942,4.182654,3
21726149236954,-0.7609176,8.987442,4.173083,3
21726151615912,-0.8709874,8.968299,4.206582,3
21726153994871,-0.9667004,8.9826565,4.206582,3
21726156373829,-1.038485,8.920443,4.173083,3
21726158752787,-1.119841,8.891729,4.168297,3
21726161131746,-1.1246266,8.886943,4.1587257,3
21726163510704,-1.1581261,8.863015,4.1491547,3
21726165889662,-1.1724831,8.834301,4.1635113,3
21726168268621,-1.1772687,8.834301,4.1587257,3
21726170647631,-1.18684,8.829515,4.173083,3
21726173026590,-1.1485549,8.810373,4.1491547,3
21726175405548,-1.1533405,8.829515,4.168297,3
21726177784506,-1.1246266,8.848659,4.1778684,3
21726180163465,-1.0815558,8.896515,4.206582,3
21726182542423,-1.0193424,8.930014,4.2592244,3
21726184921381,-0.9523434,8.939586,4.316652,3
21726187300340,-0.8805587,8.939586,4.321438,3
21726189679298,-0.8039884,8.949157,4.2975097,3
21726192058256,-0.72741807,8.930014,4.2592244,3
21726194437215,-0.66999036,8.920443,4.254439,3
21726196816225,-0.60777694,8.906086,4.240082,3
21726199195183,-0.57906306,8.9108715,4.26401,3
21726201574142,-0.526421,8.896515,4.278367,3
21726203953048,-0.52163535,8.853444,4.273581,3
21726206332058,-0.53599226,8.853444,4.2687955,3
21726208710965,-0.526421,8.863015,4.2592244,3
21726211089975,-0.5455636,8.863015,4.2592244,3
21726213468933,-0.5694918,8.843872,4.2448673,3
21726215847892,-0.57906306,8.834301,4.2257247,3
21726218226850,-0.6269195,8.867801,4.206582,3
21726220605808,-0.65084773,8.867801,4.211368,3
21726222984819,-0.66041905,8.896515,4.2352962,3
21726225363777,-0.6891329,8.906086,4.220939,3
21726227742735,-0.7178468,8.9348,4.206582,3
21726230121694,-0.72741807,8.953942,4.1491547,3
21726232500652,-0.71306115,8.977871,4.101298,3
21726234879610,-0.71306115,8.949157,4.0534415,3
21726237258569,-0.7178468,8.939586,4.058227,3
21726239637527,-0.7369894,8.944371,4.072584,3
21726242016485,-0.71306115,8.944371,4.0677986,3
21726244395444,-0.6652047,8.925228,4.0438704,3
21726246774402,-0.6364908,8.925228,4.024728,3
21726249153360,-0.6269195,8.906086,4.0103707,3
21726251532371,-0.6125626,8.9348,4.019942,3
21726253911329,-0.6125626,8.949157,4.0390844,3
21726256290287,-0.6125626,8.9348,4.058227,3
21726258669246,-0.6125626,8.9348,4.072584,3
21726261048204,-0.6891329,8.944371,4.0965123,3
21726263427162,-0.7082755,8.930014,4.115655,3
21726265806121,-0.74177504,8.925228,4.139583,3
21726268185079,-0.7800602,8.9348,4.1587257,3
21726270564037,-0.7704889,8.930014,4.197011,3
21726272942996,-0.7704889,8.9108715,4.23051,3
21726275321954,-0.7848458,8.949157,4.2687955,3
21726277700965,-0.7609176,9.016156,4.3118663,3
21726280079923,-0.7848458,9.078369,4.302295,3
21726282458881,-0.72263247,9.064013,4.139583,3
21726284837840,-0.70348984,9.020942,3.9816568,3
21726287216798,-0.67477596,9.097511,4.101298,3
21726289595756,-0.6269195,9.040084,4.1874394,3
21726291974715,-0.60777694,9.083155,4.26401,3
21726294353673,-0.5982057,9.078369,4.168297,3
21726296732631,-0.59342,9.116654,4.115655,3
21726299111590,-0.5407779,9.111869,3.9625144,3
21726301490548,-0.55034924,9.111869,3.8380876,3
21726303869558,-0.52163535,9.016156,3.7280176,3
21726306248517,-0.51206404,8.896515,3.723232,3
21726308627475,-0.44506502,8.977871,3.7040894,3
21726311006433,-0.42592242,9.064013,3.5318062,3
21726313385392,-0.37328035,8.992228,3.3643086,3
21726315764350,-0.23449662,8.877372,3.1728828,3
21726318143308,-0.11964113,8.867801,2.928815,3
21726320522267,0.10049855,9.001799,2.416751,3
21726322901225,0.38763726,8.786445,1.402194,3
21726325280183,0.23928227,8.829515,1.3160524,3
21726327659194,0.67477596,9.925428,3.07717,3
21726330038152,0.6795616,9.504292,4.426722,3
21726332417110,0.82313097,9.183653,4.666004,3
21726334796069,0.8135597,9.79143,3.7423747,3
21726337175027,1.0289137,10.226924,2.5986054,3
21726339553985,0.9810573,9.848858,1.7994026,3
21726341932944,0.7369894,9.920643,2.306681,3
21726344311902,0.7896315,9.982856,3.5844483,3
21726346690860,0.31106696,9.805787,4.948357,3
21726349069767,0.11006984,9.762716,5.4987063,3
21726351448881,-0.3493521,9.992428,5.139783,3
21726353827735,-0.38285163,10.068997,4.0438704,3
21726356206746,-0.8422736,10.112068,2.9479575,3
21726358585704,-1.0145568,10.255638,2.6368906,3
21726360964662,-1.2969099,10.078569,3.0723844,3
21726363343621,-1.5457634,9.729217,3.8763726,3
21726365722579,-1.7180467,9.619147,4.5320063,3
21726368101537,-1.7563318,9.370294,4.402794,3
21726370480496,-1.6749759,9.131011,3.7040894,3
21726372859454,-1.550549,8.968299,2.8953154,3
21726375238412,-1.3064811,8.815159,2.6273193,3
21726377617371,-1.0336994,8.551949,3.0388846,3
21726379996381,-0.76570326,8.260024,3.751946,3
21726382375340,-0.46899325,8.149954,4.421936,3
21726384754298,-0.10049855,8.073383,4.613362,3
21726387133256,0.18185452,8.159525,4.26401,3
21726389512215,0.46899325,8.298309,3.5509489,3
21726391891173,0.6029913,8.480164,3.0867412,3
21726394270131,0.7609176,8.475378,3.1202407,3
21726396649090,0.63170516,8.590233,3.7423747,3
21726399028048,0.55513483,8.671589,4.3836513,3
21726401407006,0.29671,8.772088,4.7425747,3
21726403785965,0.148355,8.877372,4.536792,3
21726406164923,-0.086141616,9.049655,4.0534415,3
21726408543933,-0.25842485,9.169296,3.6083765,3
21726410922892,-0.5168497,9.178867,3.546163,3
21726413301850,-0.6939186,9.188439,3.9481573,3
21726415680808,-0.8566305,9.073584,4.493721,3
21726418059767,-0.9619147,9.111869,4.847859,3
21726420438725,-1.0480564,9.083155,4.6612186,3
21726422817683,-1.0480564,9.102298,4.1491547,3
21726425196642,-0.9667004,8.9826565,3.5413775,3
21726427575600,-0.79441714,9.025727,3.426522,3
21726429954558,-0.5407779,8.915657,3.67059,3
21726432333517,-0.27756742,8.776874,4.2161536,3
21726434712475,0.05742774,8.709874,4.5798626,3
21726437091485,0.3589234,8.700303,4.551149,3
21726439470444,0.66999036,8.839087,4.206582,3
21726441849402,0.91405827,9.001799,3.7136607,3
21726444228360,1.038485,9.150154,3.5126636,3
21726446607319,1.1629118,9.250652,3.656233,3
21726448986277,1.119841,9.212367,4.0151563,3
21726451365235,1.052842,9.23151,4.402794,3
21726453744194,0.86141616,9.212367,4.4889355,3
21726456123152,0.66041905,9.23151,4.316652,3
21726458502162,0.37806597,9.178867,3.9481573,3
21726460881069,0.148355,9.193225,3.7663028,3
21726463260079,-0.1052842,9.107083,3.790231,3
21726465639037,-0.34456646,9.068798,4.0773697,3
21726468017996,-0.4881358,8.973084,4.402794,3
21726470396954,-0.65084773,8.925228,4.6229334,3
21726472775912,-0.70348984,8.853444,4.536792,3
21726475154819,-0.75613195,8.848659,4.2831526,3
21726477533829,-0.7322037,8.853444,4.063013,3
21726479912787,-0.7082755,8.853444,4.058227,3
21726482291746,-0.57906306,8.796016,4.23051,3
21726484670704,-0.44985065,8.748159,4.4745784,3
21726487049715,-0.24885355,8.79123,4.6707897,3
21726489428673,-0.0047856453,8.79123,4.709075,3
21726491807631,0.24885355,8.819944,4.575077,3
21726494186590,0.4833502,8.853444,4.398008,3
21726496565548,0.6843473,8.9013,4.2975097,3
21726498944506,0.8662018,8.915657,4.398008,3
21726501323465,0.95712906,8.915657,4.627719,3
21726503702423,0.9906286,8.877372,4.8047876,3
21726506081381,0.9236295,8.872586,4.8526444,3
21726508460340,0.75613195,8.891729,4.723432,3
21726510839298,0.52163535,8.939586,4.570291,3
21726513218308,0.22013968,8.9108715,4.4315076,3
21726515597267,-0.09092726,8.915657,4.4075794,3
21726517976225,-0.41156548,8.925228,4.4458647,3
21726520355183,-0.6891329,8.9108715,4.5942197,3
21726522734142,-0.94755775,8.834301,4.685147,3
21726525113100,-1.1772687,8.85823,4.627719,3
21726527492058,-1.3734802,8.853444,4.4458647,3
21726529870965,-1.5122639,8.834301,4.2927237,3
21726532249975,-1.6510476,8.815159,4.206582,3
21726534628933,-1.7371893,8.815159,4.2687955,3
21726537007944,-1.8041883,8.79123,4.3836513,3
21726539386902,-1.8137596,8.781659,4.4410787,3
21726541765860,-1.7898313,8.79123,4.3836513,3
21726544144819,-1.6893328,8.848659,4.23051,3
21726546523777,-1.550549,8.863015,4.0534415,3
21726548902735,-1.416551,8.85823,3.952943,3
21726551281694,-1.268196,8.819944,3.9338005,3
21726553660652,-1.1294123,8.805588,4.0151563,3
21726556039610,-0.9619147,8.839087,4.1491547,3
21726558418569,-0.80877405,8.82473,4.240082,3
21726560797527,-0.6795616,8.82473,4.1874394,3
21726563176537,-0.6029913,8.877372,4.082155,3
21726565555496,-0.5599205,8.9013,4.019942,3
21726567934454,-0.5407779,8.930014,4.0295134,3
21726570313412,-0.6029913,8.939586,4.115655,3
21726572692371,-0.6891329,8.987442,4.211368,3
21726575071329,-0.81834537,9.016156,4.278367,3
21726577450287,-0.91405827,8.992228,4.2592244,3
21726579829246,-1.0336994,9.030513,4.1922255,3
21726582208204,-1.1389836,9.035298,4.125226,3
21726584587162,-1.2059826,9.030513,4.125226,3
21726586966121,-1.2490535,9.020942,4.1922255,3
21726589345131,-1.253839,8.973084,4.302295,3
21726591724090,-1.2203395,8.963513,4.354937,3
21726594103048,-1.1437693,8.963513,4.302295,3
21726596482006,-1.0241281,8.973084,4.220939,3
21726598860965,-0.81834537,8.944371,4.130012,3
21726601239923,-0.5838487,8.944371,4.082155,3
21726603618881,-0.32542387,8.9108715,4.1108694,3
21726605997840,-0.11964113,8.848659,4.197011,3
21726608376798,0.15792629,8.834301,4.278367,3
21726610755756,0.4211368,8.82473,4.3262234,3
21726613134715,0.6652047,8.796016,4.254439,3
21726615513725,0.8470592,8.805588,4.1443686,3
21726617892683,0.9954142,8.815159,4.106084,3
21726620271642,1.038485,8.805588,4.130012,3
21726622650600,1.052842,8.772088,4.23051,3
21726625029558,1.0241281,8.762517,4.359723,3
21726627408517,0.9236295,8.772088,4.426722,3
21726629787475,0.75613195,8.79123,4.402794,3
21726632166433,0.5694918,8.810373,4.321438,3
21726634545392,0.37806597,8.853444,4.2831526,3
21726636924350,0.2009971,8.863015,4.278367,3
21726639303360,0.014356935,8.867801,4.369294,3
21726641682319,-0.13878371,8.872586,4.4315076,3
21726644061277,-0.26799613,8.886943,4.4841495,3
21726646440235,-0.33499518,8.85823,4.469793,3
21726648819194,-0.37328035,8.848659,4.398008,3
21726651198152,-0.37328035,8.872586,4.3357944,3
21726653577110,-0.3684947,8.896515,4.2975097,3
21726655956069,-0.32063824,8.891729,4.316652,3
21726658335027,-0.24885355,8.863015,4.3357944,3
21726660713985,-0.2009971,8.848659,4.3405805,3
21726663092944,-0.14356937,8.800801,4.316652,3
21726665471954,-0.09571291,8.810373,4.287938,3
21726667850912,-0.06699903,8.781659,4.2448673,3
21726670229871,-0.086141616,8.776874,4.206582,3
21726672608829,-0.14356937,8.776874,4.206582,3
21726674987787,-0.23449662,8.781659,4.249653,3
21726677366746,-0.30149564,8.7577305,4.2975097,3
21726679745704,-0.39720857,8.7673025,4.3405805,3
21726682124662,-0.5072784,8.7673025,4.402794,3
21726684503621,-0.60777694,8.800801,4.4075794,3
21726686882527,-0.7465607,8.834301,4.402794,3
21726689261537,-0.8327023,8.863015,4.3932223,3
21726691640548,-0.8853444,8.882157,4.412365,3
21726694019506,-0.9284152,8.886943,4.469793,3
21726696398465,-0.94277215,8.867801,4.5415773,3
21726698777423,-0.94755775,8.85823,4.551149,3
21726701156381,-0.90448695,8.82473,4.546363,3
21726703535340,-0.8327023,8.834301,4.536792,3
21726705914298,-0.7082755,8.829515,4.508078,3
21726708293256,-0.6029913,8.805588,4.4745784,3
21726710672215,-0.47856453,8.810373,4.4889355,3
21726713051173,-0.33499518,8.79123,4.479364,3
21726715430183,-0.21535404,8.743374,4.493721,3
21726717809142,-0.124426775,8.709874,4.508078,3
21726720188100,-0.009571291,8.690732,4.493721,3
21726722567058,0.038285162,8.700303,4.4410787,3
21726724946017,0.09092726,8.71466,4.4410787,3
21726727324975,0.10049855,8.738588,4.508078,3
21726729703933,0.076570325,8.71466,4.6085763,3
21726732082892,0.009571291,8.63809,4.627719,3
21726734461850,-0.0526421,8.79123,4.718646,3
21726736840808,-0.08135597,8.800801,4.6899323,3
21726739219819,-0.17228323,8.776874,4.6755753,3
21726741598777,-0.22013968,8.796016,4.618148,3
21726743977735,-0.2632105,8.896515,4.618148,3
21726746356694,-0.3062813,8.79123,4.575077,3
21726748735652,-0.33499518,8.796016,4.6229334,3
21726751114610,-0.32063824,8.877372,4.642076,3
21726753493569,-0.31585258,8.906086,4.613362,3
21726755872527,-0.31585258,8.863015,4.503292,3
21726758251485,-0.31106696,8.9348,4.3932223,3
21726760630444,-0.31585258,8.977871,4.3357944,3
21726763009402,-0.31106696,8.949157,4.3262234,3
21726765388412,-0.33020952,8.949157,4.316652,3
21726767767319,-0.3924229,8.9826565,4.2831526,3
21726770146329,-0.4642076,8.939586,4.211368,3
21726772525287,-0.55513483,8.944371,4.1443686,3
21726774904246,-0.66041905,8.968299,4.058227,3
21726777283204,-0.7848458,8.977871,4.0151563,3
21726779662162,-0.8757731,8.973084,4.0007997,3
21726782041121,-0.95712906,9.020942,4.019942,3
21726784420079,-1.0289137,9.030513,3.9816568,3
21726786799037,-1.0671989,9.035298,3.9481573,3
21726789178048,-1.0624132,9.049655,3.9338005,3
21726791557006,-1.0815558,9.049655,3.900301,3
21726793935965,-1.052842,9.049655,3.8907297,3
21726796314923,-1.0193424,9.19801,4.019942,3
21726798693881,-0.8709874,9.097511,3.8476589,3
21726801072840,-0.8662018,9.111869,3.790231,3
21726803451798,-0.57427746,9.2793665,3.9242291,3
21726805830756,-0.57906306,9.116654,3.991228,3
21726808209715,-0.29192436,9.193225,4.034299,3
21726810588673,-0.33499518,9.212367,3.938586,3
21726812967631,0.009571291,9.298509,3.818945,3
21726815346590,-0.06699903,9.193225,3.7806597,3
21726817725600,0.16749759,9.193225,3.7998023,3
21726820104558,0.11485548,9.202796,3.9050865,3
21726822483517,0.2536392,9.164511,3.952943,3
21726824862475,0.16749759,9.059227,3.9816568,3
21726827241433,0.22971097,9.064013,3.8811584,3
21726829620392,0.19142582,9.0544405,3.8285162,3
21726831999350,0.18185452,8.987442,3.7615173,3
21726834378308,0.1052842,8.915657,3.7998023,3
21726836757267,0.11964113,8.906086,3.8476589,3
21726839136277,0.076570325,8.800801,3.9098723,3
21726841515235,0.09092726,8.79123,3.952943,3
21726843894194,0.13878371,8.733803,3.9050865,3
21726846273152,0.19621146,8.796016,3.8907297,3
21726848652110,0.26799613,8.719446,3.8093736,3
21726851031069,0.34456646,8.776874,3.8237305,3
21726853410027,0.3924229,8.729017,3.871587,3
21726855788985,0.44985065,8.729017,3.952943,3
21726858167944,0.4881358,8.719446,3.991228,3
21726860546902,0.56470615,8.786445,4.024728,3
21726862925860,0.55513483,8.748159,3.9481573,3
21726865304819,0.56470615,8.834301,3.900301,3
21726867683829,0.4881358,8.848659,3.7806597,3
21726870062787,0.4354937,8.9348,3.7854455,3
21726872441746,0.2536392,8.953942,3.8476589,3
21726874820704,0.148355,9.0544405,4.0151563,3
21726877199662,-0.0526421,9.059227,4.106084,3
21726879578621,-0.18185452,9.12144,4.0534415,3
21726881957579,-0.3684947,9.169296,3.8763726,3
21726884336537,-0.47856453,9.241081,3.7423747,3
21726886715496,-0.56470615,9.169296,3.6370904,3
21726889094506,-0.6843473,9.241081,3.7615173,3
21726891473465,-0.75613195,9.174082,3.9146578,3
21726893852423,-0.75613195,9.164511,4.0295134,3
21726896231381,-0.81834537,9.126225,3.885944,3
21726898610340,-0.82313097,9.221938,3.6849468,3
21726900989298,-0.7609176,9.126225,3.4217365,3
21726903368256,-0.72263247,9.0544405,3.3547373,3
21726905747215,-0.76570326,9.059227,3.5174494,3
21726908126173,-0.71306115,9.097511,3.952943,3
21726910505131,-0.6652047,9.059227,4.254439,3
21726912884090,-0.66041905,9.107083,4.197011,3
21726915263100,-0.6029913,9.169296,3.8237305,3
21726917642058,-0.5312066,9.245867,3.4743786,3
21726920021017,-0.5024927,9.269794,3.3547373,3
21726922399975,-0.49292147,9.293723,3.5796626,3
21726924778933,-0.4546363,9.322437,3.9050865,3
21726927157892,-0.4354937,9.336794,4.091727,3
21726929536850,-0.44506502,9.379865,3.9673,3
21726931915808,-0.4211368,9.437292,3.6610186,3
21726934294767,-0.44027936,9.466006,3.455236,3
21726936673725,-0.44985065,9.49472,3.4743786,3
21726939052683,-0.4833502,9.461221,3.6993039,3
21726941431694,-0.5312066,9.427721,3.9960139,3
21726943810652,-0.6029913,9.346365,4.1204405,3
21726946189610,-0.6364908,9.269794,4.1108694,3
21726948568569,-0.6987042,9.360723,4.1204405,3
21726950947527,-0.7513463,9.4229355,4.15394,3
21726953326485,-0.7178468,9.322437,4.115655,3
21726955705444,-0.81834537,9.212367,3.938586,3
21726958084402,-0.82313097,9.169296,3.7950168,3
21726960463360,-0.83748794,9.092726,3.9242291,3
21726962842371,-0.80877405,8.958728,4.23051,3
21726965221329,-0.82313097,8.920443,4.45065,3
21726967600287,-0.7848458,8.863015,4.4171505,3
21726969979246,-0.7465607,8.819944,4.106084,3
21726972358204,-0.6987042,8.796016,3.8285162,3
21726974737162,-0.6412765,8.738588,3.842873,3
21726977116121,-0.526421,8.690732,4.1347976,3
21726979495079,-0.43070808,8.652447,4.479364,3
21726981874037,-0.35413775,8.652447,4.6325045,3
21726984252996,-0.22013968,8.652447,4.536792,3
21726986632006,-0.13399807,8.729017,4.278367,3
21726989010965,-0.062213387,8.719446,4.0390844,3
21726991389923,-0.05742774,8.729017,4.0390844,3
21726993768881,-0.09571291,8.724232,4.1874394,3
21726996147840,-0.19142582,8.709874,4.412365,3
21726998526798,-0.28235307,8.700303,4.4745784,3
21727000905756,-0.4019942,8.738588,4.3788652,3
21727003284715,-0.55034924,8.810373,4.1874394,3
21727005663673,-0.6795616,8.853444,4.0390844,3
21727008042631,-0.75613195,8.867801,4.063013,3
21727010421590,-0.85184485,8.958728,4.2448673,3
21727012800600,-0.93320084,8.987442,4.4458647,3
21727015179558,-0.94755775,9.040084,4.546363,3
21727017558517,-0.94277215,9.083155,4.479364,3
21727019937475,-0.91884387,9.116654,4.354937,3
21727022316433,-0.9236295,9.102298,4.211368,3
21727024695392,-0.93320084,9.102298,4.1874394,3
21727027074350,-0.94755775,9.073584,4.2831526,3
21727029453308,-0.9906286,9.040084,4.4171505,3
21727031832267,-0.9954142,9.049655,4.4554358,3
21727034211277,-0.971486,8.997013,4.426722,3
21727036590235,-0.94755775,8.925228,4.23051,3
21727038969194,-0.95712906,8.819944,3.9864426,3
21727041348152,-0.9619147,8.7577305,3.8811584,3
21727043727110,-0.9619147,8.685946,3.991228,3
21727046106069,-1.0001999,8.595019,4.2687955,3
21727048485027,-1.0815558,8.56152,4.4554358,3
21727050863985,-1.1581261,8.609376,4.388437,3
21727053242944,-1.2346965,8.671589,4.1204405,3
21727055621902,-1.3016955,8.724232,3.8668015,3
21727058000860,-1.3878372,8.805588,3.7998023,3
21727060379871,-1.4979069,8.853444,3.9481573,3
21727062758829,-1.5601203,8.915657,4.197011,3
21727065137787,-1.5984055,8.949157,4.345366,3
21727067516694,-1.6319051,9.020942,4.331009,3
21727069895704,-1.6175481,9.097511,4.173083,3
21727072274662,-1.5696917,9.183653,4.0103707,3
21727074653621,-1.5266209,9.250652,3.9577286,3
21727077032579,-1.4739788,9.226724,4.048656,3
21727079411537,-1.3974084,9.212367,4.2352962,3
21727081790496,-1.3495519,9.188439,4.354937,3
21727084169506,-1.2969099,9.15494,4.3788652,3
21727086548465,-1.2490535,9.135797,4.2831526,3
21727088927423,-1.1389836,9.097511,4.115655,3
21727091306381,-1.0815558,9.059227,4.019942,3
21727093685340,-1.038485,8.997013,4.0295134,3
21727096064298,-1.052842,8.915657,4.168297,3
21727098443256,-1.0145568,8.872586,4.321438,3
21727100822215,-1.0241281,8.805588,4.3740797,3
21727103201173,-1.0049855,8.772088,4.3262234,3
21727105580183,-0.98584294,8.810373,4.1874394,3
21727107959090,-0.9523434,8.82473,4.072584,3
21727110338100,-0.94755775,8.79123,4.0677986,3
21727112717058,-0.9236295,8.800801,4.1587257,3
21727115096017,-0.8662018,8.815159,4.2927237,3
21727117474975,-0.79441714,8.805588,4.3645086,3
21727119853933,-0.6891329,8.819944,4.3645086,3
21727122232892,-0.57427746,8.819944,4.23051,3
21727124611850,-0.45942193,8.786445,4.0677986,3
21727126990808,-0.3397808,8.762517,4.048656,3
21727129369767,-0.25842485,8.724232,4.1922255,3
21727131748725,-0.19142582,8.690732,4.354937,3
21727134127735,-0.13878371,8.71466,4.436293,3
21727136506694,-0.124426775,8.724232,4.402794,3
21727138885652,-0.13399807,8.681161,4.2257247,3
21727141264610,-0.18185452,8.729017,4.058227,3
21727143643569,-0.27756742,8.958728,4.1778684,3
21727146022527,-0.3684947,8.958728,4.3357944,3
21727148401485,-0.44506502,8.930014,4.359723,3
21727150780444,-0.5312066,9.049655,4.197011,3
21727153159402,-0.5982057,9.044869,3.9960139,3
21727155538412,-0.6412765,9.006584,4.048656,3
21727157917371,-0.6412765,8.992228,4.240082,3
21727160296329,-0.66041905,9.030513,4.412365,3
21727162675287,-0.66999036,8.925228,4.3788652,3
21727165054246,-0.64606214,8.839087,4.249653,3
21727167433204,-0.6412765,8.829515,4.182654,3
21727169812162,-0.6125626,8.762517,4.206582,3
21727172191121,-0.57906306,8.623733,4.287938,3
21727174570079,-0.6029913,8.623733,4.321438,3
21727176949037,-0.64606214,8.590233,4.3070807,3
21727179328048,-0.6843473,8.537591,4.26401,3
21727181707006,-0.72263247,8.547162,4.2161536,3
21727184085965,-0.79920274,8.595019,4.2017965,3
21727186464923,-0.85184485,8.595019,4.206582,3
21727188843881,-0.89491564,8.60459,4.2161536,3
21727191222840,-0.91884387,8.705089,4.220939,3
21727193601798,-0.9379865,8.79123,4.254439,3
21727195980756,-0.9092726,8.839087,4.2831526,3
21727198359715,-0.8805587,8.930014,4.2687955,3
21727200738673,-0.8279166,8.992228,4.2161536,3
21727203117683,-0.7800602,9.020942,4.1778684,3
21727205496642,-0.6891329,9.049655,4.1778684,3
21727207875600,-0.61734825,9.097511,4.2448673,3
21727210254558,-0.55513483,9.102298,4.2927237,3
21727212633517,-0.5024927,9.08794,4.2831526,3
21727215012475,-0.44985065,9.092726,4.2161536,3
21727217391433,-0.44027936,9.059227,4.139583,3
21727219770392,-0.43070808,9.030513,4.130012,3
21727222149350,-0.44985065,9.006584,4.15394,3
21727224528308,-0.4881358,8.963513,4.1874394,3
21727226907319,-0.5312066,8.930014,4.1922255,3
21727229286277,-0.5694918,8.896515,4.173083,3
21727231665235,-0.6652047,8.886943,4.15394,3
21727234044194,-0.7369894,8.886943,4.139583,3
21727236423152,-0.79441714,8.85823,4.1108694,3
21727238802110,-0.8470592,8.886943,4.1443686,3
21727241181069,-0.8997013,8.896515,4.1587257,3
21727243560027,-0.9284152,8.882157,4.1491547,3
21727245938985,-0.93320084,8.906086,4.139583,3
21727248317892,-0.91884387,8.949157,4.1204405,3
21727250696954,-0.8997013,8.958728,4.106084,3
21727253075912,-0.85184485,8.958728,4.082155,3
21727255454871,-0.7704889,8.987442,4.0965123,3
21727257833829,-0.6843473,8.997013,4.1443686,3
21727260212787,-0.61734825,8.992228,4.1443686,3
21727262591746,-0.53599226,8.992228,4.139583,3
21727264970704,-0.49292147,8.968299,4.1108694,3
21727267349662,-0.4642076,8.953942,4.106084,3
21727269728621,-0.4546363,8.920443,4.168297,3
21727272107579,-0.49292147,8.886943,4.206582,3
21727274486590,-0.526421,8.843872,4.249653,3
21727276865548,-0.60777694,8.810373,4.2687955,3
21727279244506,-0.6987042,8.7673025,4.2927237,3
21727281623465,-0.7800602,8.743374,4.2927237,3
21727284002423,-0.8997013,8.733803,4.302295,3
21727286381381,-1.0145568,8.705089,4.287938,3
21727288760340,-1.0911272,8.695518,4.2975097,3
21727291139298,-1.1676974,8.690732,4.321438,3
21727293518256,-1.2155539,8.671589,4.3357944,3
21727295897215,-1.253839,8.685946,4.3262234,3
21727298276225,-1.3016955,8.676374,4.3070807,3
21727300655183,-1.3351951,8.705089,4.2831526,3
21727303034142,-1.3304094,8.719446,4.273581,3
21727305413100,-1.3304094,8.71466,4.2831526,3
21727307792058,-1.2873386,8.724232,4.321438,3
21727310171017,-1.2346965,8.762517,4.354937,3
21727312549975,-1.2059826,8.733803,4.3405805,3
21727314928933,-1.1772687,8.733803,4.3357944,3
21727317307892,-1.1150553,8.71466,4.3262234,3
21727319686850,-1.0671989,8.709874,4.331009,3
21727322065860,-1.038485,8.709874,4.3740797,3
21727324444819,-0.9954142,8.729017,4.45065,3
21727326823777,-0.9762716,8.685946,4.4745784,3
21727329202735,-0.9667004,8.647661,4.493721,3
21727331581642,-0.9379865,8.633304,4.4745784,3
21727333960652,-0.98584294,8.628518,4.4889355,3
21727336339610,-0.9762716,8.599805,4.4985065,3
21727338718569,-1.0097711,8.585447,4.5224347,3
21727341097527,-1.052842,8.580662,4.517649,3
21727343476485,-1.0815558,8.556734,4.5272202,3
21727345855496,-1.105484,8.5423765,4.5224347,3
21727348234454,-1.119841,8.52802,4.517649,3
21727350613412,-1.1437693,8.52802,4.4841495,3
21727352992371,-1.1437693,8.5423765,4.4410787,3
21727355371329,-1.1389836,8.575876,4.4410787,3
21727357750287,-1.1246266,8.590233,4.4554358,3
21727360129246,-1.0863415,8.618947,4.4841495,3
21727362508204,-1.0576276,8.63809,4.493721,3
21727364887162,-0.9954142,8.695518,4.4458647,3
21727367266173,-0.9236295,8.705089,4.4075794,3
21727369645131,-0.8566305,8.738588,4.402794,3
21727372024090,-0.7896315,8.7673025,4.4075794,3
21727374403048,-0.70348984,8.800801,4.4410787,3
21727376781954,-0.6412765,8.810373,4.4602213,3
21727379160965,-0.56470615,8.848659,4.45065,3
21727381539923,-0.526421,8.834301,4.4410787,3
21727383918829,-0.44506502,8.85823,4.4315076,3
21727386297840,-0.38763726,8.867801,4.398008,3
21727388676798,-0.38763726,8.872586,4.359723,3
21727391055808,-0.39720857,8.896515,4.3645086,3
21727393434767,-0.41156548,8.925228,4.421936,3
21727395813725,-0.41635114,8.906086,4.4315076,3
21727398192683,-0.4881358,8.953942,4.402794,3
21727400571642,-0.5312066,8.9826565,4.3501515,3
21727402950600,-0.60777694,9.025727,4.3357944,3
21727405329558,-0.66999036,9.0544405,4.3836513,3
21727407708517,-0.7322037,9.102298,4.412365,3
21727410087475,-0.7369894,9.116654,4.398008,3
21727412466433,-0.72741807,9.126225,4.3501515,3
21727414845392,-0.7322037,9.145369,4.3070807,3
21727417224402,-0.6843473,9.164511,4.2831526,3
21727419603360,-0.6412765,9.145369,4.2687955,3
21727421982319,-0.6029913,9.135797,4.278367,3
21727424361277,-0.5455636,9.150154,4.2592244,3
21727426739923,-0.4642076,9.131011,4.273581,3
21727429119194,-0.39720857,9.083155,4.287938,3
21727431498152,-0.31585258,9.059227,4.2687955,3
21727433877110,-0.25842485,9.059227,4.23051,3
21727436256069,-0.23449662,8.997013,4.197011,3
21727438635027,-0.16749759,8.925228,4.2257247,3
21727441014037,-0.11964113,8.930014,4.26401,3
21727443392996,-0.11964113,8.906086,4.287938,3
21727445771954,-0.09571291,8.886943,4.273581,3
21727448150860,-0.1052842,8.863015,4.249653,3
21727450529871,-0.11485548,8.834301,4.240082,3
21727452908829,-0.148355,8.815159,4.254439,3
21727455287787,-0.17706887,8.810373,4.2927237,3
21727457666746,-0.23449662,8.819944,4.3501515,3
21727460045756,-0.28713873,8.834301,4.3788652,3
21727462424715,-0.28713873,8.872586,4.388437,3
21727464803673,-0.30149564,8.867801,4.3788652,3
21727467182631,-0.34456646,8.872586,4.3740797,3
21727469561590,-0.33020952,8.877372,4.3740797,3
21727471940548,-0.32063824,8.891729,4.4075794,3
21727474319506,-0.33499518,8.85823,4.4315076,3
21727476698465,-0.31106696,8.834301,4.4315076,3
21727479077423,-0.29671,8.829515,4.4075794,3
21727481456381,-0.28713873,8.810373,4.398008,3
21727483835392,-0.31585258,8.79123,4.3740797,3
21727486214350,-0.34456646,8.772088,4.3645086,3
21727488593308,-0.40677986,8.752945,4.3645086,3
21727490972267,-0.4642076,8.776874,4.3788652,3
21727493351225,-0.5455636,8.772088,4.359723,3
21727495730183,-0.5838487,8.781659,4.3357944,3
21727498109142,-0.6939186,8.79123,4.3118663,3
21727500488100,-0.7752745,8.796016,4.2927237,3
21727502867058,-0.8422736,8.819944,4.278367,3
21727505246017,-0.90448695,8.839087,4.26401,3
21727507625027,-0.971486,8.85823,4.2927237,3
21727510003985,-1.0241281,8.85823,4.321438,3
21727512382944,-1.0767702,8.848659,4.287938,3
21727514761902,-1.134198,8.843872,4.26401,3
21727517140860,-1.1676974,8.843872,4.2831526,3
21727519519767,-1.1820544,8.85823,4.2975097,3
21727521898777,-1.1916257,8.85823,4.3357944,3
21727524277735,-1.2155539,8.863015,4.3932223,3
21727526656694,-1.18684,8.853444,4.421936,3
21727529035652,-1.2059826,8.848659,4.402794,3
21727531414662,-1.2059826,8.805588,4.3740797,3
21727533793621,-1.18684,8.810373,4.3740797,3
21727536172579,-1.1724831,8.796016,4.398008,3
21727538551537,-1.1533405,8.762517,4.465007,3
21727540930496,-1.1724831,8.762517,4.4841495,3
21727543309454,-1.1533405,8.776874,4.4745784,3
21727545688412,-1.1437693,8.772088,4.4410787,3
21727548067371,-1.119841,8.7673025,4.4410787,3
21727550446329,-1.1006985,8.781659,4.4458647,3
21727552825340,-1.038485,8.82473,4.479364,3
21727555204298,-1.0193424,8.843872,4.517649,3
21727557583256,-0.94755775,8.867801,4.508078,3
21727559962215,-0.90448695,8.867801,4.508078,3
21727562341173,-0.85184485,8.872586,4.4985065,3
21727564720131,-0.7848458,8.867801,4.4841495,3
21727567099090,-0.7369894,8.867801,4.5224347,3
21727569478048,-0.66999036,8.867801,4.5655055,3
21727571857006,-0.5982057,8.863015,4.6085763,3
21727574235965,-0.57906306,8.867801,4.6229334,3
21727576614923,-0.5599205,8.863015,4.6085763,3
21727578993933,-0.51206404,8.863015,4.584648,3
21727581372892,-0.47377887,8.85823,4.5655055,3
21727583751850,-0.47377887,8.839087,4.5894337,3
21727586130808,-0.44985065,8.796016,4.613362,3
21727588509767,-0.46899325,8.772088,4.6325045,3
21727590888725,-0.44985065,8.7577305,4.6085763,3
21727593267683,-0.44027936,8.748159,4.5798626,3
21727595646642,-0.4642076,8.690732,4.5320063,3
21727598025600,-0.4642076,8.676374,4.5224347,3
21727600404610,-0.46899325,8.633304,4.536792,3
21727602783569,-0.4833502,8.599805,4.551149,3
21727605162527,-0.47377887,8.580662,4.570291,3
21727607541485,-0.45942193,8.609376,4.5655055,3
21727609920444,-0.4211368,8.599805,4.5415773,3
21727612299402,-0.39720857,8.6141615,4.503292,3
21727614678308,-0.35413775,8.662018,4.469793,3
21727617057319,-0.3493521,8.685946,4.4745784,3
21727619436277,-0.31585258,8.700303,4.493721,3
21727621815235,-0.27756742,8.7577305,4.503292,3
21727624194246,-0.2727818,8.752945,4.5128636,3
21727626573204,-0.24885355,8.7577305,4.4745784,3
21727628952162,-0.26799613,8.786445,4.4554358,3
21727631331121,-0.2727818,8.772088,4.4410787,3
21727633710079,-0.31585258,8.781659,4.4554358,3
21727636089037,-0.3589234,8.781659,4.4841495,3
21727638467996,-0.43070808,8.7577305,4.4841495,3
21727640846954,-0.5168497,8.776874,4.493721,3
21727643225912,-0.6364908,8.796016,4.4745784,3
21727645604871,-0.7465607,8.800801,4.45065,3
21727647983881,-0.82313097,8.829515,4.4315076,3
21727650362840,-0.91884387,8.839087,4.436293,3
21727652741798,-1.0001999,8.810373,4.398008,3
21727655120756,-1.0911272,8.834301,4.3357944,3
21727657499715,-1.1150553,8.863015,4.3118663,3
21727659878673,-1.1676974,8.863015,4.345366,3
21727662257631,-1.1772687,8.839087,4.354937,3
21727664636590,-1.2011969,8.848659,4.3357944,3
21727667015548,-1.2011969,8.85823,4.287938,3
21727669394506,-1.2203395,8.877372,4.249653,3
21727671773465,-1.2203395,8.915657,4.2448673,3
21727674152475,-1.2059826,8.9348,4.2831526,3
21727676531433,-1.1820544,8.9348,4.287938,3
21727678910392,-1.1485549,8.9348,4.254439,3
21727681289350,-1.119841,8.944371,4.2161536,3
21727683668308,-1.1294123,8.987442,4.1922255,3
21727686047267,-1.105484,8.977871,4.2017965,3
21727688426225,-1.0815558,8.987442,4.2017965,3
21727690805183,-1.0624132,8.977871,4.1874394,3
21727693184194,-1.0671989,8.977871,4.182654,3
21727695563152,-1.0671989,8.963513,4.1778684,3
21727697942110,-1.052842,8.906086,4.1635113,3
21727700321069,-1.0432707,8.906086,4.1635113,3
21727702700027,-1.0576276,8.906086,4.15394,3
21727705078985,-1.0624132,8.891729,4.115655,3
21727707457944,-1.038485,8.872586,4.101298,3
21727709836902,-1.0336994,8.867801,4.125226,3
21727712215860,-1.0097711,8.85823,4.1443686,3
21727714594819,-0.9954142,8.853444,4.1443686,3
21727716973829,-1.0001999,8.886943,4.139583,3
21727719352787,-0.98584294,8.9013,4.130012,3
21727721731746,-0.9810573,8.915657,4.139583,3
21727724110704,-0.9667004,8.906086,4.173083,3
21727726489662,-0.9379865,8.906086,4.1922255,3
21727728868621,-0.8853444,8.9013,4.2017965,3
21727731247579,-0.8327023,8.925228,4.2017965,3
21727733626537,-0.7752745,8.953942,4.2257247,3
21727736005548,-0.7178468,8.949157,4.2352962,3
21727738384506,-0.66041905,8.958728,4.249653,3
21727740763465,-0.5982057,8.930014,4.2687955,3
21727743142423,-0.5407779,8.915657,4.278367,3
21727745521381,-0.49292147,8.877372,4.302295,3
21727747900340,-0.44027936,8.867801,4.321438,3
21727750279298,-0.41635114,8.839087,4.316652,3
21727752658256,-0.3589234,8.829515,4.3357944,3
21727755037215,-0.33499518,8.819944,4.331009,3
21727757416173,-0.3062813,8.796016,4.3262234,3
21727759795131,-0.31106696,8.772088,4.3405805,3
21727762174142,-0.32542387,8.776874,4.3501515,3
21727764553100,-0.35413775,8.752945,4.3501515,3
21727766932058,-0.38285163,8.748159,4.354937,3
21727769311017,-0.44027936,8.7577305,4.345366,3
21727771689975,-0.5168497,8.7577305,4.3645086,3
21727774068933,-0.5455636,8.805588,4.359723,3
21727776447892,-0.5838487,8.829515,4.331009,3
21727778826850,-0.5838487,8.85823,4.3262234,3
21727781205808,-0.6029913,8.867801,4.3357944,3
21727783584819,-0.60777694,8.886943,4.3405805,3
21727785963777,-0.61734825,8.9013,4.3405805,3
21727788342735,-0.6029913,8.925228,4.3405805,3
21727790721694,-0.56470615,8.930014,4.3357944,3
21727793100652,-0.55034924,8.939586,4.3262234,3
21727795479610,-0.52163535,8.939586,4.3118663,3
21727797858569,-0.47377887,8.944371,4.3357944,3
21727800237527,-0.47377887,8.944371,4.354937,3
21727802616485,-0.4211368,8.930014,4.3405805,3
21727804995496,-0.4211368,8.906086,4.3070807,3
21727807374454,-0.41156548,8.920443,4.2927237,3
21727809753412,-0.42592242,8.896515,4.2927237,3
21727812132371,-0.47856453,8.9013,4.287938,3
21727814511329,-0.52163535,8.896515,4.3070807,3
21727816890287,-0.5694918,8.872586,4.287938,3
21727819269246,-0.63170516,8.863015,4.278367,3
21727821648204,-0.66999036,8.839087,4.2831526,3
21727824027110,-0.72263247,8.805588,4.249653,3
21727826406121,-0.7513463,8.781659,4.23051,3
21727828785131,-0.7896315,8.781659,4.206582,3
21727831164090,-0.7704889,8.743374,4.2161536,3
21727833543048,-0.7704889,8.709874,4.220939,3
21727835922006,-0.72741807,8.724232,4.2448673,3
21727838300965,-0.70348984,8.724232,4.249653,3
21727840679923,-0.6891329,8.772088,4.2592244,3
21727843058881,-0.66041905,8.781659,4.249653,3
21727845437840,-0.64606214,8.7673025,4.278367,3
21727847816798,-0.6125626,8.79123,4.2927237,3
21727850195808,-0.6125626,8.839087,4.321438,3
21727852574767,-0.60777694,8.9013,4.3501515,3
21727854953725,-0.5982057,8.925228,4.3405805,3
21727857332683,-0.59342,8.939586,4.359723,3
21727859711642,-0.61734825,8.9348,4.369294,3
21727862090600,-0.63170516,8.958728,4.3836513,3
21727864469558,-0.64606214,8.963513,4.3932223,3
21727866848517,-0.6843473,8.963513,4.388437,3
21727869227475,-0.70348984,8.930014,4.3932223,3
21727871606485,-0.7609176,8.9108715,4.3932223,3
21727873985444,-0.7896315,8.9108715,4.388437,3
21727876364402,-0.8279166,8.85823,4.3740797,3
21727878743360,-0.8422736,8.853444,4.345366,3
21727881122319,-0.8279166,8.829515,4.345366,3
21727883501277,-0.8279166,8.829515,4.3357944,3
21727885880235,-0.79441714,8.82473,4.316652,3
21727888259194,-0.75613195,8.810373,4.3118663,3
21727890638152,-0.7082755,8.79123,4.302295,3
21727893017058,-0.6364908,8.800801,4.278367,3
21727895396121,-0.59342,8.819944,4.26401,3
21727897775079,-0.55034924,8.810373,4.249653,3
21727900154037,-0.5024927,8.805588,4.2592244,3
21727902532996,-0.47856453,8.815159,4.254439,3
21727904911954,-0.47856453,8.853444,4.254439,3
21727907290912,-0.4833502,8.853444,4.254439,3
21727909669871,-0.5072784,8.872586,4.254439,3
21727912048829,-0.5168497,8.920443,4.2448673,3
21727914427787,-0.5599205,8.915657,4.249653,3
21727916806746,-0.6125626,8.9348,4.249653,3
21727919185756,-0.65084773,8.9348,4.2448673,3
21727921564715,-0.67477596,8.963513,4.23051,3
21727923943673,-0.7178468,8.968299,4.211368,3
21727926322631,-0.72741807,8.963513,4.182654,3
21727928701590,-0.7752745,8.939586,4.1635113,3
21727931080548,-0.80877405,8.939586,4.1491547,3
21727933459506,-0.82313097,8.963513,4.1443686,3
21727935838465,-0.8039884,8.939586,4.130012,3
21727938217423,-0.82313097,8.9013,4.115655,3
21727940596433,-0.80877405,8.906086,4.0965123,3
21727942975392,-0.7800602,8.85823,4.048656,3
21727945354350,-0.7800602,8.848659,4.019942,3
21727947733308,-0.7848458,8.867801,4.0007997,3
21727950112267,-0.7752745,8.85823,3.991228,3
21727952491225,-0.7465607,8.867801,3.991228,3
21727954870183,-0.7465607,8.848659,3.9816568,3
21727957249142,-0.74177504,8.85823,4.0103707,3
21727959628100,-0.7465607,8.867801,4.005585,3
21727962007110,-0.7513463,8.872586,4.005585,3
21727964386069,-0.76570326,8.882157,4.005585,3
21727966765027,-0.79441714,8.886943,4.0007997,3
21727969143985,-0.80877405,8.882157,4.0103707,3
21727971522944,-0.80877405,8.891729,4.0007997,3
21727973901902,-0.8470592,8.9013,4.005585,3
21727976280860,-0.86141616,8.891729,4.019942,3
21727978659819,-0.85184485,8.906086,4.024728,3
21727981038777,-0.8470592,8.9348,4.019942,3
21727983417735,-0.8470592,8.9348,4.019942,3
21727985796746,-0.8279166,8.949157,4.019942,3
21727988175704,-0.81834537,8.958728,4.034299,3
21727990554662,-0.7848458,8.958728,4.058227,3
21727992933621,-0.75613195,8.997013,4.0534415,3
21727995312579,-0.7178468,9.01137,4.0534415,3
21727997691537,-0.71306115,8.977871,4.048656,3
21728000070496,-0.6987042,8.987442,4.0390844,3
21728002449454,-0.6891329,9.006584,4.0534415,3
21728004828412,-0.6939186,8.997013,4.0390844,3
21728007207371,-0.6843473,8.997013,4.058227,3
21728009586381,-0.6843473,9.006584,4.072584,3
21728011965340,-0.6843473,9.016156,4.0869412,3
21728014344298,-0.6891329,9.01137,4.0965123,3
21728016723256,-0.6987042,9.006584,4.1108694,3
21728019102215,-0.6891329,9.016156,4.115655,3
21728021481173,-0.6987042,9.020942,4.125226,3
21728023860131,-0.6795616,9.035298,4.130012,3
21728026239090,-0.6843473,9.0544405,4.1635113,3
21728028618100,-0.66041905,9.020942,4.168297,3
21728030997058,-0.60777694,8.992228,4.168297,3
21728033376017,-0.5838487,8.973084,4.182654,3
21728035754975,-0.55034924,8.968299,4.2017965,3
21728038133933,-0.5072784,8.958728,4.2161536,3
21728040512892,-0.45942193,8.958728,4.211368,3
21728042891850,-0.4211368,8.939586,4.1778684,3
21728045270808,-0.37328035,8.9013,4.1778684,3
21728047649767,-0.32542387,8.930014,4.2017965,3
21728050028725,-0.29192436,8.891729,4.249653,3
21728052407735,-0.28713873,8.915657,4.2927237,3
21728054786694,-0.27756742,8.9108715,4.2927237,3
21728057165652,-0.30149564,8.949157,4.249653,3
21728059544610,-0.29671,8.973084,4.2017965,3
21728061923569,-0.31585258,8.987442,4.206582,3
21728064302527,-0.30149564,8.9826565,4.240082,3
21728066681485,-0.2727818,8.997013,4.278367,3
21728069060392,-0.29192436,9.01137,4.287938,3
21728071439402,-0.28235307,9.006584,4.2352962,3
21728073818412,-0.2536392,9.006584,4.220939,3
21728076197371,-0.2536392,9.001799,4.220939,3
21728078576329,-0.23449662,8.958728,4.249653,3
21728080955287,-0.19621146,8.9348,4.278367,3
21728083334246,-0.19621146,8.944371,4.287938,3
21728085713204,-0.19621146,8.9348,4.302295,3
21728088092162,-0.18664017,8.930014,4.3070807,3
21728090471121,-0.19142582,8.9108715,4.2975097,3
21728092850079,-0.21535404,8.906086,4.2687955,3
21728095229037,-0.2440679,8.867801,4.254439,3
21728097608048,-0.29671,8.85823,4.249653,3
21728099987006,-0.33020952,8.85823,4.26401,3
21728102365965,-0.3589234,8.829515,4.2831526,3
21728104744923,-0.36370903,8.810373,4.254439,3
21728107123881,-0.38285163,8.815159,4.2017965,3
21728109502840,-0.37328035,8.810373,4.197011,3
21728111881798,-0.3684947,8.800801,4.211368,3
21728114260756,-0.34456646,8.810373,4.240082,3
21728116639715,-0.32542387,8.800801,4.240082,3
21728119018673,-0.29671,8.800801,4.2352962,3
21728121397683,-0.2632105,8.810373,4.2352962,3
21728123776642,-0.23449662,8.82473,4.249653,3
21728126155600,-0.20578274,8.829515,4.2448673,3
21728128534558,-0.2105684,8.85823,4.2592244,3
21728130913517,-0.22971097,8.863015,4.273581,3
21728133292475,-0.23449662,8.819944,4.3070807,3
21728135671433,-0.25842485,8.819944,4.331009,3
21728138050392,-0.28235307,8.805588,4.3405805,3
21728140429402,-0.30149564,8.7673025,4.359723,3
21728142808308,-0.3589234,8.7673025,4.3405805,3
21728145187319,-0.35413775,8.748159,4.3357944,3
21728147566277,-0.39720857,8.733803,4.3501515,3
21728149945235,-0.42592242,8.724232,4.3740797,3
21728152324194,-0.4354937,8.719446,4.3788652,3
21728154703152,-0.40677986,8.709874,4.3645086,3
21728157082110,-0.37328035,8.700303,4.3740797,3
21728159461069,-0.3397808,8.695518,4.3788652,3
21728161840027,-0.31585258,8.709874,4.3932223,3
21728164219037,-0.28235307,8.709874,4.4075794,3
21728166597996,-0.23449662,8.705089,4.4075794,3
21728168976954,-0.19621146,8.700303,4.412365,3
21728171355912,-0.15792629,8.724232,4.4171505,3
21728173734871,-0.1052842,8.738588,4.421936,3
21728176113829,-0.06699903,8.786445,4.421936,3
21728178492787,-0.0526421,8.796016,4.4315076,3
21728180871746,-0.062213387,8.796016,4.4410787,3
21728183250704,-0.043070808,8.819944,4.4315076,3
21728185629662,-0.043070808,8.848659,4.4410787,3
21728188008673,-0.047856454,8.853444,4.4602213,3
21728190387631,-0.08135597,8.867801,4.45065,3
21728192766590,-0.14356937,8.882157,4.426722,3
21728195145548,-0.16271193,8.886943,4.398008,3
21728197524506,-0.18185452,8.920443,4.388437,3
21728199903465,-0.2009971,8.9348,4.369294,3
21728202282423,-0.2105684,8.953942,4.3501515,3
21728204661433,-0.2105684,8.9826565,4.302295,3
21728207040392,-0.17706887,9.006584,4.287938,3
21728209419350,-0.15314065,8.992228,4.254439,3
21728211798308,-0.13399807,8.997013,4.2161536,3
21728214177267,-0.11006984,9.01137,4.2017965,3
21728216556225,-0.08135597,9.01137,4.1778684,3
21728218935183,-0.038285162,8.997013,4.168297,3
21728221314142,-0.014356935,9.016156,4.139583,3
21728223693100,0.009571291,9.006584,4.1347976,3
21728226072058,0.038285162,9.016156,4.1204405,3
21728228451017,0.076570325,9.025727,4.1108694,3
21728230830027,0.07178468,9.025727,4.101298,3
21728233208985,0.076570325,9.020942,4.091727,3
21728235587944,0.06699903,9.035298,4.082155,3
21728237966902,0.08135597,9.035298,4.091727,3
21728240345860,0.07178468,9.01137,4.0869412,3
21728242724819,0.05742774,9.020942,4.0677986,3
21728245103777,0.038285162,9.040084,4.0534415,3
21728247482735,0.02871387,9.040084,4.058227,3
21728249861694,-0.0047856453,9.040084,4.072584,3
21728252240652,-0.023928227,9.049655,4.072584,3
21728254619662,-0.023928227,9.040084,4.0773697,3
21728256998621,0.0,9.0544405,4.0677986,3
21728259377579,0.0,9.049655,4.058227,3
21728261756537,-0.0047856453,9.073584,4.048656,3
21728264135496,-0.019142581,9.078369,4.058227,3
21728266514454,-0.014356935,9.092726,4.058227,3
21728268893412,-0.014356935,9.083155,4.0677986,3
21728271272371,-0.033499517,9.092726,4.058227,3
21728273651381,-0.047856454,9.126225,4.058227,3
21728276030340,-0.043070808,9.126225,4.082155,3
21728278409298,-0.07178468,9.092726,4.0390844,3
21728280788256,-0.076570325,9.068798,4.0390844,3
21728283167215,-0.09092726,9.073584,4.024728,3
21728285546173,-0.148355,9.068798,4.0103707,3
21728287925131,-0.16271193,9.068798,4.034299,3
21728290304090,-0.19621146,9.068798,4.0390844,3
21728292683048,-0.2105684,9.040084,4.034299,3
21728295062058,-0.23449662,9.064013,4.0295134,3
21728297441017,-0.2536392,9.035298,4.048656,3
21728299819975,-0.2536392,9.025727,4.0534415,3
21728302198933,-0.2440679,9.025727,4.048656,3
21728304577892,-0.23449662,8.992228,4.0677986,3
21728306956850,-0.22971097,8.987442,4.058227,3
21728309335808,-0.19621146,8.968299,4.072584,3
21728311714767,-0.15792629,8.930014,4.0773697,3
21728314093725,-0.12921242,8.906086,4.0677986,3
21728316472683,-0.09571291,8.906086,4.082155,3
21728318851694,-0.038285162,8.896515,4.0869412,3
21728321230652,-0.014356935,8.886943,4.0965123,3
21728323609610,0.0047856453,8.882157,4.115655,3
21728325988569,0.014356935,8.853444,4.1347976,3
21728328367527,0.023928227,8.877372,4.125226,3
21728330746485,0.033499517,8.863015,4.125226,3
21728333125444,0.038285162,8.877372,4.1347976,3
21728335504402,0.02871387,8.896515,4.1443686,3
21728337883360,0.038285162,8.925228,4.125226,3
21728340262371,0.0526421,8.944371,4.130012,3
21728342641329,0.076570325,8.939586,4.1204405,3
21728345020287,0.09571291,8.9348,4.125226,3
21728347399246,0.086141616,8.939586,4.1347976,3
21728349778204,0.09571291,8.958728,4.1347976,3
21728352157162,0.12921242,8.973084,4.1204405,3
21728354536121,0.11964113,8.968299,4.125226,3
21728356915079,0.11485548,8.963513,4.1204405,3
21728359294037,0.124426775,8.987442,4.115655,3
21728361673048,0.11964113,9.016156,4.1347976,3
21728364052006,0.10049855,8.992228,4.125226,3
21728366430965,0.07178468,9.006584,4.139583,3
21728368809923,0.043070808,9.016156,4.1347976,3
21728371188881,0.02871387,9.020942,4.125226,3
21728373567840,-0.02871387,9.030513,4.1204405,3
21728375946798,-0.076570325,9.035298,4.101298,3
21728378325756,-0.15792629,9.006584,4.0965123,3
21728380704715,-0.19142582,9.001799,4.091727,3
21728383083725,-0.2440679,9.006584,4.0869412,3
21728385462683,-0.3062813,9.016156,4.082155,3
21728387841642,-0.38285163,9.01137,4.0869412,3
21728390220600,-0.43070808,8.992228,4.0677986,3
21728392599558,-0.4881358,9.020942,4.058227,3
21728394978517,-0.526421,9.006584,4.0438704,3
21728397357475,-0.56470615,9.01137,4.0390844,3
21728399736433,-0.6221339,9.016156,4.0295134,3
21728402115392,-0.64606214,8.987442,4.0390844,3
21728404494350,-0.6939186,8.968299,3.991228,3
21728406873360,-0.72263247,8.963513,3.9960139,3
21728409252319,-0.7369894,8.977871,3.991228,3
21728411631277,-0.7465607,9.01137,4.0103707,3
21728414010235,-0.76570326,8.997013,4.0103707,3
21728416389194,-0.7609176,9.01137,4.0295134,3
21728418768152,-0.7752745,9.016156,4.0295134,3
21728421147110,-0.80877405,8.997013,4.0151563,3
21728423526069,-0.8039884,9.001799,4.0103707,3
21728425905079,-0.8327023,8.987442,3.991228,3
21728428284037,-0.8422736,8.987442,3.9960139,3
21728430662996,-0.8757731,8.977871,3.9864426,3
21728433041954,-0.8709874,8.963513,4.005585,3
21728435420912,-0.8709874,8.968299,4.0151563,3
21728437799871,-0.8757731,8.958728,3.9816568,3
21728440178829,-0.85184485,8.963513,3.9577286,3
21728442557787,-0.86141616,8.9826565,3.9577286,3
21728444936746,-0.8279166,8.9826565,3.938586,3
21728447315704,-0.7800602,8.992228,3.9338005,3
21728449694662,-0.7465607,8.977871,3.9338005,3
21728452073673,-0.72263247,8.968299,3.9577286,3
21728454452579,-0.6891329,8.973084,3.9577286,3
21728456831590,-0.65084773,8.968299,3.9481573,3
21728459210548,-0.60777694,8.987442,3.9625144,3
21728461589506,-0.5599205,8.977871,3.9816568,3
21728463968465,-0.5312066,8.968299,3.9864426,3
21728466347423,-0.4977071,8.992228,4.019942,3
21728468726381,-0.45942193,8.997013,4.0151563,3
21728471105392,-0.44027936,9.006584,4.0295134,3
21728473484350,-0.41156548,9.001799,4.048656,3
21728475863308,-0.3924229,9.020942,4.0295134,3
21728478242267,-0.37806597,9.044869,4.0677986,3
21728480621225,-0.3684947,9.016156,4.0773697,3
21728483000183,-0.34456646,9.016156,4.0773697,3
21728485379142,-0.3493521,9.025727,4.115655,3
21728487758100,-0.37328035,9.016156,4.1443686,3
21728490137058,-0.34456646,9.016156,4.1443686,3
21728492516017,-0.3589234,9.040084,4.1635113,3
21728494895027,-0.34456646,9.016156,4.1778684,3
21728497273985,-0.3397808,9.001799,4.1635113,3
21728499652944,-0.31585258,8.997013,4.197011,3
21728502031902,-0.35413775,8.968299,4.2161536,3
21728504410860,-0.3493521,8.973084,4.23051,3
21728506789819,-0.3589234,8.963513,4.2257247,3
21728509168777,-0.3397808,8.949157,4.2161536,3
21728511547735,-0.36370903,8.968299,4.220939,3
21728513926694,-0.3924229,8.977871,4.2257247,3
21728516305704,-0.45942193,9.01137,4.278367,3
21728518684662,-0.4642076,9.006584,4.2831526,3
21728521063621,-0.5072784,9.020942,4.3070807,3
21728523442579,-0.5072784,8.973084,4.240082,3
21728525821537,-0.5312066,8.987442,4.197011,3
21728528200496,-0.526421,8.953942,4.206582,3
21728530579454,-0.57906306,8.925228,4.2687955,3
21728532958412,-0.6364908,8.882157,4.3262234,3
21728535337423,-0.67477596,8.9013,4.331009,3
21728537716381,-0.72263247,8.9108715,4.254439,3
21728540095340,-0.79441714,8.9013,4.197011,3
21728542474246,-0.8566305,8.925228,4.220939,3
21728544853256,-0.8853444,8.930014,4.240082,3
21728547232215,-0.94277215,8.953942,4.287938,3
21728549611173,-0.95712906,8.973084,4.254439,3
21728551990131,-0.9619147,8.987442,4.206582,3
21728554369090,-0.94755775,8.997013,4.1778684,3
21728556748048,-0.9667004,8.992228,4.1922255,3
21728559127058,-0.9810573,9.020942,4.211368,3
21728561506017,-0.95712906,8.977871,4.182654,3
21728563884975,-0.9379865,8.992228,4.1874394,3
21728566263933,-0.9284152,8.968299,4.2161536,3
21728568642892,-0.89491564,8.968299,4.2161536,3
21728571021850,-0.8566305,8.944371,4.211368,3
21728573400808,-0.8039884,8.9348,4.1778684,3
21728575779767,-0.7848458,8.930014,4.15394,3
21728578158725,-0.7848458,8.891729,4.168297,3
21728580537735,-0.7752745,8.882157,4.2017965,3
21728582916694,-0.7704889,8.867801,4.2352962,3
21728585295652,-0.7513463,8.843872,4.23051,3
21728587674610,-0.7465607,8.800801,4.206582,3
21728590053569,-0.7513463,8.805588,4.1922255,3
21728592432527,-0.7704889,8.805588,4.197011,3
21728594811485,-0.8039884,8.800801,4.206582,3
21728597190444,-0.80877405,8.805588,4.220939,3
21728599569402,-0.7800602,8.796016,4.197011,3
21728601948412,-0.7800602,8.786445,4.2017965,3
21728604327371,-0.7896315,8.810373,4.211368,3
21728606706329,-0.76570326,8.815159,4.2257247,3
21728609085287,-0.7322037,8.805588,4.206582,3
21728611464246,-0.6987042,8.815159,4.2017965,3
21728613843204,-0.66041905,8.815159,4.2257247,3
21728616222110,-0.6364908,8.829515,4.23051,3
21728618601121,-0.60777694,8.819944,4.249653,3
21728620980131,-0.60777694,8.82473,4.2448673,3
21728623359090,-0.5886344,8.82473,4.249653,3
21728625738048,-0.5694918,8.829515,4.220939,3
21728628117006,-0.55513483,8.815159,4.2257247,3
21728630495965,-0.5694918,8.810373,4.249653,3
21728632874923,-0.57906306,8.82473,4.26401,3
21728635253881,-0.61734825,8.843872,4.2687955,3
21728637632840,-0.6364908,8.839087,4.26401,3
21728640011798,-0.66041905,8.843872,4.26401,3
21728642390756,-0.6939186,8.819944,4.2831526,3
21728644769767,-0.7322037,8.800801,4.2975097,3
21728647148725,-0.7800602,8.805588,4.3118663,3
21728649527683,-0.81834537,8.800801,4.302295,3
21728651906642,-0.8709874,8.800801,4.2927237,3
21728654285600,-0.89013004,8.815159,4.3070807,3
21728656664558,-0.9092726,8.829515,4.321438,3
21728659043517,-0.9236295,8.82473,4.3070807,3
21728661422475,-0.9379865,8.834301,4.278367,3
21728663801433,-0.9523434,8.834301,4.2831526,3
21728666180392,-0.9523434,8.872586,4.2927237,3
21728668559402,-0.93320084,8.877372,4.2975097,3
21728670938360,-0.9092726,8.877372,4.3070807,3
21728673317319,-0.9092726,8.906086,4.2975097,3
21728675696277,-0.8662018,8.9108715,4.3118663,3
21728678075235,-0.8327023,8.939586,4.316652,3
21728680454194,-0.8279166,8.939586,4.3118663,3
21728682833152,-0.8327023,8.939586,4.3070807,3
21728685212110,-0.83748794,8.939586,4.3118663,3
21728687591069,-0.8327023,8.939586,4.321438,3
21728689970079,-0.83748794,8.939586,4.3118663,3
21728692349037,-0.83748794,8.930014,4.331009,3
21728694727996,-0.8566305,8.915657,4.3357944,3
21728697106954,-0.8997013,8.906086,4.316652,3
21728699485912,-0.91405827,8.906086,4.3262234,3
21728701864871,-0.94755775,8.886943,4.3357944,3
21728704243829,-0.9667004,8.863015,4.3645086,3
21728706622787,-0.9762716,8.853444,4.3788652,3
21728709001746,-0.9906286,8.872586,4.3645086,3
21728711380756,-1.0097711,8.834301,4.369294,3
21728713759715,-1.0001999,8.829515,4.369294,3
21728716138673,-0.971486,8.863015,4.3645086,3
21728718517631,-0.9667004,8.82473,4.3740797,3
21728720896590,-0.9619147,8.805588,4.3740797,3
21728723275548,-0.95712906,8.853444,4.3645086,3
21728725654506,-0.94755775,8.863015,4.3645086,3
21728728033465,-0.89491564,8.853444,4.3501515,3
21728730412423,-0.8853444,8.85823,4.354937,3
21728732791433,-0.8853444,8.848659,4.3740797,3
21728735170392,-0.8757731,8.863015,4.369294,3
21728737549350,-0.8566305,8.872586,4.3740797,3
21728739928308,-0.8757731,8.891729,4.3788652,3
21728742307267,-0.8470592,8.906086,4.3788652,3
21728744686225,-0.8327023,8.886943,4.3740797,3
21728747065183,-0.85184485,8.891729,4.3740797,3
21728749444142,-0.89013004,8.9013,4.3645086,3
21728751823100,-0.89013004,8.896515,4.3788652,3
21728754202110,-0.8997013,8.9013,4.3740797,3
21728756581069,-0.9236295,8.9108715,4.3788652,3
21728758960027,-0.9236295,8.891729,4.3740797,3
21728761338985,-0.9236295,8.867801,4.354937,3
21728763717944,-0.9092726,8.872586,4.345366,3
21728766096902,-0.9092726,8.877372,4.3501515,3
21728768475860,-0.91405827,8.839087,4.345366,3
21728770854819,-0.91884387,8.839087,4.3262234,3
21728773233777,-0.9092726,8.815159,4.3118663,3
21728775612787,-0.90448695,8.810373,4.3118663,3
21728777991746,-0.8709874,8.781659,4.287938,3
21728780370652,-0.8853444,8.776874,4.2831526,3
21728782749662,-0.8805587,8.772088,4.2831526,3
21728785128621,-0.8805587,8.772088,4.2687955,3
21728787507579,-0.8662018,8.7673025,4.26401,3
21728789886537,-0.8805587,8.7673025,4.2592244,3
21728792265496,-0.90448695,8.796016,4.23051,3
21728794644454,-0.90448695,8.796016,4.2017965,3
21728797023412,-0.9092726,8.79123,4.2017965,3
21728799402423,-0.94755775,8.796016,4.206582,3
21728801781381,-0.9667004,8.810373,4.2017965,3
21728804160340,-0.9619147,8.829515,4.182654,3
21728806539298,-0.971486,8.829515,4.1778684,3
21728808918256,-0.9619147,8.819944,4.173083,3
21728811297215,-0.95712906,8.815159,4.168297,3
21728813676173,-0.9619147,8.848659,4.1587257,3
21728816055131,-0.95712906,8.863015,4.173083,3
21728818434090,-0.95712906,8.863015,4.1635113,3
21728820813100,-0.94755775,8.848659,4.1587257,3
21728823192058,-0.9284152,8.863015,4.1491547,3
21728825571017,-0.91884387,8.872586,4.1491547,3
21728827949975,-0.9092726,8.896515,4.139583,3
21728830328933,-0.89013004,8.891729,4.115655,3
21728832707892,-0.89491564,8.877372,4.1443686,3
21728835086850,-0.9092726,8.853444,4.125226,3
21728837465756,-0.90448695,8.843872,4.101298,3
21728839844767,-0.8805587,8.896515,4.0869412,3
21728842223777,-0.9092726,8.906086,4.091727,3
21728844602735,-0.8997013,8.906086,4.0869412,3
21728846981694,-0.90448695,8.9013,4.091727,3
21728849360652,-0.94277215,8.882157,4.0869412,3
21728851739610,-0.98584294,8.891729,4.091727,3
21728854118569,-0.9954142,8.872586,4.101298,3
21728856497527,-0.98584294,8.891729,4.091727,3
21728858876485,-0.9906286,8.891729,4.0869412,3
21728861255444,-0.9954142,8.915657,4.091727,3
21728863634454,-1.0049855,8.925228,4.101298,3
21728866013412,-1.0049855,8.930014,4.1108694,3
21728868392371,-1.0145568,8.9108715,4.115655,3
21728870771329,-1.038485,8.9013,4.115655,3
21728873150287,-1.0336994,8.891729,4.130012,3
21728875529246,-1.0336994,8.9013,4.101298,3
21728877908204,-1.0097711,8.886943,4.1347976,3
21728880287162,-0.98584294,8.9108715,4.125226,3
21728882666121,-0.971486,8.906086,4.139583,3
21728885045131,-0.9523434,8.891729,4.1347976,3
21728887424090,-0.93320084,8.9108715,4.15394,3
21728889803048,-0.89013004,8.882157,4.173083,3
21728892182006,-0.85184485,8.877372,4.173083,3
21728894560912,-0.82313097,8.9013,4.182654,3
21728896939923,-0.7752745,8.9013,4.173083,3
21728899318881,-0.72263247,8.906086,4.1922255,3
21728901697840,-0.7322037,8.877372,4.1874394,3
21728904076798,-0.72741807,8.863015,4.206582,3
21728906455808,-0.7322037,8.882157,4.23051,3
21728908834767,-0.74177504,8.906086,4.2448673,3
21728911213725,-0.75613195,8.9013,4.2448673,3
21728913592683,-0.76570326,8.867801,4.2352962,3
21728915971642,-0.7848458,8.906086,4.26401,3
21728918350600,-0.79920274,8.906086,4.2592244,3
21728920729558,-0.81834537,8.920443,4.302295,3
21728923108517,-0.85184485,8.930014,4.302295,3
21728925487475,-0.8566305,8.9348,4.287938,3
21728927866485,-0.8662018,8.925228,4.287938,3
21728930245444,-0.86141616,8.906086,4.278367,3
21728932624402,-0.86141616,8.920443,4.2927237,3
21728935003360,-0.8470592,8.9108715,4.302295,3
21728937382319,-0.81834537,8.896515,4.2927237,3
21728939761277,-0.81834537,8.9013,4.254439,3
21728942140235,-0.7896315,8.9108715,4.240082,3
21728944519194,-0.7800602,8.915657,4.2257247,3
21728946898152,-0.7609176,8.9013,4.2161536,3
21728949277162,-0.7465607,8.906086,4.1922255,3
21728951656121,-0.74177504,8.896515,4.168297,3
21728954035079,-0.72741807,8.906086,4.1778684,3
21728956414037,-0.72263247,8.9013,4.1874394,3
21728958792996,-0.7082755,8.9108715,4.1491547,3
21728961171954,-0.6939186,8.930014,4.139583,3
21728963550912,-0.6795616,8.930014,4.1108694,3
21728965929871,-0.6987042,8.896515,4.106084,3
21728968308829,-0.6987042,8.891729,4.091727,3
21728970687840,-0.70348984,8.877372,4.106084,3
21728973066798,-0.6987042,8.872586,4.106084,3
21728975445756,-0.70348984,8.891729,4.091727,3
21728977824715,-0.6939186,8.915657,4.0773697,3
21728980203621,-0.71306115,8.930014,4.0390844,3
21728982582631,-0.66999036,8.939586,4.0438704,3
21728984961590,-0.66041905,8.953942,4.0390844,3
21728987340548,-0.64606214,8.963513,4.0438704,3
21728989719506,-0.59342,8.958728,4.058227,3
21728992098517,-0.56470615,8.9348,4.072584,3
21728994477475,-0.5072784,8.973084,4.058227,3
21728996856433,-0.4546363,8.973084,4.0390844,3
21728999235392,-0.41156548,8.992228,4.0390844,3
21729001614350,-0.3493521,9.006584,4.048656,3
21729003993308,-0.3062813,9.030513,4.048656,3
21729006372267,-0.26799613,9.040084,4.0438704,3
21729008751225,-0.22492532,9.059227,4.048656,3
21729011130183,-0.15792629,9.0544405,4.0438704,3
21729013509194,-0.13399807,9.073584,4.0295134,3
21729015888152,-0.10049855,9.064013,4.0295134,3
21729018267110,-0.09092726,9.097511,4.0438704,3
21729020646069,-0.09571291,9.097511,4.058227,3
21729023025027,-0.10049855,9.083155,4.0677986,3
21729025403985,-0.124426775,9.083155,4.063013,3
21729027782944,-0.14356937,9.073584,4.0773697,3
21729030161902,-0.148355,9.068798,4.101298,3
21729032540912,-0.19142582,9.059227,4.091727,3
21729034919819,-0.23928227,9.0544405,4.101298,3
21729037298829,-0.27756742,9.068798,4.125226,3
21729039677787,-0.32063824,9.059227,4.139583,3
21729042056746,-0.32542387,9.035298,4.130012,3
21729044435704,-0.34456646,9.025727,4.1443686,3
21729046814662,-0.3684947,9.035298,4.1347976,3
21729049193621,-0.36370903,9.020942,4.15394,3
21729051572579,-0.3397808,9.040084,4.1347976,3
21729053951537,-0.33020952,9.035298,4.125226,3
21729056330496,-0.31585258,9.020942,4.1204405,3
21729058709506,-0.28713873,9.025727,4.130012,3
21729061088465,-0.29192436,9.030513,4.115655,3
21729063467423,-0.28713873,9.025727,4.0965123,3
21729065846381,-0.2727818,8.997013,4.0965123,3
21729068225340,-0.33020952,8.987442,4.0869412,3
21729070604298,-0.37806597,8.992228,4.082155,3
21729072983256,-0.42592242,8.987442,4.082155,3
21729075362215,-0.46899325,9.001799,4.072584,3
21729077741225,-0.5312066,8.987442,4.082155,3
21729080120183,-0.5982057,9.006584,4.0869412,3
21729082499142,-0.6652047,8.992228,4.091727,3
21729084878100,-0.7082755,9.001799,4.0773697,3
21729087257058,-0.7465607,8.987442,4.063013,3
21729089636017,-0.7896315,8.992228,4.058227,3
21729092014975,-0.81834537,8.973084,4.072584,3
21729094393933,-0.83748794,8.973084,4.072584,3
21729096772892,-0.8662018,8.9826565,4.082155,3
21729099151902,-0.85184485,8.963513,4.063013,3
21729101530860,-0.82313097,8.949157,4.058227,3
21729103909819,-0.7704889,8.958728,4.0438704,3
21729106288777,-0.74177504,8.930014,4.0390844,3
21729108667735,-0.70348984,8.939586,4.0677986,3
21729111046694,-0.6795616,8.930014,4.0677986,3
21729113425652,-0.6364908,8.939586,4.063013,3
21729115804610,-0.59342,8.920443,4.0534415,3
21729118183569,-0.5407779,8.896515,4.048656,3
21729120562579,-0.4977071,8.915657,4.0295134,3
21729122941537,-0.45942193,8.9108715,4.024728,3
21729125320496,-0.43070808,8.915657,4.0438704,3
21729127699454,-0.42592242,8.9108715,4.034299,3
21729130078412,-0.43070808,8.915657,4.0438704,3
21729132457371,-0.4354937,8.939586,4.0390844,3
21729134836329,-0.42592242,8.915657,4.058227,3
21729137215287,-0.40677986,8.891729,4.063013,3
21729139594246,-0.40677986,8.882157,4.0869412,3
21729141973204,-0.39720857,8.9108715,4.0773697,3
21729144352215,-0.3924229,8.906086,4.0965123,3
21729146731173,-0.3493521,8.9108715,4.082155,3
21729149110131,-0.34456646,8.920443,4.0773697,3
21729151489090,-0.3062813,8.930014,4.072584,3
21729153868048,-0.29192436,8.9348,4.072584,3
21729156247006,-0.28713873,8.925228,4.0773697,3
21729158625965,-0.2440679,8.915657,4.082155,3
21729161004923,-0.19142582,8.944371,4.0677986,3
21729163383933,-0.18664017,8.9348,4.072584,3
21729165762892,-0.17228323,8.930014,4.0677986,3
21729168141850,-0.16749759,8.930014,4.063013,3
21729170520808,-0.148355,8.930014,4.0438704,3
21729172899767,-0.12921242,8.949157,4.0295134,3
21729175278725,-0.13399807,8.953942,4.034299,3
21729177657683,-0.13399807,8.977871,4.024728,3
21729180036642,-0.148355,8.963513,4.019942,3
21729182415600,-0.148355,8.968299,4.0295134,3
21729184794610,-0.19621146,8.973084,4.0151563,3
21729187173569,-0.23928227,8.992228,3.991228,3
21729189552527,-0.26799613,8.987442,3.9816568,3
21729191931485,-0.29671,8.992228,3.9816568,3
21729194310444,-0.33499518,9.006584,3.9864426,3
21729196689402,-0.36370903,8.992228,3.9960139,3
21729199068360,-0.3684947,8.987442,3.991228,3
21729201447319,-0.3924229,9.025727,3.9673,3
21729203826277,-0.40677986,9.001799,3.9720855,3
21729206205287,-0.4211368,9.01137,3.9720855,3
21729208584246,-0.42592242,9.006584,3.9433718,3
21729210963204,-0.43070808,9.040084,3.9481573,3
21729213342162,-0.44027936,9.068798,3.9481573,3
21729215721121,-0.4211368,9.059227,3.9433718,3
21729218100079,-0.41635114,9.049655,3.9673,3
21729220479037,-0.39720857,9.068798,3.9290147,3
21729222857996,-0.3397808,9.083155,3.9194436,3
21729225236954,-0.3493521,9.102298,3.938586,3
21729227615965,-0.3493521,9.102298,3.9338005,3
21729229994923,-0.33020952,9.12144,3.9433718,3
21729232373881,-0.29671,9.135797,3.9720855,3
21729234752840,-0.28235307,9.111869,3.9864426,3
21729237131798,-0.2536392,9.150154,3.9864426,3
21729239510756,-0.22492532,9.159725,3.9768713,3
21729241889715,-0.21535404,9.150154,3.9673,3
21729244268673,-0.18664017,9.135797,3.9864426,3
21729246647631,-0.16271193,9.174082,4.005585,3
21729249026590,-0.16749759,9.150154,4.019942,3
21729251405600,-0.13878371,9.12144,4.034299,3
21729253784558,-0.13399807,9.116654,4.0295134,3
21729256163517,-0.11964113,9.116654,4.034299,3
21729258542475,-0.11485548,9.107083,4.0534415,3
21729260921433,-0.10049855,9.097511,4.0773697,3
21729263300392,-0.09092726,9.092726,4.082155,3
21729265679350,-0.07178468,9.08794,4.063013,3
21729268058308,-0.047856454,9.083155,4.0965123,3
21729270437267,-0.043070808,9.0544405,4.0965123,3
21729272816277,-0.014356935,9.016156,4.091727,3
21729275195235,-0.014356935,8.997013,4.0869412,3
21729277574194,-0.0047856453,8.997013,4.101298,3
21729279953152,0.019142581,8.968299,4.0965123,3
21729282332058,-0.009571291,8.963513,4.101298,3
21729284711069,0.0,8.949157,4.1204405,3
21729287090027,-0.0047856453,8.939586,4.125226,3
21729289468985,0.0047856453,8.930014,4.1347976,3
21729291847996,-0.033499517,8.939586,4.1347976,3
21729294226954,-0.05742774,8.944371,4.1443686,3
21729296605912,-0.09092726,8.944371,4.1491547,3
21729298984871,-0.13399807,8.958728,4.173083,3
21729301363829,-0.20578274,8.963513,4.1778684,3
21729303742787,-0.25842485,8.958728,4.173083,3
21729306121746,-0.31585258,8.963513,4.173083,3
21729308500704,-0.35413775,8.968299,4.1778684,3
21729310879662,-0.4211368,8.973084,4.1874394,3
21729313258621,-0.44985065,8.977871,4.1778684,3
21729315637631,-0.4881358,8.953942,4.1635113,3
21729318016590,-0.4977071,8.968299,4.1587257,3
21729320395548,-0.5072784,8.973084,4.1635113,3
21729322774506,-0.5407779,8.977871,4.1587257,3
21729325153465,-0.55513483,8.930014,4.15394,3
21729327532423,-0.5886344,8.891729,4.15394,3
21729329911381,-0.5599205,8.891729,4.125226,3
21729332290340,-0.57906306,8.882157,4.139583,3
21729334669298,-0.5694918,8.85823,4.1491547,3
21729337048308,-0.56470615,8.872586,4.1491547,3
21729339427215,-0.5838487,8.886943,4.1347976,3
21729341806225,-0.6029913,8.896515,4.130012,3
21729344185183,-0.5694918,8.9108715,4.1347976,3
21729346564142,-0.5838487,8.896515,4.1443686,3
21729348943100,-0.59342,8.872586,4.139583,3
21729351322006,-0.61734825,8.9108715,4.1347976,3
21729353701017,-0.60777694,8.915657,4.1347976,3
21729356079975,-0.63170516,8.906086,4.130012,3
21729358458985,-0.6556334,8.930014,4.1491547,3
21729360837944,-0.64606214,8.949157,4.15394,3
21729363216902,-0.6652047,8.949157,4.1635113,3
21729365595860,-0.6939186,8.949157,4.1778684,3
21729367974819,-0.6891329,8.968299,4.1922255,3
21729370353777,-0.6843473,8.977871,4.197011,3
21729372732735,-0.67477596,8.958728,4.173083,3
21729375111694,-0.66999036,8.9826565,4.173083,3
21729377490704,-0.65084773,8.992228,4.1922255,3
21729379869662,-0.6364908,8.953942,4.173083,3
21729382248621,-0.6269195,8.968299,4.1635113,3
21729384627527,-0.60777694,8.963513,4.15394,3
21729387006537,-0.5886344,8.963513,4.168297,3
21729389385496,-0.5407779,8.953942,4.173083,3
21729391764454,-0.52163535,8.958728,4.1587257,3
21729394143412,-0.51206404,8.992228,4.1443686,3
21729396522371,-0.5024927,8.9826565,4.139583,3
21729398901329,-0.5072784,8.977871,4.1347976,3
21729401280340,-0.5024927,8.973084,4.1347976,3
21729403659298,-0.5407779,8.953942,4.125226,3
21729406038256,-0.55513483,8.949157,4.106084,3
21729408417215,-0.5838487,8.944371,4.1108694,3
21729410796173,-0.57427746,8.939586,4.1204405,3
21729413175131,-0.5982057,8.920443,4.115655,3
21729415554090,-0.63170516,8.944371,4.1108694,3
21729417933048,-0.65084773,8.949157,4.101298,3
21729420312058,-0.66041905,8.958728,4.101298,3
21729422691017,-0.66041905,8.953942,4.115655,3
21729425069975,-0.66999036,8.973084,4.0965123,3
21729427448933,-0.66041905,8.992228,4.091727,3
21729429827892,-0.6269195,8.973084,4.0869412,3
21729432206850,-0.60777694,8.987442,4.101298,3
21729434585808,-0.5599205,9.01137,4.0773697,3
21729436964767,-0.526421,8.992228,4.058227,3
21729439343725,-0.5024927,8.992228,4.101298,3
21729441722735,-0.47856453,9.01137,4.106084,3
21729444101694,-0.44506502,9.020942,4.101298,3
21729446480652,-0.4211368,9.016156,4.106084,3
21729448859610,-0.39720857,8.992228,4.0869412,3
21729451238569,-0.40677986,8.987442,4.0869412,3
21729453617527,-0.41156548,8.987442,4.091727,3
21729455996485,-0.41635114,8.977871,4.106084,3
21729458375444,-0.44027936,8.968299,4.1108694,3
21729460754402,-0.45942193,8.973084,4.0965123,3
21729463133412,-0.4977071,8.968299,4.101298,3
21729465512371,-0.52163535,8.973084,4.130012,3
21729467891277,-0.5312066,8.958728,4.106084,3
21729470270287,-0.55034924,8.958728,4.0869412,3
21729472649246,-0.5694918,8.968299,4.1108694,3
21729475028204,-0.5694918,8.973084,4.1204405,3
21729477407162,-0.52163535,8.973084,4.115655,3
21729479786121,-0.51206404,8.953942,4.115655,3
21729482165079,-0.4977071,8.963513,4.091727,3
21729484544090,-0.44506502,8.963513,4.0773697,3
21729486923048,-0.3924229,8.939586,4.091727,3
21729489302006,-0.3493521,8.939586,4.1108694,3
21729491680965,-0.32542387,8.939586,4.106084,3
21729494059923,-0.32542387,8.930014,4.1108694,3
21729496438881,-0.3062813,8.915657,4.101298,3
21729498817840,-0.28713873,8.886943,4.101298,3
21729501196798,-0.32542387,8.891729,4.1204405,3
21729503575756,-0.33020952,8.872586,4.1204405,3
21729505954767,-0.36370903,8.863015,4.125226,3
21729508333725,-0.38285163,8.863015,4.125226,3
21729510712683,-0.4019942,8.872586,4.1204405,3
21729513091642,-0.4546363,8.853444,4.1347976,3
21729515470600,-0.4977071,8.848659,4.1491547,3
21729517849558,-0.53599226,8.867801,4.1491547,3
21729520228517,-0.55034924,8.85823,4.168297,3
21729522607475,-0.5886344,8.891729,4.173083,3
21729524986433,-0.59342,8.9013,4.1874394,3
21729527365444,-0.5982057,8.896515,4.197011,3
21729529744402,-0.57906306,8.9013,4.197011,3
21729532123360,-0.5599205,8.906086,4.1874394,3
21729534502319,-0.53599226,8.896515,4.182654,3
21729536881277,-0.5599205,8.896515,4.197011,3
21729539260235,-0.52163535,8.9013,4.1778684,3
21729541639194,-0.526421,8.915657,4.197011,3
21729544018152,-0.53599226,8.9348,4.197011,3
21729546397162,-0.5599205,8.920443,4.1874394,3
21729548776121,-0.55513483,8.915657,4.182654,3
21729551155079,-0.59342,8.891729,4.1635113,3
21729553534037,-0.60777694,8.9108715,4.168297,3
21729555912996,-0.65084773,8.906086,4.1922255,3
21729558291954,-0.6987042,8.882157,4.206582,3
21729560670912,-0.7082755,8.886943,4.1922255,3
21729563049871,-0.7465607,8.915657,4.197011,3
21729565428829,-0.7800602,8.925228,4.1778684,3
21729567807787,-0.8039884,8.9348,4.1922255,3
21729570186798,-0.82313097,8.915657,4.1874394,3
21729572565756,-0.8279166,8.9108715,4.1778684,3
21729574944715,-0.8279166,8.915657,4.173083,3
21729577323673,-0.79920274,8.9108715,4.168297,3
21729579702631,-0.7848458,8.906086,4.1874394,3
21729582081590,-0.7704889,8.925228,4.1922255,3
21729584460548,-0.7322037,8.906086,4.2017965,3
21729586839506,-0.7082755,8.9108715,4.2017965,3
21729589218517,-0.6843473,8.896515,4.197011,3
21729591597475,-0.67477596,8.9108715,4.1922255,3
21729593976433,-0.66041905,8.9108715,4.2017965,3
21729596355392,-0.65084773,8.9108715,4.1922255,3
21729598734350,-0.63170516,8.930014,4.2161536,3
21729601113308,-0.64606214,8.930014,4.211368,3
21729603492267,-0.6412765,8.915657,4.2017965,3
21729605871225,-0.6556334,8.930014,4.206582,3
21729608250183,-0.66999036,8.925228,4.206582,3
21729610629142,-0.67477596,8.944371,4.2161536,3
21729613008100,-0.6795616,8.9348,4.2352962,3
21729615387110,-0.6843473,8.958728,4.254439,3
21729617766069,-0.6891329,8.939586,4.254439,3
21729620145027,-0.66041905,8.925228,4.23051,3
21729622523985,-0.63170516,8.953942,4.2257247,3
21729624902944,-0.61734825,8.958728,4.2352962,3
21729627281902,-0.6029913,8.953942,4.2352962,3
21729629660860,-0.5694918,8.939586,4.254439,3
21729632039871,-0.55034924,8.925228,4.2448673,3
21729634418829,-0.5455636,8.939586,4.249653,3
21729636797787,-0.53599226,8.920443,4.254439,3
21729639176694,-0.4977071,8.930014,4.249653,3
21729641555704,-0.4833502,8.925228,4.2352962,3
21729643934662,-0.49292147,8.925228,4.240082,3
21729646313621,-0.4881358,8.925228,4.240082,3
21729648692579,-0.4881358,8.9013,4.240082,3
21729651071590,-0.5072784,8.906086,4.23051,3
21729653450548,-0.52163535,8.9108715,4.2257247,3
21729655829506,-0.526421,8.915657,4.23051,3
21729658208465,-0.55034924,8.9108715,4.2257247,3
21729660587423,-0.6125626,8.920443,4.240082,3
21729662966381,-0.6412765,8.9348,4.249653,3
21729665345340,-0.6364908,8.944371,4.2448673,3
21729667724298,-0.64606214,8.939586,4.2448673,3
21729670103256,-0.6843473,8.949157,4.2448673,3
21729672482215,-0.66999036,8.939586,4.2352962,3
21729674861173,-0.6795616,8.958728,4.220939,3
21729677240183,-0.6795616,8.977871,4.2161536,3
21729679619142,-0.6652047,8.992228,4.2161536,3
21729681998100,-0.6556334,8.963513,4.211368,3
21729684377058,-0.64606214,8.958728,4.211368,3
21729686755965,-0.59342,8.939586,4.197011,3
21729689134975,-0.59342,8.9348,4.173083,3
21729691513933,-0.5838487,8.930014,4.1874394,3
21729693892892,-0.55034924,8.9108715,4.182654,3
21729696271902,-0.5407779,8.9013,4.173083,3
21729698650860,-0.5455636,8.886943,4.1874394,3
21729701029819,-0.55513483,8.882157,4.197011,3
21729703408777,-0.5455636,8.872586,4.1874394,3
21729705787735,-0.53599226,8.867801,4.197011,3
21729708166694,-0.53599226,8.867801,4.197011,3
21729710545652,-0.53599226,8.853444,4.1778684,3
21729712924610,-0.55513483,8.848659,4.2017965,3
21729715303569,-0.57906306,8.867801,4.211368,3
21729717682579,-0.59342,8.863015,4.197011,3
21729720061537,-0.5982057,8.839087,4.2161536,3
21729722440496,-0.6221339,8.843872,4.2161536,3
21729724819454,-0.61734825,8.85823,4.2352962,3
21729727198412,-0.6125626,8.853444,4.23051,3
21729729577319,-0.6029913,8.834301,4.206582,3
21729731956329,-0.5982057,8.843872,4.220939,3
21729734335287,-0.5982057,8.85823,4.2352962,3
21729736714246,-0.57906306,8.877372,4.211368,3
21729739093256,-0.5694918,8.882157,4.2161536,3
21729741472215,-0.5694918,8.867801,4.2257247,3
21729743851173,-0.5599205,8.877372,4.2161536,3
21729746230079,-0.57427746,8.896515,4.2161536,3
21729748609090,-0.5838487,8.896515,4.2017965,3
21729750988048,-0.57906306,8.920443,4.197011,3
21729753367006,-0.56470615,8.920443,4.2017965,3
21729755745965,-0.5694918,8.915657,4.211368,3
21729758124923,-0.59342,8.925228,4.1922255,3
21729760503933,-0.6125626,8.9013,4.1922255,3
21729762882892,-0.6221339,8.915657,4.197011,3
21729765261850,-0.6412765,8.930014,4.197011,3
21729767640808,-0.6652047,8.9348,4.1922255,3
21729770019767,-0.66041905,8.920443,4.206582,3
21729772398725,-0.66999036,8.920443,4.211368,3
21729774777683,-0.6939186,8.9348,4.2257247,3
21729777156642,-0.6939186,8.925228,4.2448673,3
21729779535600,-0.6795616,8.949157,4.220939,3
21729781914610,-0.6987042,8.944371,4.240082,3
21729784293569,-0.6987042,8.953942,4.249653,3
21729786672527,-0.6843473,8.953942,4.254439,3
21729789051485,-0.6556334,8.949157,4.26401,3
21729791430444,-0.6795616,8.953942,4.254439,3
21729793809402,-0.6652047,8.949157,4.2448673,3
21729796188360,-0.6795616,8.958728,4.249653,3
21729798567319,-0.6652047,8.968299,4.249653,3
21729800946329,-0.6652047,8.9348,4.26401,3
21729803325287,-0.6843473,8.906086,4.2592244,3
21729805704246,-0.66999036,8.925228,4.287938,3
21729808083204,-0.66041905,8.925228,4.2927237,3
21729810462162,-0.67477596,8.925228,4.2831526,3
21729812841121,-0.7082755,8.896515,4.273581,3
21729815220079,-0.72263247,8.9108715,4.273581,3
21729817599037,-0.74177504,8.886943,4.26401,3
21729819977996,-0.72741807,8.886943,4.2687955,3
21729822357006,-0.74177504,8.877372,4.26401,3
21729824735965,-0.72741807,8.877372,4.2592244,3
21729827114923,-0.72263247,8.9013,4.249653,3
21729829493881,-0.72741807,8.906086,4.2592244,3
21729831872840,-0.7178468,8.896515,4.26401,3
21729834251798,-0.70348984,8.85823,4.2592244,3
21729836630756,-0.6795616,8.891729,4.2448673,3
21729839009662,-0.6556334,8.872586,4.249653,3
21729841388673,-0.6125626,8.863015,4.249653,3
21729843767683,-0.60777694,8.863015,4.2687955,3
21729846146642,-0.5982057,8.872586,4.2448673,3
21729848525600,-0.59342,8.872586,4.249653,3
21729850904558,-0.5838487,8.867801,4.254439,3
21729853283517,-0.57906306,8.863015,4.2352962,3
21729855662475,-0.5838487,8.853444,4.249653,3
21729858041433,-0.6029913,8.85823,4.2448673,3
21729860420392,-0.6029913,8.853444,4.2257247,3
21729862799402,-0.6029913,8.863015,4.2161536,3
21729865178360,-0.60777694,8.867801,4.220939,3
21729867557319,-0.61734825,8.85823,4.2161536,3
21729869936277,-0.6364908,8.848659,4.2017965,3
21729872315235,-0.66041905,8.848659,4.1874394,3
21729874694194,-0.6556334,8.877372,4.1778684,3
21729877073152,-0.6843473,8.867801,4.173083,3
21729879452110,-0.66041905,8.853444,4.1778684,3
21729881831069,-0.6652047,8.863015,4.1778684,3
21729884210027,-0.66041905,8.867801,4.182654,3
21729886589037,-0.64606214,8.853444,4.1587257,3
21729888967996,-0.63170516,8.891729,4.15394,3
21729891346954,-0.6221339,8.896515,4.1443686,3
21729893725912,-0.60777694,8.9013,4.130012,3
21729896104871,-0.59342,8.9013,4.139583,3
21729898483829,-0.57427746,8.920443,4.139583,3
21729900862787,-0.5838487,8.939586,4.139583,3
21729903241746,-0.61734825,8.939586,4.130012,3
21729905620704,-0.6125626,8.9348,4.130012,3
21729907999662,-0.6364908,8.963513,4.115655,3
21729910378673,-0.6795616,8.987442,4.115655,3
21729912757631,-0.7178468,9.01137,4.115655,3
21729915136590,-0.7178468,9.01137,4.106084,3
21729917515548,-0.7465607,9.01137,4.101298,3
21729919894506,-0.76570326,9.035298,4.0965123,3
21729922273465,-0.7752745,9.025727,4.091727,3
21729924652423,-0.7704889,9.020942,4.101298,3
21729927031433,-0.7800602,9.01137,4.0869412,3
21729929410392,-0.7896315,9.035298,4.0869412,3
21729931789350,-0.7704889,9.025727,4.0869412,3
21729934168308,-0.7848458,9.01137,4.082155,3
21729936547267,-0.7800602,9.01137,4.082155,3
21729938926225,-0.7465607,9.01137,4.063013,3
21729941305183,-0.72741807,9.020942,4.0534415,3
21729943684142,-0.72741807,8.992228,4.0438704,3
21729946063152,-0.7082755,8.987442,4.0677986,3
21729948442110,-0.6939186,8.963513,4.058227,3
21729950821069,-0.6987042,8.953942,4.072584,3
21729953200027,-0.67477596,8.939586,4.072584,3
21729955578985,-0.66999036,8.925228,4.0773697,3
21729957957944,-0.6795616,8.9348,4.0677986,3
21729960336902,-0.6891329,8.925228,4.0773697,3
21729962715860,-0.7082755,8.930014,4.0965123,3
21729965094767,-0.71306115,8.915657,4.101298,3
21729967473829,-0.6939186,8.906086,4.0965123,3
21729969852787,-0.6891329,8.925228,4.0869412,3
21729972231746,-0.71306115,8.915657,4.125226,3
21729974610704,-0.70348984,8.925228,4.1347976,3
21729976989662,-0.67477596,8.920443,4.1347976,3
21729979368621,-0.66999036,8.920443,4.1204405,3
21729981747579,-0.65084773,8.920443,4.1443686,3
21729984126537,-0.64606214,8.930014,4.15394,3
21729986505496,-0.61734825,8.920443,4.1587257,3
21729988884454,-0.6125626,8.906086,4.1587257,3
21729991263465,-0.59342,8.891729,4.1635113,3
21729993642423,-0.5599205,8.9013,4.1778684,3
21729996021381,-0.57427746,8.906086,4.1922255,3
21729998400340,-0.57906306,8.915657,4.1922255,3
21730000779298,-0.55513483,8.906086,4.197011,3
21730003158256,-0.5838487,8.882157,4.197011,3
21730005537215,-0.60777694,8.872586,4.2017965,3
21730007916173,-0.60777694,8.877372,4.211368,3
21730010295131,-0.61734825,8.872586,4.206582,3
21730012674142,-0.61734825,8.877372,4.206582,3
21730015053100,-0.66041905,8.877372,4.2257247,3
21730017432058,-0.6795616,8.896515,4.240082,3
21730019811017,-0.6987042,8.925228,4.2257247,3
21730022189975,-0.7082755,8.915657,4.2448673,3
21730024568933,-0.71306115,8.9013,4.240082,3
21730026947892,-0.7082755,8.896515,4.2352962,3
21730029326850,-0.71306115,8.882157,4.2448673,3
21730031705860,-0.67477596,8.891729,4.23051,3
21730034084819,-0.6843473,8.886943,4.240082,3
21730036463777,-0.66041905,8.9013,4.249653,3
21730038842735,-0.64606214,8.920443,4.254439,3
21730041221694,-0.6269195,8.915657,4.26401,3
21730043600652,-0.60777694,8.915657,4.2592244,3
21730045979610,-0.60777694,8.920443,4.2448673,3
21730048358569,-0.6269195,8.9108715,4.2592244,3
21730050737527,-0.6412765,8.915657,4.278367,3
21730053116537,-0.6556334,8.915657,4.2687955,3
21730055495496,-0.66999036,8.9013,4.26401,3
21730057874402,-0.6987042,8.9013,4.249653,3
21730060253412,-0.7178468,8.925228,4.2448673,3
21730062632371,-0.75613195,8.906086,4.249653,3
21730065011329,-0.7513463,8.930014,4.2352962,3
21730067390287,-0.7465607,8.944371,4.2257247,3
21730069769246,-0.74177504,8.9348,4.220939,3
21730072148256,-0.7609176,8.939586,4.220939,3
21730074527215,-0.75613195,8.920443,4.23051,3
21730076906173,-0.75613195,8.886943,4.2352962,3
21730079285131,-0.71306115,8.891729,4.220939,3
21730081664090,-0.6891329,8.9108715,4.220939,3
21730084043048,-0.67477596,8.9108715,4.220939,3
21730086422006,-0.65084773,8.9108715,4.23051,3
21730088800965,-0.6269195,8.891729,4.23051,3
21730091179923,-0.59342,8.9108715,4.2161536,3
21730093558933,-0.5694918,8.920443,4.206582,3
21730095937892,-0.57906306,8.9348,4.211368,3
21730098316850,-0.5886344,8.920443,4.2161536,3
21730100695808,-0.5694918,8.915657,4.2017965,3
21730103074767,-0.57427746,8.925228,4.2017965,3
21730105453725,-0.5838487,8.9348,4.1922255,3
21730107832683,-0.6125626,8.920443,4.1778684,3
21730110211642,-0.6221339,8.930014,4.1922255,3
21730112590600,-0.66041905,8.939586,4.211368,3
21730114969610,-0.6843473,8.939586,4.1874394,3
21730117348569,-0.6891329,8.920443,4.182654,3
21730119727527,-0.70348984,8.925228,4.1874394,3
21730122106485,-0.7178468,8.925228,4.182654,3
21730124485444,-0.74177504,8.939586,4.1778684,3
21730126864402,-0.72741807,8.9348,4.173083,3
21730129243360,-0.6939186,8.920443,4.1587257,3
21730131622319,-0.6652047,8.925228,4.15394,3
21730134001277,-0.65084773,8.925228,4.1587257,3
21730136380235,-0.6364908,8.925228,4.1635113,3
21730138759246,-0.6269195,8.925228,4.1204405,3
21730141138204,-0.6221339,8.939586,4.139583,3
21730143517162,-0.6029913,8.930014,4.1347976,3
21730145896121,-0.6125626,8.925228,4.115655,3
21730148275079,-0.5599205,8.939586,4.1204405,3
21730150654037,-0.5455636,8.9348,4.115655,3
21730153032996,-0.526421,8.920443,4.125226,3
21730155412006,-0.5312066,8.925228,4.139583,3
21730157790965,-0.5407779,8.9348,4.130012,3
21730160169923,-0.52163535,8.939586,4.139583,3
21730162548881,-0.5407779,8.9348,4.1347976,3
21730164927840,-0.56470615,8.9108715,4.1347976,3
21730167306798,-0.5694918,8.944371,4.139583,3
21730169685756,-0.6029913,8.944371,4.1587257,3
21730172064715,-0.57906306,8.949157,4.1491547,3
21730174443673,-0.5838487,8.958728,4.168297,3
21730176822683,-0.59342,8.944371,4.168297,3
21730179201642,-0.5886344,8.925228,4.168297,3
21730181580600,-0.56470615,8.944371,4.168297,3
21730183959558,-0.5694918,8.9348,4.1778684,3
21730186338517,-0.55513483,8.939586,4.1635113,3
21730188717475,-0.526421,8.9348,4.173083,3
21730191096433,-0.5455636,8.9108715,4.1778684,3
21730193475392,-0.52163535,8.920443,4.197011,3
21730195854402,-0.52163535,8.906086,4.182654,3
21730198233360,-0.51206404,8.906086,4.182654,3
21730200612319,-0.53599226,8.891729,4.182654,3
21730202991277,-0.526421,8.906086,4.197011,3
21730205370235,-0.55034924,8.906086,4.1874394,3
21730207749142,-0.56470615,8.896515,4.1778684,3
21730210128152,-0.57427746,8.877372,4.173083,3
21730212507110,-0.57906306,8.882157,4.182654,3
21730214886069,-0.5599205,8.9108715,4.182654,3
21730217265079,-0.5982057,8.906086,4.1874394,3
21730219644037,-0.6029913,8.925228,4.1874394,3
21730222022996,-0.6029913,8.906086,4.1922255,3
21730224401954,-0.6269195,8.920443,4.197011,3
21730226780912,-0.6125626,8.925228,4.206582,3
21730229159871,-0.6125626,8.920443,4.197011,3
21730231538829,-0.60777694,8.930014,4.182654,3
21730233917787,-0.5982057,8.925228,4.197011,3
21730236296746,-0.5886344,8.9013,4.197011,3
21730238675756,-0.5886344,8.906086,4.2017965,3
21730241054715,-0.56470615,8.906086,4.1874394,3
21730243433673,-0.5455636,8.9013,4.1922255,3
21730245812631,-0.5599205,8.906086,4.2017965,3
21730248191590,-0.55513483,8.915657,4.197011,3
21730250570548,-0.55513483,8.920443,4.197011,3
21730252949506,-0.5455636,8.9348,4.1778684,3
21730255328465,-0.56470615,8.949157,4.182654,3
21730257707475,-0.56470615,8.953942,4.1922255,3
21730260086433,-0.57906306,8.939586,4.1874394,3
21730262465392,-0.5838487,8.939586,4.182654,3
21730264844350,-0.5694918,8.9348,4.173083,3
21730267223308,-0.6029913,8.949157,4.182654,3
21730269602267,-0.63170516,8.944371,4.206582,3
21730271981225,-0.6221339,8.930014,4.206582,3
21730274360131,-0.6412765,8.939586,4.2017965,3
21730276739142,-0.6652047,8.944371,4.211368,3
21730279118152,-0.66999036,8.944371,4.220939,3
21730281497110,-0.67477596,8.930014,4.220939,3
21730283876069,-0.67477596,8.9348,4.1922255,3
21730286255027,-0.6556334,8.9108715,4.1922255,3
21730288633985,-0.66999036,8.906086,4.1922255,3
21730291012944,-0.6556334,8.9013,4.197011,3
21730293391902,-0.63170516,8.930014,4.1778684,3
21730295770860,-0.61734825,8.958728,4.168297,3
21730298149819,-0.63170516,8.920443,4.15394,3
21730300528829,-0.6221339,8.906086,4.1587257,3
21730302907787,-0.5982057,8.915657,4.1587257,3
21730305286746,-0.57427746,8.9348,4.1635113,3
21730307665704,-0.57427746,8.939586,4.1587257,3
21730310044662,-0.57906306,8.920443,4.182654,3
21730312423621,-0.5982057,8.920443,4.1778684,3
21730314802579,-0.6029913,8.906086,4.1778684,3
21730317181537,-0.63170516,8.9108715,4.1778684,3
21730319560496,-0.61734825,8.9348,4.168297,3
21730321939506,-0.6221339,8.944371,4.173083,3
21730324318465,-0.6364908,8.953942,4.1635113,3
21730326697423,-0.63170516,8.915657,4.168297,3
21730329076381,-0.63170516,8.9348,4.168297,3
21730331455340,-0.6269195,8.944371,4.1587257,3
21730333834298,-0.6364908,8.930014,4.182654,3
21730336213256,-0.63170516,8.915657,4.1778684,3
21730338592215,-0.6125626,8.920443,4.1778684,3
21730340971225,-0.5982057,8.915657,4.1635113,3
21730343350183,-0.5838487,8.9013,4.1635113,3
21730345729142,-0.56470615,8.9013,4.1635113,3
21730348108100,-0.55513483,8.930014,4.1491547,3
21730350487058,-0.5407779,8.925228,4.1587257,3
21730352866017,-0.53599226,8.896515,4.125226,3
21730355244975,-0.5024927,8.896515,4.1443686,3
21730357623933,-0.49292147,8.9108715,4.1443686,3
21730360002892,-0.4833502,8.906086,4.15394,3
21730362381902,-0.4977071,8.9108715,4.15394,3
21730364760860,-0.49292147,8.930014,4.15394,3
21730367139819,-0.5072784,8.930014,4.15394,3
21730369518777,-0.5072784,8.925228,4.1635113,3
21730371897735,-0.5168497,8.9348,4.15394,3
21730374276694,-0.52163535,8.920443,4.15394,3
21730376655652,-0.526421,8.925228,4.1635113,3
21730379034610,-0.526421,8.920443,4.173083,3
21730381413621,-0.55034924,8.915657,4.168297,3
21730383792579,-0.57427746,8.9348,4.182654,3
21730386171537,-0.5455636,8.944371,4.182654,3
21730388550496,-0.55034924,8.930014,4.1874394,3
21730390929454,-0.53599226,8.963513,4.1922255,3
21730393308412,-0.53599226,8.930014,4.1587257,3
21730395687371,-0.526421,8.953942,4.173083,3
21730398066329,-0.47377887,8.944371,4.2017965,3
21730400445287,-0.4881358,8.949157,4.1778684,3
21730402824298,-0.4881358,8.9348,4.168297,3
21730405203256,-0.5072784,8.953942,4.168297,3
21730407582215,-0.5024927,8.944371,4.173083,3
21730409961173,-0.51206404,8.953942,4.182654,3
21730412340131,-0.5024927,8.949157,4.1874394,3
21730414719090,-0.51206404,8.939586,4.197011,3
21730417098048,-0.5072784,8.915657,4.2161536,3
21730419477006,-0.52163535,8.925228,4.2161536,3
21730421856017,-0.5312066,8.944371,4.2257247,3
21730424234975,-0.55034924,8.958728,4.2257247,3
21730426613933,-0.56470615,8.953942,4.220939,3
21730428992892,-0.5694918,8.949157,4.23051,3
21730431371850,-0.55513483,8.939586,4.2257247,3
21730433750808,-0.5599205,8.949157,4.2352962,3
21730436129767,-0.5982057,8.930014,4.23051,3
21730438508725,-0.6269195,8.920443,4.206582,3
21730440887683,-0.61734825,8.906086,4.211368,3
21730443266694,-0.6269195,8.9013,4.2161536,3
21730445645652,-0.6269195,8.896515,4.211368,3
21730448024610,-0.6221339,8.906086,4.2161536,3
21730450403569,-0.6221339,8.906086,4.206582,3
21730452782527,-0.6029913,8.891729,4.2161536,3
21730455161485,-0.5982057,8.896515,4.2352962,3
21730457540444,-0.6029913,8.906086,4.220939,3
21730459919402,-0.5886344,8.906086,4.23051,3
21730462298412,-0.59342,8.9013,4.2257247,3
21730464677371,-0.57906306,8.906086,4.211368,3
21730467056329,-0.6221339,8.920443,4.211368,3
21730469435235,-0.64606214,8.920443,4.220939,3
21730471814246,-0.63170516,8.930014,4.220939,3
21730474193204,-0.6221339,8.9108715,4.220939,3
21730476572162,-0.6364908,8.906086,4.2161536,3
21730478951121,-0.6652047,8.882157,4.2352962,3
21730481330079,-0.66999036,8.906086,4.220939,3
21730483709090,-0.6987042,8.882157,4.211368,3
21730486088048,-0.71306115,8.906086,4.220939,3
21730488467006,-0.72741807,8.920443,4.2352962,3
21730490845965,-0.7369894,8.915657,4.206582,3
21730493224923,-0.71306115,8.9013,4.206582,3
21730495603881,-0.70348984,8.915657,4.197011,3
21730497982840,-0.6939186,8.906086,4.182654,3
21730500361798,-0.6987042,8.9013,4.182654,3
21730502740808,-0.72263247,8.896515,4.173083,3
21730505119767,-0.6987042,8.896515,4.1778684,3
21730507498725,-0.6652047,8.891729,4.182654,3
21730509877683,-0.67477596,8.915657,4.182654,3
21730512256642,-0.6652047,8.915657,4.1778684,3
21730514635600,-0.65084773,8.915657,4.173083,3
21730517014506,-0.6269195,8.920443,4.197011,3
21730519393517,-0.60777694,8.896515,4.1874394,3
21730521772475,-0.59342,8.891729,4.2017965,3
21730524151485,-0.61734825,8.915657,4.1874394,3
21730526530444,-0.6221339,8.920443,4.1874394,3
21730528909402,-0.65084773,8.920443,4.1874394,3
21730531288360,-0.65084773,8.9348,4.182654,3
21730533667319,-0.66041905,8.925228,4.1922255,3
21730536046277,-0.67477596,8.930014,4.206582,3
21730538425235,-0.6795616,8.944371,4.220939,3
21730540804194,-0.67477596,8.944371,4.1922255,3
21730543183152,-0.65084773,8.939586,4.1874394,3
21730545562110,-0.65084773,8.949157,4.1922255,3
21730547941121,-0.64606214,8.953942,4.182654,3
21730550320079,-0.6221339,8.958728,4.1874394,3
21730552699037,-0.5982057,8.963513,4.1922255,3
21730555077996,-0.5886344,8.953942,4.197011,3
21730557456954,-0.5599205,8.944371,4.1922255,3
21730559835912,-0.52163535,8.930014,4.197011,3
21730562214923,-0.5072784,8.9348,4.206582,3
21730564593881,-0.5072784,8.915657,4.1922255,3
21730566972840,-0.51206404,8.920443,4.1922255,3
21730569351798,-0.49292147,8.906086,4.23051,3
21730571730756,-0.45942193,8.9108715,4.23051,3
21730574109715,-0.45942193,8.896515,4.2161536,3
21730576488673,-0.45942193,8.896515,4.211368,3
21730578867631,-0.4881358,8.925228,4.2161536,3
21730581246642,-0.4977071,8.915657,4.240082,3
21730583625600,-0.4881358,8.877372,4.2161536,3
21730586004558,-0.5312066,8.896515,4.2352962,3
21730588383517,-0.5599205,8.886943,4.2161536,3
21730590762475,-0.5599205,8.867801,4.220939,3
21730593141433,-0.56470615,8.891729,4.2257247,3
21730595520392,-0.5694918,8.877372,4.23051,3
21730597899350,-0.5838487,8.867801,4.2352962,3
21730600278308,-0.5982057,8.882157,4.2257247,3
21730602657267,-0.6029913,8.891729,4.220939,3
21730605036277,-0.6029913,8.867801,4.23051,3
21730607415235,-0.5694918,8.867801,4.220939,3
21730609794194,-0.57427746,8.877372,4.23051,3
21730612173152,-0.5599205,8.872586,4.23051,3
21730614552110,-0.55034924,8.853444,4.2161536,3
21730616931069,-0.53599226,8.882157,4.2257247,3
21730619310027,-0.5407779,8.882157,4.2257247,3
21730621689037,-0.5455636,8.886943,4.211368,3
21730624067996,-0.5455636,8.872586,4.206582,3
21730626446954,-0.5455636,8.877372,4.211368,3
21730628825912,-0.5455636,8.882157,4.206582,3
21730631204871,-0.56470615,8.877372,4.2017965,3
21730633583829,-0.5838487,8.906086,4.2017965,3
21730635962787,-0.61734825,8.906086,4.2161536,3
21730638341746,-0.6269195,8.9108715,4.23051,3
21730640720704,-0.6364908,8.930014,4.211368,3
21730643099715,-0.6364908,8.925228,4.220939,3
21730645478673,-0.6891329,8.915657,4.23051,3
21730647857631,-0.7082755,8.9348,4.220939,3
21730650236590,-0.7465607,8.930014,4.206582,3
21730652615548,-0.7322037,8.930014,4.211368,3
21730654994506,-0.72741807,8.939586,4.1922255,3
21730657373465,-0.7609176,8.973084,4.197011,3
21730659752423,-0.72741807,8.968299,4.1874394,3
21730662131433,-0.70348984,8.977871,4.1874394,3
21730664510392,-0.6987042,8.958728,4.1778684,3
21730666889350,-0.6795616,8.977871,4.1922255,3
21730669268308,-0.66999036,8.977871,4.168297,3
21730671647267,-0.6269195,8.968299,4.1587257,3
21730674026225,-0.6125626,8.977871,4.1587257,3
21730676405183,-0.57906306,8.958728,4.15394,3
21730678784142,-0.5838487,8.953942,4.1491547,3
21730681163100,-0.57427746,8.949157,4.1491547,3
21730683542058,-0.56470615,8.9348,4.15394,3
21730685921069,-0.5694918,8.9348,4.173083,3
21730688300027,-0.5838487,8.9348,4.1587257,3
21730690678985,-0.57427746,8.939586,4.1635113,3
21730693057944,-0.5838487,8.930014,4.173083,3
21730695436902,-0.6029913,8.944371,4.182654,3
21730697815860,-0.6125626,8.953942,4.182654,3
21730700194819,-0.61734825,8.939586,4.1443686,3
21730702573777,-0.6269195,8.939586,4.1587257,3
21730704952735,-0.6269195,8.930014,4.1922255,3
21730707331746,-0.61734825,8.925228,4.173083,3
21730709710704,-0.59342,8.920443,4.1635113,3
21730712089662,-0.57906306,8.930014,4.15394,3
21730714468621,-0.55513483,8.930014,4.1491547,3
21730716847579,-0.53599226,8.906086,4.139583,3
21730719226537,-0.5312066,8.915657,4.125226,3
21730721605496,-0.47856453,8.906086,4.130012,3
21730723984506,-0.47856453,8.920443,4.1443686,3
21730726363465,-0.4546363,8.920443,4.1443686,3
21730728742423,-0.4546363,8.920443,4.1347976,3
21730731121381,-0.47377887,8.9348,4.139583,3
21730733500340,-0.4881358,8.944371,4.1491547,3
21730735879298,-0.5072784,8.939586,4.1347976,3
21730738258256,-0.526421,8.977871,4.1443686,3
21730740637215,-0.5407779,8.944371,4.1443686,3
21730743016225,-0.5455636,8.930014,4.1443686,3
21730745395183,-0.5455636,8.949157,4.1347976,3
21730747774142,-0.56470615,8.9348,4.1347976,3
21730750153100,-0.5407779,8.939586,4.1347976,3
21730752532058,-0.5407779,8.944371,4.1491547,3
21730754911017,-0.57427746,8.9348,4.15394,3
21730757289975,-0.5599205,8.9348,4.139583,3
21730759668933,-0.55513483,8.939586,4.15394,3
21730762047944,-0.53599226,8.930014,4.139583,3
21730764426902,-0.53599226,8.920443,4.139583,3
21730766805860,-0.526421,8.920443,4.1443686,3
21730769184819,-0.5072784,8.930014,4.1491547,3
21730771563777,-0.4977071,8.930014,4.125226,3
21730773942683,-0.5024927,8.939586,4.1108694,3
21730776321694,-0.4881358,8.968299,4.115655,3
21730778700652,-0.47377887,8.963513,4.1491547,3
21730781079662,-0.4881358,8.949157,4.1443686,3
21730783458621,-0.5072784,8.9348,4.139583,3
21730785837579,-0.5072784,8.9348,4.1587257,3
21730788216537,-0.49292147,8.953942,4.1587257,3
21730790595496,-0.5072784,8.958728,4.1587257,3
21730792974454,-0.51206404,8.949157,4.173083,3
21730795353412,-0.51206404,8.953942,4.182654,3
21730797732371,-0.526421,8.944371,4.182654,3
21730800111329,-0.55034924,8.930014,4.1922255,3
21730802490340,-0.53599226,8.939586,4.1922255,3
21730804869298,-0.51206404,8.958728,4.1922255,3
21730807248256,-0.55034924,8.953942,4.182654,3
21730809627215,-0.5407779,8.958728,4.1922255,3
21730812006173,-0.55513483,8.949157,4.1874394,3
21730814385131,-0.53599226,8.930014,4.173083,3
21730816764090,-0.5455636,8.906086,4.1778684,3
21730819142996,-0.5407779,8.915657,4.1874394,3
21730821522006,-0.53599226,8.9108715,4.1491547,3
21730823901017,-0.5599205,8.925228,4.15394,3
21730826279975,-0.57906306,8.920443,4.1587257,3
21730828658933,-0.57906306,8.891729,4.1587257,3
21730831037892,-0.6125626,8.9013,4.1635113,3
21730833416850,-0.59342,8.9013,4.173083,3
21730835795808,-0.60777694,8.925228,4.1635113,3
21730838174767,-0.6029913,8.9108715,4.168297,3
21730840553673,-0.6125626,8.9108715,4.15394,3
21730842932735,-0.61734825,8.906086,4.1635113,3
21730845311694,-0.6269195,8.896515,4.1635113,3
21730847690652,-0.61734825,8.896515,4.1491547,3
21730850069610,-0.6412765,8.920443,4.168297,3
21730852448569,-0.6125626,8.9348,4.15394,3
21730854827527,-0.6125626,8.939586,4.1443686,3
21730857206485,-0.59342,8.944371,4.1443686,3
21730859585496,-0.59342,8.939586,4.15394,3
21730861964454,-0.5694918,8.9348,4.139583,3
21730864343412,-0.5455636,8.930014,4.1443686,3
21730866722371,-0.53599226,8.930014,4.15394,3
21730869101329,-0.53599226,8.939586,4.1491547,3
21730871480287,-0.53599226,8.944371,4.1491547,3
21730873859246,-0.5407779,8.953942,4.139583,3
21730876238204,-0.53599226,8.949157,4.130012,3
21730878617162,-0.55034924,8.958728,4.1347976,3
21730880996121,-0.5168497,8.968299,4.1587257,3
21730883375131,-0.5312066,8.973084,4.1635113,3
21730885754090,-0.5455636,8.963513,4.168297,3
21730888133048,-0.5168497,8.949157,4.1491547,3
21730890512006,-0.4977071,8.944371,4.1635113,3
21730892890965,-0.49292147,8.953942,4.1635113,3
21730895269923,-0.4642076,8.963513,4.15394,3
21730897648881,-0.44985065,8.963513,4.1778684,3
21730900027892,-0.44506502,8.944371,4.1587257,3
21730902406850,-0.4354937,8.944371,4.1778684,3
21730904785808,-0.42592242,8.939586,4.1778684,3
21730907164767,-0.41635114,8.944371,4.1778684,3
21730909543725,-0.38285163,8.939586,4.197011,3
21730911922683,-0.36370903,8.930014,4.1635113,3
21730914301642,-0.3493521,8.9348,4.1922255,3
21730916680600,-0.33020952,8.953942,4.173083,3
21730919059558,-0.33499518,8.949157,4.182654,3
21730921438569,-0.33020952,8.953942,4.182654,3
21730923817527,-0.32063824,8.953942,4.182654,3
21730926196485,-0.35413775,8.963513,4.211368,3
21730928575444,-0.36370903,8.953942,4.1874394,3
21730930954402,-0.3684947,8.977871,4.182654,3
21730933333360,-0.3684947,8.968299,4.173083,3
21730935712319,-0.35413775,8.977871,4.1635113,3
21730938091277,-0.3684947,9.006584,4.168297,3
21730940470287,-0.39720857,8.953942,4.1635113,3
21730942849246,-0.3924229,8.973084,4.1635113,3
21730945228204,-0.4019942,8.968299,4.1587257,3
21730947607162,-0.41156548,8.992228,4.1587257,3
21730949986121,-0.4019942,8.953942,4.1443686,3
21730952365079,-0.41156548,8.963513,4.15394,3
21730954744037,-0.4354937,8.963513,4.1443686,3
21730957123048,-0.4642076,8.953942,4.139583,3
21730959502006,-0.4546363,8.977871,4.139583,3
21730961880965,-0.43070808,8.958728,4.1204405,3
21730964259923,-0.4354937,8.958728,4.125226,3
21730966638881,-0.44506502,8.963513,4.130012,3
21730969017840,-0.40677986,8.968299,4.125226,3
21730971396798,-0.4019942,8.968299,4.125226,3
21730973775756,-0.44027936,8.953942,4.1108694,3
21730976154715,-0.44027936,8.949157,4.106084,3
21730978533725,-0.42592242,8.963513,4.1108694,3
21730980912683,-0.44027936,8.949157,4.1108694,3
21730983291642,-0.42592242,8.939586,4.1108694,3
21730985670600,-0.4354937,8.9826565,4.101298,3
21730988049558,-0.44985065,8.973084,4.101298,3
21730990428517,-0.4642076,8.963513,4.130012,3
21730992807475,-0.44027936,8.958728,4.101298,3
21730995186433,-0.4642076,8.953942,4.106084,3
21730997565444,-0.47856453,8.939586,4.091727,3
21730999944402,-0.4881358,8.944371,4.082155,3
21731002323360,-0.4833502,8.944371,4.0965123,3
21731004702319,-0.4833502,8.963513,4.082155,3
21731007081277,-0.47377887,8.958728,4.101298,3
21731009460235,-0.47856453,8.9826565,4.106084,3
21731011839194,-0.5024927,8.958728,4.101298,3
21731014218152,-0.4977071,8.968299,4.1204405,3
21731016597162,-0.47377887,8.953942,4.1204405,3
21731018976121,-0.4881358,8.939586,4.106084,3
21731021355079,-0.47856453,8.930014,4.101298,3
21731023734037,-0.46899325,8.953942,4.130012,3
21731026112996,-0.4642076,8.939586,4.1204405,3
21731028491954,-0.46899325,8.944371,4.125226,3
21731030870912,-0.4642076,8.930014,4.125226,3
21731033262110,-0.4546363,8.939586,4.130012,3
21731035628881,-0.45942193,8.944371,4.130012,3
21731038007840,-0.45942193,8.9348,4.1347976,3
21731040386798,-0.4833502,8.944371,4.1347976,3
21731042765756,-0.49292147,8.915657,4.139583,3
21731045144715,-0.49292147,8.920443,4.1443686,3
21731047523673,-0.49292147,8.906086,4.1443686,3
21731049902579,-0.5072784,8.930014,4.130012,3
21731052281590,-0.5168497,8.949157,4.1443686,3
21731054660600,-0.5168497,8.939586,4.1347976,3
21731057039558,-0.51206404,8.9348,4.1491547,3
21731059418517,-0.51206404,8.953942,4.139583,3
21731061797475,-0.55034924,8.949157,4.1347976,3
21731064176433,-0.55513483,8.963513,4.1443686,3
21731066555392,-0.5312066,8.963513,4.1491547,3
21731068934350,-0.526421,8.949157,4.15394,3
21731071313308,-0.52163535,8.939586,4.15394,3
21731073692267,-0.5024927,8.953942,4.1347976,3
21731076071277,-0.5168497,8.958728,4.1491547,3
21731078450235,-0.5168497,8.944371,4.15394,3
21731080829194,-0.51206404,8.944371,4.1635113,3
21731083208152,-0.5024927,8.944371,4.1491547,3
21731085587110,-0.5168497,8.939586,4.1347976,3
21731087966069,-0.51206404,8.939586,4.139583,3
21731090345027,-0.51206404,8.944371,4.1491547,3
21731092724037,-0.49292147,8.9348,4.15394,3
21731095102996,-0.47377887,8.958728,4.1491547,3
21731097481954,-0.5024927,8.963513,4.1635113,3
21731099860912,-0.5072784,8.973084,4.173083,3
21731102239871,-0.4881358,8.968299,4.173083,3
21731104618829,-0.4833502,8.949157,4.168297,3
21731106997787,-0.47856453,8.958728,4.1778684,3
21731109376746,-0.4881358,8.968299,4.1874394,3
21731111755756,-0.4833502,8.953942,4.182654,3
21731114134715,-0.49292147,8.963513,4.197011,3
21731116513673,-0.4881358,8.939586,4.1778684,3
21731118892631,-0.4977071,8.949157,4.1922255,3
21731121271590,-0.4881358,8.973084,4.1874394,3
21731123650548,-0.5072784,8.953942,4.1874394,3
21731126029506,-0.4977071,8.939586,4.1922255,3
21731128408517,-0.5168497,8.920443,4.182654,3
21731130787475,-0.4977071,8.906086,4.182654,3
21731133166433,-0.5072784,8.9108715,4.182654,3
21731135545392,-0.51206404,8.896515,4.197011,3
21731137924350,-0.5168497,8.925228,4.1874394,3
21731140303308,-0.526421,8.939586,4.1922255,3
21731142682267,-0.52163535,8.925228,4.173083,3
21731145061225,-0.53599226,8.925228,4.1587257,3
21731147440183,-0.5599205,8.925228,4.173083,3
21731149819194,-0.57427746,8.920443,4.182654,3
21731152198152,-0.56470615,8.915657,4.168297,3
21731154577110,-0.5455636,8.915657,4.168297,3
21731156956069,-0.56470615,8.906086,4.173083,3
21731159335027,-0.56470615,8.930014,4.1587257,3
21731161713985,-0.5599205,8.944371,4.173083,3
21731164092944,-0.55034924,8.939586,4.173083,3
21731166471902,-0.55513483,8.949157,4.173083,3
21731168850912,-0.5599205,8.953942,4.1778684,3
21731171229871,-0.55034924,8.953942,4.168297,3
21731173608829,-0.5599205,8.958728,4.182654,3
21731175987787,-0.55513483,8.949157,4.1874394,3
21731178366746,-0.52163535,8.9348,4.206582,3
21731180745704,-0.53599226,8.925228,4.1874394,3
21731183124662,-0.526421,8.939586,4.182654,3
21731185503621,-0.5072784,8.9348,4.1922255,3
21731187882579,-0.5168497,8.925228,4.197011,3
21731190261590,-0.51206404,8.930014,4.197011,3
21731192640548,-0.5168497,8.9108715,4.1778684,3
21731195019506,-0.52163535,8.9108715,4.1874394,3
21731197398465,-0.51206404,8.896515,4.15394,3
21731199777423,-0.52163535,8.9013,4.1635113,3
21731202156381,-0.5072784,8.925228,4.173083,3
21731204535340,-0.5072784,8.9108715,4.1778684,3
21731206914350,-0.4977071,8.906086,4.168297,3
21731209293308,-0.5168497,8.891729,4.173083,3
21731211672267,-0.5168497,8.891729,4.168297,3
21731214051225,-0.51206404,8.915657,4.173083,3
21731216430183,-0.5072784,8.930014,4.1587257,3
21731218809142,-0.49292147,8.9348,4.15394,3
21731221188100,-0.4833502,8.915657,4.1491547,3
21731223567058,-0.4833502,8.9108715,4.1443686,3
21731225946069,-0.4977071,8.920443,4.168297,3
21731228325027,-0.51206404,8.944371,4.1635113,3
21731230703985,-0.49292147,8.949157,4.15394,3
21731233082944,-0.5312066,8.939586,4.1587257,3
21731235461902,-0.53599226,8.930014,4.1587257,3
21731237840860,-0.526421,8.953942,4.168297,3
21731240219819,-0.5168497,8.939586,4.1635113,3
21731242598777,-0.526421,8.939586,4.1778684,3
21731244977787,-0.5312066,8.963513,4.1635113,3
21731247356746,-0.5168497,8.953942,4.1347976,3
21731249735704,-0.5407779,8.930014,4.1347976,3
21731252114662,-0.5407779,8.953942,4.1587257,3
21731254493621,-0.53599226,8.944371,4.1635113,3
21731256872579,-0.53599226,8.949157,4.168297,3
21731259251537,-0.55034924,8.963513,4.1778684,3
21731261630496,-0.526421,8.944371,4.1778684,3
21731264009506,-0.51206404,8.968299,4.1874394,3
21731266388465,-0.526421,8.973084,4.173083,3
21731268767423,-0.526421,8.939586,4.173083,3
21731271146381,-0.52163535,8.953942,4.1635113,3
21731273525340,-0.5024927,8.915657,4.1778684,3
21731275904298,-0.52163535,8.930014,4.173083,3
21731278283256,-0.5455636,8.925228,4.173083,3
21731280662215,-0.53599226,8.915657,4.2017965,3
21731283041225,-0.55513483,8.9013,4.1922255,3
21731285420183,-0.5694918,8.9348,4.206582,3
21731287799142,-0.55034924,8.9348,4.1922255,3
21731290178100,-0.5455636,8.9348,4.1922255,3
21731292557058,-0.5694918,8.9013,4.206582,3
21731294936017,-0.57427746,8.906086,4.206582,3
21731297314975,-0.5886344,8.925228,4.206582,3
21731299693985,-0.59342,8.906086,4.211368,3
21731302072944,-0.5886344,8.9108715,4.211368,3
21731304451902,-0.55034924,8.930014,4.211368,3
21731306830860,-0.53599226,8.9013,4.23051,3
21731309209819,-0.526421,8.882157,4.2017965,3
21731311588777,-0.53599226,8.877372,4.206582,3
21731313967735,-0.5168497,8.896515,4.211368,3
21731316346694,-0.526421,8.896515,4.197011,3
21731318725704,-0.5024927,8.853444,4.197011,3
21731321104662,-0.5024927,8.877372,4.1922255,3
21731323483621,-0.47856453,8.85823,4.23051,3
21731325862579,-0.51206404,8.839087,4.2257247,3
21731328241537,-0.4881358,8.848659,4.206582,3
21731330620496,-0.5168497,8.853444,4.2257247,3
21731332999454,-0.5168497,8.863015,4.240082,3
21731335378465,-0.53599226,8.872586,4.220939,3
21731337757423,-0.56470615,8.872586,4.2257247,3
21731340136381,-0.5312066,8.863015,4.220939,3
21731342515340,-0.53599226,8.896515,4.2257247,3
21731344894298,-0.55034924,8.886943,4.2352962,3
21731347273256,-0.56470615,8.863015,4.2257247,3
21731349652215,-0.55513483,8.863015,4.2352962,3
21731352031173,-0.56470615,8.891729,4.240082,3
21731354410131,-0.5599205,8.9013,4.2352962,3
21731356789090,-0.5407779,8.882157,4.2257247,3
21731359168100,-0.526421,8.886943,4.23051,3
21731361547058,-0.5024927,8.906086,4.2448673,3
21731363926017,-0.5072784,8.896515,4.2448673,3
21731366304975,-0.5024927,8.906086,4.240082,3
21731368683933,-0.4833502,8.930014,4.2352962,3
21731371062892,-0.47377887,8.920443,4.2352962,3
21731373441902,-0.44027936,8.930014,4.23051,3
21731375820860,-0.4354937,8.939586,4.23051,3
21731378199819,-0.4546363,8.939586,4.220939,3
21731380578777,-0.46899325,8.944371,4.23051,3
21731382957735,-0.44506502,8.930014,4.23051,3
21731385336694,-0.44985065,8.930014,4.220939,3
21731387715652,-0.4546363,8.973084,4.2257247,3
21731390094610,-0.45942193,8.963513,4.2352962,3
21731392473621,-0.49292147,8.944371,4.220939,3
21731394852579,-0.49292147,8.953942,4.220939,3
21731397231537,-0.55034924,8.973084,4.220939,3
21731399610496,-0.53599226,8.977871,4.220939,3
21731401989454,-0.5455636,8.992228,4.2257247,3
21731404368412,-0.5694918,8.992228,4.2257247,3
