t_ns,ax,ay,az,accuracy
20660465413137,1.2777673,8.867801,4.063013,3
20660467792043,1.1437693,8.872586,4.058227,3
20660470171053,0.9762716,8.9108715,4.139583,3
20660472550064,0.8853444,8.915657,4.249653,3
20660474929022,0.8039884,8.9013,4.321438,3
20660477308085,0.7465607,8.920443,4.302295,3
20660479687095,0.72263247,8.915657,4.2352962,3
20660482066053,0.7369894,8.9108715,4.139583,3
20660484445064,0.80877405,8.920443,4.115655,3
20660486824074,0.89013004,8.9013,4.15394,3
20660489203085,0.9954142,8.877372,4.23051,3
20660491582095,1.1102697,8.85823,4.2927237,3
20660493961105,1.2394822,8.867801,4.2687955,3
20660496340116,1.3208381,8.882157,4.206582,3
20660498719126,1.4261223,8.872586,4.115655,3
20660501098137,1.5026926,8.848659,4.0773697,3
20660503477147,1.5314065,8.872586,4.106084,3
20660505856158,1.5170496,8.839087,4.15394,3
20660508235064,1.4596218,8.82473,4.2017965,3
20660510614126,1.3782659,8.834301,4.2017965,3
20660512993137,1.2729816,8.834301,4.168297,3
20660515372147,1.2059826,8.834301,4.1108694,3
20660517751158,1.0959128,8.819944,4.106084,3
20660520130168,0.9667004,8.839087,4.130012,3
20660522509178,0.8853444,8.853444,4.1874394,3
20660524888189,0.83748794,8.834301,4.220939,3
20660527267199,0.80877405,8.85823,4.23051,3
20660529646210,0.8422736,8.867801,4.2161536,3
20660532025220,0.85184485,8.867801,4.168297,3
20660534404230,0.9092726,8.863015,4.139583,3
20660536783241,0.9762716,8.882157,4.125226,3
20660539162199,1.0815558,8.877372,4.1491547,3
20660541541158,1.2107682,8.867801,4.211368,3
20660543920220,1.2777673,8.867801,4.2161536,3
20660546299178,1.3543376,8.863015,4.2161536,3
20660548678241,1.4261223,8.867801,4.173083,3
20660551057251,1.4548361,8.886943,4.15394,3
20660553436262,1.4644074,8.877372,4.139583,3
20660555815272,1.4213367,8.872586,4.168297,3
20660558194283,1.3543376,8.882157,4.2017965,3
20660560573293,1.2729816,8.896515,4.2161536,3
20660562952251,1.1724831,8.891729,4.2161536,3
20660565331262,1.0719845,8.906086,4.197011,3
20660567710272,1.0001999,8.891729,4.168297,3
20660570089283,0.90448695,8.896515,4.1874394,3
20660572468293,0.8422736,8.891729,4.2017965,3
20660574847303,0.80877405,8.877372,4.2161536,3
20660577226314,0.7896315,8.891729,4.2161536,3
20660579605324,0.82313097,8.886943,4.211368,3
20660581984335,0.8805587,8.877372,4.1874394,3
20660584363345,0.9523434,8.886943,4.15394,3
20660586742355,1.0289137,8.867801,4.130012,3
20660589121366,1.1006985,8.843872,4.139583,3
20660591500324,1.2011969,8.839087,4.1491547,3
20660593879335,1.282553,8.834301,4.1587257,3
20660596258345,1.3399807,8.834301,4.168297,3
20660598637355,1.3734802,8.843872,4.1347976,3
20660601016366,1.3734802,8.877372,4.125226,3
20660603395376,1.3686945,8.877372,4.130012,3
20660605774387,1.3304094,8.872586,4.1347976,3
20660608153397,1.2634103,8.872586,4.139583,3
20660610532408,1.1772687,8.882157,4.168297,3
20660612911418,1.1102697,8.863015,4.182654,3
20660615290428,1.038485,8.872586,4.1778684,3
20660617669439,0.9523434,8.886943,4.168297,3
20660620048449,0.8805587,8.891729,4.1587257,3
20660622427408,0.8327023,8.906086,4.1635113,3
20660624806418,0.80877405,8.920443,4.182654,3
20660627185428,0.7800602,8.920443,4.197011,3
20660629564439,0.79920274,8.915657,4.206582,3
20660631943449,0.8566305,8.9108715,4.1874394,3
20660634322460,0.91405827,8.920443,4.1635113,3
20660636701470,0.9619147,8.9108715,4.1587257,3
20660639080480,1.0336994,8.915657,4.1443686,3
20660641459491,1.1246266,8.9013,4.1587257,3
20660643838501,1.1676974,8.9108715,4.1635113,3
20660646217512,1.2059826,8.9108715,4.168297,3
20660648596470,1.2346965,8.886943,4.1587257,3
20660650975480,1.2634103,8.896515,4.1491547,3
20660653354491,1.2203395,8.920443,4.15394,3
20660655733501,1.18684,8.9108715,4.1587257,3
20660658112512,1.134198,8.9013,4.1635113,3
20660660491522,1.0767702,8.896515,4.168297,3
20660662870533,1.0193424,8.877372,4.173083,3
20660665249543,0.9667004,8.877372,4.173083,3
20660667628553,0.90448695,8.886943,4.182654,3
20660670007564,0.85184485,8.9013,4.1491547,3
20660672386574,0.81834537,8.891729,4.15394,3
20660674765533,0.8422736,8.896515,4.1635113,3
20660677144543,0.8422736,8.896515,4.1587257,3
20660679523553,0.8566305,8.872586,4.1587257,3
20660681902564,0.91405827,8.882157,4.15394,3
20660684281574,0.971486,8.891729,4.139583,3
20660686660585,1.0432707,8.872586,4.15394,3
20660689039595,1.0959128,8.877372,4.139583,3
20660691418605,1.1629118,8.882157,4.1204405,3
20660693797616,1.2107682,8.867801,4.1347976,3
20660696176626,1.2490535,8.882157,4.1347976,3
20660698555637,1.2729816,8.882157,4.139583,3
20660700934647,1.282553,8.872586,4.1347976,3
20660703313605,1.282553,8.886943,4.115655,3
20660705692616,1.2346965,8.896515,4.1204405,3
20660708071626,1.1964114,8.906086,4.1347976,3
20660710450637,1.1437693,8.891729,4.130012,3
20660712829647,1.1102697,8.9013,4.1491547,3
20660715208658,1.0671989,8.896515,4.1635113,3
20660717587668,1.0193424,8.9108715,4.173083,3
20660719966678,0.9906286,8.9108715,4.1491547,3
20660722345689,0.9667004,8.930014,4.1491547,3
20660724724699,0.9523434,8.9013,4.168297,3
20660727103710,0.9619147,8.891729,4.173083,3
20660729482720,0.98584294,8.877372,4.15394,3
20660731861678,1.0241281,8.9013,4.1587257,3
20660734240689,1.038485,8.920443,4.168297,3
20660736619699,1.0767702,8.906086,4.1874394,3
20660738998710,1.119841,8.882157,4.1922255,3
20660741377720,1.1581261,8.867801,4.182654,3
20660743756730,1.2059826,8.863015,4.1778684,3
20660746135741,1.2059826,8.867801,4.1922255,3
20660748514751,1.2203395,8.877372,4.1874394,3
20660750893762,1.2251252,8.867801,4.1778684,3
20660753272772,1.2107682,8.839087,4.1874394,3
20660755651783,1.2059826,8.839087,4.1874394,3
20660758030741,1.2059826,8.829515,4.1874394,3
20660760409751,1.1724831,8.82473,4.197011,3
20660762788762,1.1437693,8.839087,4.1874394,3
20660765167772,1.1294123,8.853444,4.197011,3
20660767546783,1.105484,8.863015,4.23051,3
20660769925793,1.0863415,8.839087,4.2352962,3
20660772304803,1.1006985,8.843872,4.220939,3
20660774683814,1.1485549,8.843872,4.2257247,3
20660777062824,1.1437693,8.848659,4.2161536,3
20660779441835,1.1533405,8.863015,4.2161536,3
20660781820845,1.1916257,8.85823,4.2161536,3
20660784199855,1.2107682,8.843872,4.2161536,3
20660786578814,1.253839,8.834301,4.2257247,3
20660788957824,1.2777673,8.815159,4.206582,3
20660791336835,1.3064811,8.82473,4.197011,3
20660793715845,1.3160524,8.85823,4.2017965,3
20660796094855,1.3112668,8.85823,4.206582,3
20660798473866,1.3064811,8.853444,4.1874394,3
20660800852876,1.2921243,8.843872,4.197011,3
20660803231887,1.2777673,8.848659,4.1874394,3
20660805610897,1.268196,8.867801,4.197011,3
20660807989908,1.2777673,8.863015,4.197011,3
20660810368918,1.268196,8.843872,4.197011,3
20660812747876,1.2394822,8.85823,4.197011,3
20660815126887,1.2251252,8.853444,4.197011,3
20660817505897,1.2155539,8.839087,4.1874394,3
20660819884908,1.2203395,8.848659,4.1874394,3
20660822263918,1.2251252,8.848659,4.1874394,3
20660824642928,1.2059826,8.863015,4.182654,3
20660827021939,1.2107682,8.863015,4.173083,3
20660829400949,1.2155539,8.877372,4.1778684,3
20660831779960,1.2203395,8.896515,4.1778684,3
20660834158970,1.1964114,8.872586,4.1874394,3
20660836537980,1.1964114,8.867801,4.1922255,3
20660838916991,1.1964114,8.853444,4.182654,3
20660841295949,1.1916257,8.872586,4.197011,3
20660843674960,1.1916257,8.872586,4.1874394,3
20660846053970,1.18684,8.85823,4.1778684,3
20660848432980,1.1724831,8.863015,4.1778684,3
20660850811991,1.1533405,8.863015,4.168297,3
20660853191001,1.1485549,8.85823,4.1635113,3
20660855570012,1.1533405,8.877372,4.1635113,3
20660857949022,1.1485549,8.853444,4.15394,3
20660860328033,1.1437693,8.85823,4.1443686,3
20660862707043,1.1246266,8.85823,4.125226,3
20660865086053,1.134198,8.843872,4.125226,3
20660867465064,1.134198,8.85823,4.1108694,3
20660869844022,1.1294123,8.867801,4.1108694,3
20660872223033,1.0767702,8.867801,4.1108694,3
20660874602043,1.0719845,8.867801,4.125226,3
20660876981053,1.0911272,8.863015,4.1204405,3
20660879360064,1.052842,8.882157,4.1108694,3
20660881739074,1.0767702,8.896515,4.101298,3
20660884118085,1.0815558,8.920443,4.106084,3
20660886497095,1.0624132,8.915657,4.1347976,3
20660888876105,1.0576276,8.906086,4.1347976,3
20660891255116,1.0336994,8.9013,4.130012,3
20660893634126,1.0097711,8.925228,4.1204405,3
20660896013085,1.0097711,8.920443,4.1204405,3
20660898392095,0.9954142,8.9348,4.101298,3
20660900771105,0.98584294,8.939586,4.125226,3
20660903150116,0.98584294,8.915657,4.1204405,3
20660905529126,1.0001999,8.9348,4.1347976,3
20660907908137,1.0145568,8.930014,4.125226,3
20660910287147,1.0336994,8.925228,4.139583,3
20660912666158,1.0671989,8.925228,4.1443686,3
20660915045168,1.0863415,8.9108715,4.130012,3
20660917424178,1.0815558,8.925228,4.1108694,3
20660919803189,1.1006985,8.925228,4.115655,3
20660922182199,1.1246266,8.906086,4.106084,3
20660924561158,1.1389836,8.896515,4.091727,3
20660926940168,1.1150553,8.915657,4.0965123,3
20660929319178,1.105484,8.906086,4.115655,3
20660931698189,1.0959128,8.9108715,4.125226,3
20660934077199,1.0719845,8.9108715,4.101298,3
20660936456158,1.052842,8.906086,4.101298,3
20660938835220,1.0049855,8.891729,4.1108694,3
20660941214230,0.9906286,8.882157,4.115655,3
20660943593241,0.9810573,8.896515,4.101298,3
20660945972251,0.9667004,8.896515,4.115655,3
20660948351262,0.9619147,8.872586,4.130012,3
20660950730272,0.9810573,8.886943,4.115655,3
20660953109230,0.9762716,8.9013,4.106084,3
20660955488241,0.9762716,8.882157,4.106084,3
20660957867251,1.0193424,8.877372,4.125226,3
20660960246262,1.0145568,8.920443,4.1491547,3
20660962625272,1.0289137,8.9013,4.1778684,3
20660965004283,1.0432707,8.9013,4.182654,3
20660967383293,1.052842,8.920443,4.1587257,3
20660969762303,1.0671989,8.915657,4.1443686,3
20660972141314,1.0767702,8.896515,4.1587257,3
20660974520324,1.0767702,8.896515,4.168297,3
20660976899335,1.0719845,8.877372,4.1922255,3
20660979278345,1.0815558,8.877372,4.211368,3
20660981657303,1.0815558,8.896515,4.211368,3
20660984036314,1.0719845,8.882157,4.2017965,3
20660986415324,1.0624132,8.9108715,4.211368,3
20660988794335,1.0480564,8.920443,4.206582,3
20660991173345,1.0049855,8.9108715,4.220939,3
20660993552355,1.0097711,8.915657,4.2257247,3
20660995931366,1.0097711,8.9013,4.220939,3
20660998310376,0.9762716,8.896515,4.2257247,3
20661000689387,0.9954142,8.877372,4.2257247,3
20661003068397,1.0241281,8.85823,4.2161536,3
20661005447355,1.038485,8.853444,4.2257247,3
20661007826366,1.0576276,8.85823,4.2257247,3
20661010205376,1.0767702,8.843872,4.2161536,3
20661012584387,1.0815558,8.839087,4.2257247,3
20661014963397,1.0767702,8.834301,4.2161536,3
20661017342408,1.105484,8.843872,4.206582,3
20661019721418,1.134198,8.853444,4.211368,3
20661022100428,1.1294123,8.848659,4.1874394,3
20661024479439,1.1294123,8.82473,4.1778684,3
20661026858449,1.1533405,8.829515,4.2017965,3
20661029237460,1.1629118,8.834301,4.220939,3
20661031616418,1.1485549,8.819944,4.2257247,3
20661033995428,1.1246266,8.829515,4.220939,3
20661036374439,1.1102697,8.839087,4.211368,3
20661038753449,1.0815558,8.834301,4.240082,3
20661041132460,1.0624132,8.853444,4.249653,3
20661043511470,1.0336994,8.85823,4.2257247,3
20661045890480,1.0241281,8.863015,4.211368,3
20661048269491,1.0097711,8.85823,4.1874394,3
20661050648501,0.9906286,8.882157,4.173083,3
20661053027512,1.0097711,8.877372,4.182654,3
20661055406470,1.0624132,8.872586,4.2017965,3
20661057785480,1.0911272,8.872586,4.2448673,3
20661060164543,1.119841,8.886943,4.287938,3
20661062543553,1.1533405,8.848659,4.278367,3
20661064922512,1.1820544,8.829515,4.240082,3
20661067301522,1.2155539,8.839087,4.168297,3
20661069680533,1.2251252,8.863015,4.139583,3
20661072059543,1.2251252,8.848659,4.1635113,3
20661074438553,1.2442678,8.853444,4.1874394,3
20661076817564,1.2490535,8.843872,4.197011,3
20661079196574,1.2251252,8.829515,4.1635113,3
20661081575585,1.2203395,8.839087,4.115655,3
20661083954595,1.1964114,8.891729,4.0677986,3
20661086333605,1.134198,8.9108715,4.082155,3
20661088712564,1.0767702,8.882157,4.0965123,3
20661091091574,0.9810573,8.872586,4.139583,3
20661093470585,0.9379865,8.9108715,4.197011,3
20661095849595,0.8853444,8.9013,4.1874394,3
20661098228605,0.83748794,8.9013,4.15394,3
20661100607616,0.8566305,8.9348,4.115655,3
20661102986626,0.90448695,8.939586,4.1108694,3
20661105365637,0.9619147,8.925228,4.125226,3
20661107744647,1.0576276,8.891729,4.182654,3
20661110123658,1.1581261,8.891729,4.206582,3
20661112502668,1.2490535,8.877372,4.168297,3
20661114881626,1.3447664,8.891729,4.082155,3
20661117260637,1.4644074,8.915657,3.9960139,3
20661119639647,1.5218352,8.9108715,3.9816568,3
20661122018658,1.5696917,8.882157,4.019942,3
20661124397668,1.564906,8.872586,4.0390844,3
20661126776678,1.5361922,8.853444,4.058227,3
20661129155689,1.5122639,8.867801,4.0534415,3
20661131534699,1.4548361,8.85823,4.0151563,3
20661133913710,1.3686945,8.863015,3.991228,3
20661136292720,1.282553,8.891729,3.9816568,3
20661138671730,1.1916257,8.9013,4.0151563,3
20661141050741,1.1006985,8.906086,4.058227,3
20661143429699,1.0241281,8.915657,4.101298,3
20661145808710,0.9619147,8.906086,4.125226,3
20661148187720,0.9284152,8.896515,4.130012,3
20661150566730,0.9092726,8.915657,4.115655,3
20661152945741,0.9379865,8.939586,4.1204405,3
20661155324751,0.9667004,8.939586,4.1443686,3
20661157703762,1.0001999,8.9348,4.2017965,3
20661160082772,1.052842,8.925228,4.249653,3
20661162461783,1.1294123,8.939586,4.2687955,3
20661164840793,1.18684,8.915657,4.2352962,3
20661167219751,1.2394822,8.906086,4.220939,3
20661169598762,1.2586247,8.872586,4.206582,3
20661171977772,1.253839,8.843872,4.240082,3
20661174356783,1.2921243,8.848659,4.287938,3
20661176735793,1.282553,8.848659,4.3070807,3
20661179114803,1.2346965,8.863015,4.2975097,3
20661181493814,1.1294123,8.848659,4.26401,3
20661183872824,1.0719845,8.886943,4.2448673,3
20661186251835,0.9954142,8.867801,4.23051,3
20661188630845,0.94755775,8.867801,4.2448673,3
20661191009855,0.80877405,8.891729,4.220939,3
20661193388866,0.7465607,8.872586,4.1922255,3
20661195767824,0.6891329,8.843872,4.1874394,3
20661198146835,0.65084773,8.863015,4.240082,3
20661200525845,0.6125626,8.867801,4.273581,3
20661202904855,0.66999036,8.834301,4.273581,3
20661205283866,0.6987042,8.796016,4.240082,3
20661207662876,0.7704889,8.786445,4.220939,3
20661210041887,0.91405827,8.776874,4.254439,3
20661212420897,1.0767702,8.738588,4.2687955,3
20661214799908,1.2059826,8.79123,4.3070807,3
20661217178918,1.3543376,8.796016,4.26401,3
20661219557928,1.5026926,8.743374,4.211368,3
20661221936887,1.579263,8.796016,4.168297,3
20661224315897,1.6223338,8.834301,4.1874394,3
20661226694908,1.6271194,8.7673025,4.220939,3
20661229073918,1.5936198,8.752945,4.1778684,3
20661231452928,1.4883357,8.839087,4.15394,3
20661233831939,1.3351951,8.853444,4.1778684,3
20661236210949,1.1772687,8.82473,4.26401,3
20661238589960,1.0049855,8.853444,4.287938,3
20661240968970,0.8805587,8.85823,4.2448673,3
20661243347980,0.7752745,8.7577305,4.182654,3
20661245726991,0.7178468,8.71466,4.139583,3
20661248105949,0.72263247,8.7673025,4.1587257,3
20661250484960,0.7800602,8.7673025,4.1922255,3
20661252863970,0.8853444,8.743374,4.197011,3
20661255242980,1.0241281,8.786445,4.2257247,3
20661257621991,1.2586247,8.752945,4.26401,3
20661260001001,1.4979069,8.724232,4.273581,3
20661262380012,1.6749759,8.7577305,4.197011,3
20661264759022,1.8233309,8.829515,4.1347976,3
20661267138033,1.9621146,8.877372,4.1443686,3
20661269517043,2.0386848,8.9013,4.206582,3
20661271896053,2.0195422,8.906086,4.2831526,3
20661274275012,1.9908284,8.872586,4.302295,3
20661276654022,1.861616,8.891729,4.240082,3
20661279033033,1.7324036,8.9013,4.1204405,3
20661281412043,1.5696917,8.920443,4.0773697,3
20661283791053,1.3878372,8.939586,4.1108694,3
20661286170064,1.1676974,8.9826565,4.168297,3
20661288549074,0.95712906,8.992228,4.1874394,3
20661290928085,0.80877405,8.992228,4.168297,3
20661293307095,0.70348984,9.006584,4.1108694,3
20661295686105,0.6029913,9.0544405,4.058227,3
20661298065116,0.5455636,9.044869,4.005585,3
20661300444126,0.5072784,9.073584,4.005585,3
20661302823085,0.53599226,9.064013,4.0534415,3
20661305202095,0.5886344,9.078369,4.0869412,3
20661307581105,0.6652047,9.001799,4.024728,3
20661309960116,0.7465607,9.068798,4.0390844,3
20661312339126,0.8470592,9.073584,3.9864426,3
20661314718137,0.94277215,9.0544405,4.005585,3
20661317097147,1.0432707,9.001799,3.9673,3
20661319476158,1.0289137,9.040084,4.0007997,3
20661321855168,1.0480564,8.9826565,4.034299,3
20661324234178,1.0289137,8.958728,4.091727,3
20661326613189,1.0001999,9.001799,4.091727,3
20661328992147,0.95712906,9.025727,4.0438704,3
20661331371158,0.8757731,9.064013,4.058227,3
20661333750168,0.8039884,8.781659,3.9481573,3
20661336129178,0.7800602,8.772088,4.0390844,3
20661338508189,0.6412765,9.044869,4.072584,3
20661340887199,0.6364908,8.973084,4.125226,3
20661343266210,0.6795616,8.609376,4.1204405,3
20661345645220,0.53599226,8.829515,4.206582,3
20661348024230,0.59342,8.949157,4.115655,3
20661350403241,0.6843473,8.666803,4.082155,3
20661352782251,0.81834537,8.671589,4.0534415,3
20661355161262,0.7896315,8.977871,4.0773697,3
20661357540220,0.9954142,8.839087,4.1587257,3
20661359919230,1.2346965,8.633304,4.278367,3
20661362298241,1.3256238,8.776874,4.2975097,3
20661364677251,1.3878372,8.896515,4.2927237,3
20661367056262,1.5744773,8.642876,4.168297,3
20661369435272,1.5888343,8.776874,4.082155,3
20661371814283,1.4500505,8.953942,4.106084,3
20661374193293,1.4404793,8.800801,4.197011,3
20661376572303,1.3016955,8.748159,4.3357944,3
20661378951314,1.0911272,8.9348,4.3357944,3
20661381330272,0.94755775,9.0544405,4.3501515,3
20661383709283,0.8662018,8.877372,4.3405805,3
20661386088241,0.81834537,8.7673025,4.2161536,3
20661388467303,0.6891329,9.020942,4.182654,3
20661390846314,0.7178468,8.987442,4.211368,3
20661393225324,0.7704889,8.709874,4.2687955,3
20661395604335,0.7369894,8.843872,4.3645086,3
20661397983345,0.7513463,8.992228,4.359723,3
20661400362355,0.8327023,8.800801,4.287938,3
20661402741366,0.89013004,8.729017,4.1491547,3
20661405120376,0.90448695,8.958728,4.0869412,3
20661407499335,1.0289137,8.848659,4.1108694,3
20661409878345,1.1533405,8.628518,4.173083,3
20661412257355,1.2394822,8.786445,4.1874394,3
20661414636366,1.3351951,8.872586,4.1874394,3
20661417015376,1.579263,8.590233,4.1204405,3
20661419394387,1.6749759,8.63809,4.0390844,3
20661421773397,1.6701902,8.863015,4.024728,3
20661424152355,1.7563318,8.71466,4.024728,3
20661426531418,1.7802601,8.666803,4.072584,3
20661428910428,1.698904,8.930014,4.1204405,3
20661431289439,1.6414764,8.963513,4.168297,3
20661433668397,1.5840486,8.839087,4.115655,3
20661436047408,1.4404793,8.997013,4.0534415,3
20661438426418,1.3495519,9.102298,4.0007997,3
20661440805428,1.3160524,8.992228,4.063013,3
20661443184439,1.2346965,9.016156,4.139583,3
20661445563449,1.1389836,9.126225,4.206582,3
20661447942460,1.1485549,8.997013,4.240082,3
20661450321470,1.1581261,8.9108715,4.206582,3
20661452700480,1.119841,9.030513,4.173083,3
20661455079491,1.18684,8.963513,4.1491547,3
20661457458501,1.2586247,8.848659,4.1874394,3
20661459837512,1.3256238,8.872586,4.1922255,3
20661462216418,1.4548361,8.891729,4.23051,3
20661464595480,1.579263,8.752945,4.26401,3
20661466974491,1.6845472,8.743374,4.2352962,3
20661469353501,1.7754744,8.819944,4.182654,3
20661471732512,1.8711873,8.724232,4.1108694,3
20661474111522,1.8855443,8.647661,4.1108694,3
20661476490533,1.8520447,8.681161,4.1347976,3
20661478869543,1.7850457,8.695518,4.197011,3
20661481248553,1.6797615,8.609376,4.173083,3
20661483627564,1.4931214,8.63809,4.130012,3
20661486006574,1.3256238,8.676374,4.091727,3
20661488385533,1.1533405,8.695518,4.1108694,3
20661490764543,0.9619147,8.719446,4.1443686,3
20661493143553,0.79920274,8.786445,4.2161536,3
20661495522564,0.6987042,8.776874,4.249653,3
20661497901574,0.65084773,8.733803,4.206582,3
20661500280585,0.64606214,8.786445,4.1778684,3
20661502659595,0.72263247,8.839087,4.2161536,3
20661505038605,0.8709874,8.82473,4.278367,3
20661507417616,0.9810573,8.930014,4.331009,3
20661509796626,1.1102697,9.0544405,4.302295,3
20661512175585,1.3256238,8.963513,4.2448673,3
20661514554595,1.4404793,8.925228,4.15394,3
20661516933605,1.5218352,9.078369,4.1922255,3
20661519312616,1.5984055,9.059227,4.278367,3
20661521691626,1.6414764,8.987442,4.359723,3
20661524070637,1.5601203,9.044869,4.3501515,3
20661526449647,1.5074782,9.064013,4.3118663,3
20661528828658,1.3974084,8.925228,4.2592244,3
20661531207616,1.268196,8.973084,4.173083,3
20661533586678,1.119841,9.025727,4.101298,3
20661535965689,1.0193424,8.843872,4.0390844,3
20661538344699,0.9667004,8.786445,4.058227,3
20661540723658,0.83748794,8.805588,4.115655,3
20661543102668,0.74177504,8.724232,4.2257247,3
20661545481678,0.74177504,8.690732,4.278367,3
20661547860689,0.7322037,8.886943,4.254439,3
20661550239699,0.8279166,8.925228,4.091727,3
20661552618710,1.052842,8.853444,3.9864426,3
20661554997720,1.3304094,8.853444,3.9338005,3
20661557376730,1.4787644,8.748159,3.938586,3
20661559755741,1.6701902,8.571091,4.019942,3
20661562134751,1.7324036,8.595019,4.1347976,3
20661564513710,1.7036897,8.834301,4.15394,3
20661566892720,1.579263,8.9348,4.101298,3
20661569271730,1.5361922,8.963513,4.0438704,3
20661571650741,1.402194,9.040084,4.0965123,3
20661574029751,1.2490535,9.006584,4.1491547,3
20661576408762,1.1294123,8.896515,4.23051,3
20661578787772,1.0432707,8.829515,4.2975097,3
20661581166783,0.9092726,8.886943,4.321438,3
20661583545793,0.7896315,8.906086,4.254439,3
20661585924803,0.66999036,8.953942,4.23051,3
20661588303814,0.5982057,8.977871,4.173083,3
20661590682772,0.5455636,8.997013,4.173083,3
20661593061783,0.5455636,8.886943,4.168297,3
20661595440793,0.60777694,8.848659,4.240082,3
20661597819803,0.70348984,8.815159,4.240082,3
20661600198814,0.79441714,8.843872,4.2257247,3
20661602577824,0.86141616,8.872586,4.168297,3
20661604956835,1.0336994,8.9348,4.082155,3
20661607335845,1.1916257,8.953942,3.991228,3
20661609714855,1.3495519,8.906086,3.952943,3
20661612093866,1.4596218,8.829515,4.0007997,3
20661614472876,1.564906,8.786445,4.082155,3
20661616851835,1.579263,8.772088,4.1108694,3
20661619230845,1.5361922,8.776874,4.072584,3
20661621609855,1.416551,8.82473,4.0295134,3
20661623988866,1.2729816,8.896515,4.0103707,3
20661626367876,1.0959128,8.891729,4.024728,3
20661628746887,0.9379865,8.9348,4.048656,3
20661631125897,0.79920274,8.930014,4.15394,3
20661633504908,0.6843473,8.891729,4.1778684,3
20661635883918,0.5886344,8.915657,4.2017965,3
20661638262928,0.526421,8.9013,4.139583,3
20661640641887,0.47856453,8.968299,4.2161536,3
20661643020897,0.5168497,8.968299,4.2257247,3
20661645399908,0.55513483,9.01137,4.2831526,3
20661647778918,0.6652047,9.030513,4.23051,3
20661650157928,0.71306115,9.020942,4.206582,3
20661652536939,0.82313097,9.001799,4.211368,3
20661654915949,0.90448695,8.977871,4.2257247,3
20661657294960,1.0049855,9.001799,4.23051,3
20661659673970,1.038485,8.9826565,4.1874394,3
20661662052980,1.1006985,9.030513,4.23051,3
20661664431991,1.105484,9.001799,4.254439,3
20661666810949,1.1246266,8.987442,4.302295,3
20661669189960,1.1389836,8.944371,4.278367,3
20661671568970,1.1246266,8.939586,4.1922255,3
20661673947980,1.0767702,8.939586,4.0965123,3
20661676326991,1.0097711,8.9108715,4.082155,3
20661678706001,0.971486,8.896515,4.1491547,3
20661681085012,0.8709874,8.877372,4.2352962,3
20661683464022,0.80877405,8.863015,4.2687955,3
20661685843033,0.7704889,8.829515,4.2592244,3
20661688222043,0.74177504,8.853444,4.211368,3
20661690601001,0.7704889,8.872586,4.139583,3
20661692980012,0.8135597,8.839087,4.0869412,3
20661695359022,0.8662018,8.839087,4.101298,3
20661697738033,0.91884387,8.853444,4.1491547,3
20661700117043,0.98584294,8.843872,4.2017965,3
20661702496053,1.0624132,8.829515,4.182654,3
20661704875064,1.134198,8.848659,4.15394,3
20661707254074,1.1724831,8.863015,4.125226,3
20661709633085,1.2107682,8.82473,4.1347976,3
20661712012095,1.2490535,8.796016,4.1347976,3
20661714391105,1.268196,8.829515,4.206582,3
20661716770064,1.2729816,8.839087,4.2352962,3
20661719149074,1.2729816,8.829515,4.220939,3
20661721528085,1.2490535,8.848659,4.15394,3
20661723907095,1.18684,8.853444,4.101298,3
20661726286105,1.1676974,8.843872,4.106084,3
20661728665116,1.0911272,8.891729,4.2352962,3
20661731044126,1.038485,8.882157,4.321438,3
20661733423137,0.9810573,8.882157,4.26401,3
20661735802147,0.98584294,8.9108715,4.1587257,3
20661738181158,0.9619147,8.958728,4.082155,3
20661740560168,0.9619147,8.949157,4.0965123,3
20661742939126,0.94755775,8.963513,4.168297,3
20661745318137,1.0193424,8.958728,4.2161536,3
20661747697147,1.0624132,8.958728,4.2257247,3
20661750076158,1.1533405,8.925228,4.1587257,3
20661752455168,1.253839,8.963513,4.125226,3
20661754834178,1.3639089,8.9348,4.082155,3
20661757213189,1.4404793,8.925228,4.082155,3
20661759592199,1.5170496,8.925228,4.034299,3
20661761971210,1.564906,8.939586,4.0295134,3
20661764350220,1.6223338,8.891729,4.0295134,3
20661766729178,1.6510476,8.925228,4.082155,3
20661769108189,1.6606189,8.920443,4.0869412,3
20661771487199,1.6701902,8.930014,4.048656,3
20661773866210,1.6223338,8.920443,3.9720855,3
20661776245220,1.5457634,8.949157,3.9433718,3
20661778624230,1.4404793,8.944371,3.9673,3
20661781003241,1.3639089,8.939586,4.034299,3
20661783382251,1.253839,8.9348,4.072584,3
20661785761262,1.119841,8.987442,4.1108694,3
20661788140272,1.0624132,8.963513,4.0677986,3
20661790519283,0.94277215,8.963513,4.0534415,3
20661792898241,0.8853444,8.968299,4.0103707,3
20661795277251,0.8422736,8.9826565,4.024728,3
20661797656262,0.8566305,8.977871,4.072584,3
20661800035272,0.8853444,8.973084,4.125226,3
20661802414283,0.91884387,8.987442,4.1108694,3
20661804793293,1.0001999,8.987442,4.101298,3
20661807172303,1.119841,8.9826565,4.0534415,3
20661809551314,1.2203395,9.025727,4.0677986,3
20661811930324,1.3495519,8.939586,3.952943,3
20661814309335,1.4404793,9.006584,3.9768713,3
20661816688345,1.5218352,8.9826565,3.9481573,3
20661819067303,1.5218352,8.949157,4.0103707,3
20661821446314,1.5409778,8.915657,4.048656,3
20661823825324,1.5266209,8.987442,4.0869412,3
20661826204335,1.4548361,8.997013,4.0151563,3
20661828583345,1.3734802,8.9826565,3.9338005,3
20661830962355,1.2634103,9.020942,3.885944,3
20661833341366,1.1581261,9.073584,3.938586,3
20661835720376,1.0576276,9.006584,3.9960139,3
20661838099387,0.9762716,8.9826565,4.0677986,3
20661840478397,0.89491564,8.997013,4.101298,3
20661842857355,0.8422736,9.059227,4.0534415,3
20661845236366,0.86141616,8.977871,3.938586,3
20661847615376,0.8709874,9.01137,3.900301,3
20661849994387,0.89013004,9.020942,3.8955152,3
20661852373397,0.91884387,9.035298,3.9768713,3
20661854752408,1.0145568,8.9013,3.9864426,3
20661857131418,1.1246266,8.953942,4.0295134,3
20661859510428,1.1820544,9.01137,3.9960139,3
20661861889439,1.3447664,8.939586,3.991228,3
20661864268397,1.402194,8.944371,3.9816568,3
20661866647408,1.5457634,8.958728,3.8811584,3
20661869026366,1.5888343,9.049655,3.900301,3
20661871405428,1.6462619,8.863015,3.8093736,3
20661873784439,1.698904,8.9826565,3.9816568,3
20661876163449,1.5696917,8.963513,3.9864426,3
20661878542460,1.5601203,9.030513,4.072584,3
20661880921470,1.4644074,8.800801,3.8380876,3
20661883300480,1.4213367,9.140582,3.9625144,3
20661885679491,1.268196,8.9013,3.7710886,3
20661888058501,1.2155539,9.020942,3.9720855,3
20661890437460,1.1102697,8.920443,3.9577286,3
20661892816470,1.1246266,9.068798,4.1108694,3
20661895195480,0.971486,8.977871,4.005585,3
20661897574491,1.0241281,9.006584,3.9960139,3
20661899953501,1.0289137,9.068798,3.9433718,3
20661902332512,1.0767702,9.040084,3.9673,3
20661904711522,1.119841,8.9826565,4.024728,3
20661907090533,1.1916257,9.006584,4.0534415,3
20661909469543,1.3256238,9.0544405,3.9720855,3
20661911848553,1.2586247,9.001799,3.8955152,3
20661914227564,1.3926228,9.01137,3.8955152,3
20661916606574,1.3591232,8.992228,3.9242291,3
20661918985533,1.416551,9.016156,3.9864426,3
20661921364543,1.3256238,9.006584,4.0103707,3
20661923743553,1.3304094,9.035298,3.9960139,3
20661926122564,1.3351951,8.9348,3.8955152,3
20661928501574,1.3064811,8.920443,3.9290147,3
20661930880585,1.2059826,8.958728,4.0103707,3
20661933259595,1.1820544,8.891729,4.034299,3
20661935638605,1.134198,8.930014,4.115655,3
20661938017564,1.0863415,8.896515,4.072584,3
20661940396626,1.0767702,8.939586,4.0438704,3
20661942775585,1.105484,8.9108715,3.8811584,3
20661945154595,1.1916257,8.896515,3.871587,3
20661947533553,1.1676974,8.891729,3.9338005,3
20661949912564,1.2921243,8.9108715,3.991228,3
20661952291626,1.3016955,8.9108715,4.0103707,3
20661954670637,1.3591232,9.006584,4.0103707,3
20661957049647,1.2921243,8.930014,3.9050865,3
20661959428658,1.4213367,8.896515,3.900301,3
20661961807668,1.3734802,8.987442,3.9673,3
20661964186678,1.402194,8.944371,3.9290147,3
20661966565637,1.3208381,8.973084,3.9816568,3
20661968944647,1.3591232,8.968299,3.9577286,3
20661971323658,1.3543376,9.035298,4.005585,3
20661973702668,1.2969099,9.006584,4.019942,3
20661976081678,1.3256238,9.044869,4.0438704,3
20661978460689,1.3208381,8.9108715,4.005585,3
20661980839699,1.3112668,9.102298,4.1108694,3
20661983218710,1.2777673,8.987442,3.938586,3
20661985597720,1.2490535,9.064013,3.9960139,3
20661987976730,1.1389836,8.987442,3.900301,3
20661990355689,1.0624132,9.12144,4.0103707,3
20661992734699,0.91884387,8.958728,3.9864426,3
20661995113710,0.8662018,9.025727,4.101298,3
20661997492720,0.7178468,8.987442,4.072584,3
20661999871730,0.6125626,9.08794,4.1204405,3
20662002250741,0.53599226,8.973084,4.005585,3
20662004629751,0.5168497,9.0544405,4.082155,3
20662007008762,0.4354937,8.997013,4.058227,3
20662009387772,0.44027936,8.997013,4.173083,3
20662011766730,0.4833502,8.944371,4.2017965,3
20662014145741,0.56470615,8.973084,4.2592244,3
20662016524751,0.6125626,8.949157,4.168297,3
20662018903762,0.66999036,8.949157,4.115655,3
20662021282772,0.76570326,8.925228,4.0534415,3
20662023661783,0.80877405,8.949157,4.058227,3
20662026040793,0.86141616,8.925228,4.106084,3
20662028419803,0.85184485,8.925228,4.1635113,3
20662030798814,0.86141616,8.9348,4.1491547,3
20662033177824,0.7848458,8.944371,4.125226,3
20662035556835,0.7322037,8.9013,4.0677986,3
20662037935793,0.65084773,8.9108715,4.0534415,3
20662040314803,0.5455636,8.9013,4.063013,3
20662042693814,0.41156548,8.906086,4.1443686,3
20662045072824,0.33020952,8.891729,4.2017965,3
20662047451835,0.32063824,8.872586,4.2352962,3
20662049830845,0.32542387,8.872586,4.23051,3
20662052209855,0.32542387,8.867801,4.1778684,3
20662054588866,0.3493521,8.839087,4.125226,3
20662056967876,0.43070808,8.843872,4.0773697,3
20662059346887,0.4977071,8.819944,4.091727,3
20662061725897,0.53599226,8.805588,4.1108694,3
20662064104855,0.56470615,8.815159,4.168297,3
20662066483866,0.5838487,8.82473,4.1635113,3
20662068862876,0.5455636,8.810373,4.139583,3
20662071241887,0.51206404,8.810373,4.106084,3
20662073620897,0.42592242,8.819944,4.091727,3
20662075999908,0.32063824,8.877372,4.1108694,3
20662078378866,0.20578274,8.877372,4.1443686,3
20662080757928,0.11006984,8.882157,4.206582,3
20662083136939,0.033499517,8.9013,4.254439,3
20662085515897,-0.043070808,8.939586,4.2927237,3
20662087894908,-0.11964113,8.953942,4.254439,3
20662090273918,-0.124426775,8.992228,4.254439,3
20662092652928,-0.09571291,8.997013,4.2352962,3
20662095031939,-0.086141616,9.035298,4.254439,3
20662097410897,-0.062213387,9.025727,4.2687955,3
20662099789960,0.014356935,9.044869,4.287938,3
20662102168970,0.124426775,9.035298,4.273581,3
20662104547980,0.26799613,9.040084,4.254439,3
20662106926991,0.35413775,9.044869,4.2017965,3
20662109306001,0.43070808,9.025727,4.1778684,3
20662111684960,0.55034924,9.020942,4.168297,3
20662114063970,0.66999036,8.997013,4.2257247,3
20662116442980,0.7082755,8.992228,4.273581,3
20662118821991,0.74177504,9.001799,4.287938,3
20662121201001,0.76570326,9.006584,4.2592244,3
20662123580012,0.7704889,8.968299,4.2161536,3
20662125959022,0.7609176,8.925228,4.211368,3
20662128338033,0.6795616,8.9108715,4.2448673,3
20662130717043,0.61734825,8.9013,4.278367,3
20662133096053,0.5312066,8.872586,4.287938,3
20662135475012,0.4881358,8.853444,4.278367,3
20662137854022,0.41635114,8.839087,4.273581,3
20662140233033,0.3589234,8.800801,4.249653,3
20662142612043,0.28235307,8.776874,4.278367,3
20662144991053,0.26799613,8.743374,4.2687955,3
20662147370064,0.29671,8.733803,4.2687955,3
20662149749074,0.3493521,8.729017,4.273581,3
20662152128085,0.39720857,8.724232,4.2975097,3
20662154507095,0.47377887,8.729017,4.287938,3
20662156886053,0.6125626,8.709874,4.278367,3
20662159265064,0.75613195,8.71466,4.254439,3
20662161644074,0.8662018,8.738588,4.2448673,3
20662164023085,0.9667004,8.7577305,4.23051,3
20662166402095,1.0480564,8.762517,4.2352962,3
20662168781105,1.105484,8.786445,4.249653,3
20662171160116,1.1294123,8.79123,4.2161536,3
20662173539126,1.119841,8.82473,4.2161536,3
20662175918137,1.0719845,8.843872,4.211368,3
20662178297147,1.0193424,8.853444,4.2257247,3
20662180676158,0.9379865,8.891729,4.240082,3
20662183055116,0.8662018,8.9108715,4.278367,3
20662185434126,0.7848458,8.953942,4.302295,3
20662187813137,0.6939186,8.963513,4.3262234,3
20662190192147,0.6412765,8.949157,4.331009,3
20662192571158,0.59342,8.958728,4.331009,3
20662194950168,0.55513483,8.963513,4.331009,3
20662197329178,0.51206404,8.973084,4.3357944,3
20662199708189,0.47377887,8.9348,4.3645086,3
20662202087199,0.4546363,8.925228,4.4171505,3
20662204466158,0.43070808,8.9348,4.426722,3
20662206845168,0.42592242,8.906086,4.412365,3
20662209224178,0.4354937,8.920443,4.369294,3
20662211603189,0.43070808,8.906086,4.3357944,3
20662213982199,0.4546363,8.882157,4.354937,3
20662216361210,0.47856453,8.834301,4.3788652,3
20662218740168,0.53599226,8.839087,4.436293,3
20662221119230,0.5455636,8.829515,4.4458647,3
20662223498241,0.55034924,8.796016,4.4171505,3
20662225877251,0.5886344,8.786445,4.369294,3
20662228256262,0.57906306,8.805588,4.3405805,3
20662230635220,0.5694918,8.810373,4.354937,3
20662233014230,0.5694918,8.786445,4.3501515,3
20662235393241,0.5407779,8.786445,4.3788652,3
20662237772251,0.5455636,8.7577305,4.3788652,3
20662240151262,0.55513483,8.772088,4.3788652,3
20662242530272,0.5455636,8.748159,4.354937,3
20662244909283,0.56470615,8.738588,4.359723,3
20662247288293,0.57906306,8.743374,4.3501515,3
20662249667303,0.57906306,8.762517,4.388437,3
20662252046262,0.6269195,8.843872,4.3501515,3
20662254425272,0.8709874,7.982456,3.4408789,3
20662256804283,0.47377887,8.997013,4.9196434,3
20662259183293,0.60777694,7.4129643,4.85743,3
20662261562303,0.23928227,8.906086,6.546763,3
20662263941314,0.4546363,7.6809607,5.2163534,3
20662266320324,0.22492532,8.4705925,5.130212,3
20662268699335,-0.27756742,7.9154572,4.125226,3
20662271078345,0.148355,8.9348,5.139783,3
20662273457355,-0.19142582,8.279166,5.015356,3
20662275836314,-0.11964113,9.38465,5.7858453,3
20662278215324,-0.2536392,8.657232,5.0392847,3
20662280594335,0.148355,9.159725,5.4795637,3
20662282973345,0.33020952,8.968299,5.1062837,3
20662285352355,0.31106696,9.064013,5.029713,3
20662287731366,0.5886344,8.633304,4.5894337,3
20662290110376,0.59342,9.12144,5.058427,3
20662292489387,0.8997013,8.886943,4.843073,3
20662294868397,0.76570326,8.805588,4.7808595,3
20662297247355,1.2107682,8.867801,4.766503,3
20662299626366,1.4596218,8.786445,4.7282176,3
20662302005376,1.6031911,8.52802,4.426722,3
20662304384387,1.5744773,8.52802,4.5559344,3
20662306763397,1.9238294,8.370093,4.359723,3
20662309142408,1.6366907,8.504091,4.4075794,3
20662311521418,1.3399807,8.240881,4.024728,3
20662313900428,0.7465607,8.571091,4.426722,3
20662316279439,0.6221339,8.4705925,4.331009,3
20662318658449,0.17228323,8.580662,4.426722,3
20662321037408,-0.31106696,8.671589,4.3740797,3
20662323416418,-0.6364908,8.796016,4.168297,3
20662325795428,-0.7704889,8.805588,4.019942,3
20662328174439,-0.75613195,8.71466,4.0677986,3
20662330553449,-0.72741807,8.781659,4.354937,3
20662332932460,-0.6125626,8.633304,4.5224347,3
20662335311418,-0.38285163,8.776874,4.718646,3
20662337690480,-0.148355,8.7577305,4.5798626,3
20662340069491,0.09092726,8.7673025,4.469793,3
20662342448501,0.2632105,8.776874,4.3357944,3
20662344827460,0.4211368,8.9826565,4.412365,3
20662347206470,0.5838487,8.920443,4.426722,3
20662349585480,0.80877405,8.872586,4.5272202,3
20662351964491,1.0911272,8.915657,4.5415773,3
20662354343501,1.2155539,8.925228,4.5224347,3
20662356722512,1.1676974,8.958728,4.4554358,3
20662359101522,1.0815558,8.930014,4.240082,3
20662361480533,0.9762716,9.064013,4.2975097,3
20662363859543,0.74177504,8.963513,4.2927237,3
20662366238501,0.3397808,9.073584,4.4841495,3
20662368617512,0.014356935,9.040084,4.4602213,3
20662370996522,-0.26799613,9.068798,4.56072,3
20662373375533,-0.4881358,8.973084,4.4075794,3
20662375754543,-0.7465607,9.078369,4.273581,3
20662378133553,-0.80877405,9.12144,4.206582,3
20662380512564,-0.7609176,9.020942,4.173083,3
20662382891574,-0.526421,8.997013,4.1204405,3
20662385270585,-0.23449662,9.025727,4.206582,3
20662387649543,0.086141616,8.915657,4.2257247,3
20662390028553,0.41635114,8.9013,4.1347976,3
20662392407564,0.7800602,8.863015,3.9673,3
20662394786574,1.052842,8.877372,3.9481573,3
20662397165585,1.1964114,8.810373,3.900301,3
20662399544595,1.3591232,8.915657,3.8811584,3
20662401923605,1.430908,8.867801,3.8955152,3
20662404302564,1.4979069,8.719446,3.9481573,3
20662406681626,1.3734802,8.810373,4.063013,3
20662409060637,1.2442678,8.819944,4.106084,3
20662411439595,1.0049855,8.71466,3.9960139,3
20662413818605,0.6939186,8.896515,4.220939,3
20662416197616,0.55513483,8.537591,4.058227,3
20662418576626,0.31585258,8.848659,4.3262234,3
20662420955637,0.05742774,8.752945,4.45065,3
20662423334647,-0.2105684,8.79123,4.56072,3
20662425713658,-0.4354937,8.891729,4.369294,3
20662428092668,-0.45942193,9.064013,4.3740797,3
20662430471678,-0.526421,8.819944,4.436293,3
20662432850689,-0.4642076,8.9348,4.2975097,3
20662435229647,-0.43070808,9.298509,4.503292,3
20662437608658,-0.08135597,8.920443,4.426722,3
20662439987668,0.15792629,8.915657,4.388437,3
20662442366678,0.44506502,9.064013,4.3405805,3
20662444745689,0.7465607,9.030513,4.3357944,3
20662447124699,1.0241281,9.078369,4.3070807,3
20662449503710,1.2490535,8.949157,3.8476589,3
20662451882720,1.3591232,9.19801,4.254439,3
20662454261730,1.6271194,8.671589,4.091727,3
20662456640741,1.5553347,9.01137,4.211368,3
20662459019699,1.4500505,9.236296,4.302295,3
20662461398710,1.3830515,8.7577305,3.900301,3
20662463777720,1.2251252,8.920443,3.790231,3
20662466156730,1.0001999,9.040084,3.7710886,3
20662468535741,0.81834537,9.001799,3.991228,3
20662470914751,0.64606214,8.738588,3.9050865,3
20662473293762,0.32542387,9.102298,4.182654,3
20662475672772,0.13399807,8.925228,4.0007997,3
20662478051783,-0.014356935,8.819944,3.8237305,3
20662480430741,-0.11964113,8.886943,3.8141594,3
20662482809751,-0.22013968,8.987442,3.9290147,3
20662485188762,-0.20578274,8.82473,3.8955152,3
20662487567772,-0.12921242,8.848659,3.9768713,3
20662489946783,-0.13878371,9.030513,4.125226,3
20662492325741,0.009571291,8.800801,3.7950168,3
20662494704803,0.19142582,8.848659,3.8141594,3
20662497083814,0.41635114,8.743374,3.7663028,3
20662499462824,0.60777694,8.915657,3.952943,3
20662501841783,0.81834537,8.85823,3.991228,3
20662504220793,0.9667004,8.930014,3.9194436,3
20662506599803,1.0145568,9.030513,4.206582,3
20662508978814,1.2729816,8.599805,3.9816568,3
20662511357824,1.2586247,9.030513,4.1874394,3
20662513736835,1.2299109,8.997013,4.024728,3
20662516115845,0.9762716,8.882157,4.0438704,3
20662518494855,0.6652047,9.083155,3.9433718,3
20662520873866,0.27756742,9.212367,3.67059,3
20662523252876,-0.009571291,9.202796,4.354937,3
20662525631835,-0.18185452,8.705089,4.197011,3
20662528010845,-0.3493521,9.485149,4.4458647,3
20662530389855,-0.32063824,9.083155,4.321438,3
20662532768866,-0.31585258,8.882157,4.584648,3
20662535147876,-0.38285163,9.064013,4.3405805,3
20662537526887,-0.63170516,9.126225,4.1491547,3
20662539905897,-0.4833502,8.9108715,4.5559344,3
20662542284908,-0.5168497,8.853444,4.761717,3
20662544663918,-0.6652047,9.068798,4.546363,3
20662547042876,-0.57427746,9.01137,4.642076,3
20662549421887,-0.28713873,8.772088,4.618148,3
20662551800897,-0.4211368,9.145369,4.536792,3
20662554179908,-0.43070808,8.9348,4.2592244,3
20662556558918,-0.2632105,8.863015,4.3932223,3
20662558937928,-0.0526421,8.834301,4.503292,3
20662561316939,-0.16271193,8.9348,4.666004,3
20662563695949,-0.15314065,8.810373,4.6564326,3
20662566074960,0.05742774,8.719446,4.354937,3
20662568453970,-0.11485548,8.968299,4.4410787,3
20662570832928,-0.34456646,8.709874,4.26401,3
20662573211939,-0.64606214,9.040084,4.4602213,3
20662575590949,-0.53599226,8.843872,3.9673,3
20662577969960,-0.6843473,9.221938,4.5128636,3
20662580348970,-0.64606214,8.379665,4.058227,3
20662582727980,-0.6891329,9.547362,4.546363,3
20662585106991,-0.6987042,8.705089,3.6801612,3
20662587486001,-0.3493521,8.7673025,4.0965123,3
20662589865012,-0.34456646,8.671589,4.063013,3
20662592243970,-0.2105684,8.977871,4.4315076,3
20662594622980,-0.44027936,8.518449,4.3405805,3
20662597001991,-0.033499517,8.796016,4.287938,3
20662599381001,-0.043070808,8.623733,4.0007997,3
20662601760012,0.20578274,8.662018,3.9960139,3
20662604139022,0.18664017,8.666803,4.005585,3
20662606518033,0.17706887,8.781659,4.26401,3
20662608897043,0.17706887,8.599805,4.3501515,3
20662611276053,0.14356937,8.647661,4.5128636,3
20662613655012,0.22971097,8.60459,4.278367,3
20662616034022,0.09571291,8.671589,4.3357944,3
20662618413033,-0.11006984,8.480164,4.3405805,3
20662620792043,-0.3062813,8.690732,4.354937,3
20662623171053,-0.4354937,8.599805,4.354937,3
20662625550064,-0.5168497,8.63809,4.6325045,3
20662627929074,-0.6891329,8.815159,4.766503,3
20662630308085,-0.7322037,8.805588,4.493721,3
20662632687095,-0.75613195,8.915657,4.4745784,3
20662635066053,-0.5599205,8.719446,4.206582,3
20662637445064,-0.46899325,8.9826565,4.3405805,3
20662639824074,-0.21535404,8.79123,4.321438,3
20662642203085,-0.09571291,8.863015,4.6325045,3
20662644582095,0.038285162,8.843872,4.4841495,3
20662646961105,0.19142582,8.9108715,4.412365,3
20662649340116,0.5312066,8.920443,4.278367,3
20662651719126,0.7896315,9.102298,4.23051,3
20662654098085,0.9762716,9.016156,4.058227,3
20662656477095,1.038485,9.164511,4.2017965,3
20662658856105,1.2299109,9.01137,4.168297,3
20662661235116,1.3447664,9.126225,4.388437,3
20662663614126,1.3878372,9.016156,4.331009,3
20662665993137,1.2969099,9.097511,4.249653,3
20662668372147,1.2299109,8.977871,4.0103707,3
20662670751158,1.1294123,9.178867,4.23051,3
20662673130168,1.0432707,9.0544405,4.1108694,3
20662675509178,0.8805587,9.293723,4.273581,3
20662677888137,0.6556334,9.188439,4.273581,3
20662680267147,0.57906306,9.111869,4.1443686,3
20662682646158,0.55513483,9.288938,4.1778684,3
20662685025168,0.5886344,9.23151,4.316652,3
20662687404178,0.55034924,9.040084,3.938586,3
20662689783189,0.44985065,9.250652,4.019942,3
20662692162199,0.7800602,8.9108715,4.2161536,3
20662694541210,0.90448695,9.274581,4.3501515,3
20662696920220,0.79441714,9.049655,4.034299,3
20662699299178,1.1006985,8.949157,4.173083,3
20662701678189,1.3591232,9.116654,4.359723,3
20662704057199,1.5122639,8.968299,3.8093736,3
20662706436210,1.4452649,8.925228,4.063013,3
20662708815220,1.7850457,8.685946,4.197011,3
20662711194230,1.8664017,8.891729,4.130012,3
20662713573241,1.8376877,8.748159,4.130012,3
20662715952251,1.9190438,8.642876,4.359723,3
20662718331262,1.8376877,8.819944,4.173083,3
20662720710220,1.847259,8.772088,3.818945,3
20662723089230,1.6845472,8.743374,4.1491547,3
20662725468241,1.5074782,8.690732,4.072584,3
20662727847251,1.402194,8.848659,3.9673,3
20662730226262,1.2586247,8.690732,4.182654,3
20662732605272,1.1676974,8.733803,4.2448673,3
20662734984283,1.038485,8.829515,3.9050865,3
20662737363293,1.0671989,8.886943,3.9720855,3
20662739742303,1.0193424,8.810373,3.9816568,3
20662742121262,1.0289137,8.963513,3.8141594,3
20662744500272,1.0719845,8.944371,3.7950168,3
20662746879283,1.038485,9.030513,4.072584,3
20662749258293,1.0480564,9.08794,3.8763726,3
20662751637303,1.038485,9.241081,3.8333018,3
20662754016314,1.0241281,9.241081,3.8572302,3
20662756395324,0.971486,9.274581,3.723232,3
20662758774335,0.94755775,9.355937,3.6753755,3
20662761153345,0.8662018,9.403793,3.900301,3
20662763532303,0.7752745,9.394221,3.9194436,3
20662765911314,0.7178468,9.446864,3.885944,3
20662768290324,0.6556334,9.470792,3.9673,3
20662770669335,0.55034924,9.408579,3.9098723,3
20662773048345,0.4833502,9.375079,3.8524444,3
20662775427355,0.4546363,9.303294,3.991228,3
20662777806366,0.41156548,9.23151,4.106084,3
20662780185376,0.34456646,9.131011,4.082155,3
20662782564387,0.25842485,9.040084,4.1635113,3
20662784943345,0.2632105,8.920443,4.168297,3
20662787322355,0.29192436,8.815159,4.082155,3
20662789701366,0.3493521,8.7577305,4.1108694,3
20662792080324,0.37806597,8.662018,4.1108694,3
20662794459387,0.40677986,8.571091,4.1204405,3
20662796838397,0.45942193,8.49452,4.2352962,3
20662799217408,0.5455636,8.475378,4.2927237,3
20662801596418,0.5838487,8.422736,4.1874394,3
20662803975376,0.57906306,8.465807,4.168297,3
20662806354387,0.5982057,8.499306,4.1587257,3
20662808733397,0.59342,8.49452,4.0438704,3
20662811112408,0.51206404,8.508878,4.034299,3
20662813491418,0.4019942,8.599805,4.15394,3
20662815870428,0.26799613,8.647661,4.130012,3
20662818249439,0.14356937,8.709874,4.0965123,3
20662820628449,0.038285162,8.843872,4.101298,3
20662823007460,-0.062213387,8.949157,3.9864426,3
20662825386470,-0.13399807,8.997013,3.8524444,3
20662827765428,-0.17228323,9.064013,3.9242291,3
20662830144439,-0.15314065,9.140582,4.0151563,3
20662832523449,-0.11006984,9.116654,3.9673,3
20662834902460,-0.06699903,9.193225,4.0103707,3
20662837281470,0.023928227,9.260223,3.991228,3
20662839660480,0.16749759,9.250652,3.9146578,3
20662842039491,0.31106696,9.23151,3.8907297,3
20662844418501,0.42592242,9.269794,3.938586,3
20662846797512,0.57427746,9.269794,3.9290147,3
20662849176470,0.6987042,9.23151,3.9625144,3
20662851555480,0.81834537,9.255438,4.034299,3
20662853934491,0.8709874,9.260223,4.0295134,3
20662856313501,0.89491564,9.23151,3.9768713,3
20662858692512,0.8997013,9.202796,3.9481573,3
20662861071522,0.8662018,9.193225,3.9720855,3
20662863450533,0.7465607,9.135797,4.019942,3
20662865829543,0.61734825,9.059227,4.1347976,3
20662868208553,0.46899325,9.030513,4.2592244,3
20662870587512,0.32542387,9.006584,4.3118663,3
20662872966522,0.16749759,8.939586,4.331009,3
20662875345533,0.033499517,8.896515,4.345366,3
20662877724543,-0.06699903,8.867801,4.3501515,3
20662880103553,-0.12921242,8.829515,4.3788652,3
20662882482564,-0.13878371,8.800801,4.426722,3
20662884861574,-0.12921242,8.781659,4.493721,3
20662887240585,-0.07178468,8.7577305,4.508078,3
20662889619543,-0.0047856453,8.719446,4.4889355,3
20662891998553,0.09571291,8.690732,4.4985065,3
20662894377564,0.2105684,8.700303,4.4602213,3
20662896756574,0.29671,8.705089,4.4171505,3
20662899135585,0.38285163,8.695518,4.436293,3
20662901514543,0.47377887,8.719446,4.536792,3
20662903893605,0.57427746,8.729017,4.5655055,3
20662906272616,0.66999036,8.738588,4.570291,3
20662908651574,0.71306115,8.748159,4.575077,3
20662911030585,0.79920274,8.79123,4.570291,3
20662913409595,0.89013004,8.800801,4.517649,3
20662915788605,0.9284152,8.819944,4.5272202,3
20662918167616,1.0049855,8.729017,4.5128636,3
20662920546626,1.0911272,8.810373,4.56072,3
20662922925585,1.1581261,8.781659,4.469793,3
20662925304647,1.18684,8.85823,4.469793,3
20662927683658,1.2011969,8.863015,4.2927237,3
20662930062668,1.2011969,9.020942,4.211368,3
20662932441626,1.105484,9.092726,4.182654,3
20662934820637,1.0097711,8.963513,4.130012,3
20662937199647,0.8853444,8.9826565,4.072584,3
20662939578658,0.79441714,9.140582,4.058227,3
20662941957668,0.7082755,9.188439,4.0773697,3
20662944336678,0.5982057,9.116654,4.024728,3
20662946715689,0.53599226,9.245867,4.0390844,3
20662949094699,0.5694918,9.3511505,4.058227,3
20662951473658,0.6364908,9.164511,3.9625144,3
20662953852668,0.66041905,9.19801,3.9960139,3
20662956231678,0.7465607,9.183653,3.9481573,3
20662958610689,0.71306115,9.092726,3.900301,3
20662960989699,0.79441714,8.968299,3.885944,3
20662963368710,0.81834537,9.126225,4.0869412,3
20662965747720,0.8662018,8.968299,3.9481573,3
20662968126730,0.8422736,8.877372,3.9864426,3
20662970505741,0.9236295,8.843872,4.091727,3
20662972884699,0.79920274,8.958728,4.106084,3
20662975263710,0.55513483,8.705089,4.0773697,3
20662977642720,0.4211368,8.49452,4.469793,3
20662980021730,0.4881358,8.748159,4.6564326,3
20662982400741,0.10049855,8.5423765,3.991228,3
20662984779751,-0.29192436,8.676374,4.1874394,3
20662987158762,-0.19621146,8.432307,4.2161536,3
20662989537772,-0.7178468,8.829515,4.278367,3
20662991916730,-1.1437693,8.513663,4.23051,3
20662994295741,-0.98584294,8.925228,5.111069,3
20662996674751,-0.55513483,8.441878,4.584648,3
20662999053762,-0.56470615,8.762517,4.4602213,3
20663001432772,-0.02871387,8.508878,4.5559344,3
20663003811783,0.7178468,8.508878,4.618148,3
20663006190793,0.42592242,8.585447,4.331009,3
20663008569803,0.7513463,8.532805,4.45065,3
20663010948814,0.94755775,8.571091,4.948357,3
20663013327772,0.9284152,8.676374,4.4410787,3
20663015706730,0.5982057,8.834301,4.412365,3
20663018085793,0.90448695,8.9013,4.6803613,3
20663020464803,0.74177504,8.872586,4.3118663,3
20663022843814,0.20578274,8.997013,3.9720855,3
20663025222824,0.043070808,9.044869,4.503292,3
20663027601835,-0.0047856453,8.834301,4.7042894,3
20663029980845,-0.28235307,8.819944,4.331009,3
20663032359855,-0.7178468,8.930014,4.6899323,3
20663034738814,-0.37328035,8.738588,4.843073,3
20663037117824,-0.5886344,8.738588,4.2592244,3
20663039496835,-1.1150553,8.896515,4.1347976,3
20663041875845,-1.0624132,8.977871,4.536792,3
20663044254855,-0.8805587,8.906086,4.369294,3
20663046633866,-1.1964114,8.958728,4.024728,3
20663049012876,-1.1676974,9.107083,4.4985065,3
20663051391887,-0.3062813,8.810373,4.26401,3
20663053770897,-0.2440679,8.9348,3.8141594,3
20663056149855,-0.21535404,9.025727,3.9481573,3
20663058528866,0.36370903,8.958728,4.1922255,3
20663060907824,0.55513483,8.925228,3.9720855,3
20663063286887,0.34456646,9.020942,4.0677986,3
20663065665897,0.4881358,9.025727,4.4841495,3
20663068044908,0.7848458,9.006584,4.182654,3
20663070423918,0.33499518,9.111869,4.0151563,3
20663072802928,0.12921242,9.19801,4.2161536,3
20663075181887,0.07178468,9.131011,4.1922255,3
20663077560897,-0.13399807,9.164511,4.0295134,3
20663079939908,-0.47856453,9.135797,4.402794,3
20663082318866,-0.33020952,8.848659,4.398008,3
20663084697928,-0.4019942,8.872586,4.3118663,3
20663087076939,-0.52163535,8.867801,4.287938,3
20663089455949,-0.5407779,8.863015,4.4841495,3
20663091834960,-0.55513483,8.6141615,4.139583,3
20663094213918,-0.6843473,8.810373,4.3357944,3
20663096592928,-0.7609176,8.7577305,4.5559344,3
20663098971939,-0.57427746,8.709874,4.4075794,3
20663101350949,-0.47856453,8.709874,4.2687955,3
20663103729960,-0.2440679,8.800801,4.398008,3
20663106108970,0.0047856453,8.743374,4.2831526,3
20663108487980,0.30149564,8.71466,4.15394,3
20663110866991,0.52163535,8.71466,4.2352962,3
20663113246001,0.6939186,8.796016,4.3836513,3
20663115624960,0.971486,8.700303,4.1635113,3
20663118003970,1.0576276,8.815159,4.2257247,3
20663120382980,1.0576276,8.843872,4.2352962,3
20663122761991,0.9762716,8.891729,4.139583,3
20663125141001,0.89013004,8.891729,4.034299,3
20663127520012,0.70348984,8.987442,4.130012,3
20663129899022,0.49292147,8.958728,4.058227,3
20663132278033,0.3924229,8.977871,4.0438704,3
20663134656991,0.33020952,8.944371,4.0007997,3
20663137036001,0.30149564,8.977871,4.024728,3
20663139415012,0.28235307,8.920443,3.952943,3
20663141794022,0.29671,8.987442,3.9625144,3
20663144173033,0.3062813,9.01137,3.9242291,3
20663146552043,0.28235307,9.107083,3.9625144,3
20663148931053,0.29192436,9.131011,3.900301,3
20663151310064,0.35413775,9.250652,3.8763726,3
20663153689022,0.36370903,9.355937,3.885944,3
20663156068033,0.43070808,9.370294,3.8668015,3
20663158447043,0.5407779,9.38465,3.8380876,3
20663160826053,0.6795616,9.427721,3.9098723,3
20663163205064,0.8327023,9.432507,3.938586,3
20663165584074,0.9810573,9.346365,3.871587,3
20663167963085,1.134198,9.327223,3.9194436,3
20663170342095,1.2442678,9.255438,3.952943,3
20663172721105,1.268196,9.2075815,3.9290147,3
20663175100064,1.2203395,9.12144,3.9290147,3
20663177479074,1.0959128,9.097511,4.0295134,3
20663179858085,0.94755775,9.073584,3.9625144,3
20663182237095,0.7513463,9.025727,3.9290147,3
20663184616105,0.5886344,8.992228,4.0007997,3
20663186995116,0.47377887,8.925228,4.0103707,3
20663189374126,0.41635114,8.815159,3.9864426,3
20663191753137,0.41156548,8.733803,4.0965123,3
20663194132095,0.41635114,8.676374,4.173083,3
20663196511105,0.45942193,8.595019,4.0965123,3
20663198890116,0.526421,8.566305,4.058227,3
20663201269126,0.5694918,8.585447,4.1108694,3
20663203648137,0.64606214,8.623733,4.019942,3
20663206027147,0.7082755,8.671589,3.9481573,3
20663208406158,0.72263247,8.781659,3.9673,3
20663210785168,0.7465607,8.949157,3.9290147,3
20663213164126,0.8805587,9.446864,3.8524444,3
20663215543137,0.7896315,8.925228,3.4217365,3
20663217922147,1.1724831,8.776874,3.900301,3
20663220301158,1.0241281,9.700503,3.9768713,3
20663222680168,1.1964114,9.126225,3.9290147,3
20663225059178,1.4979069,8.886943,3.7615173,3
20663227438189,1.2490535,9.006584,3.37388,3
20663229817199,1.8951155,9.757931,3.8955152,3
20663232196210,1.4404793,8.738588,3.3355947,3
20663234575168,1.6510476,9.317652,3.656233,3
20663236954178,1.119841,9.303294,3.6849468,3
20663239333189,1.2586247,9.355937,4.0151563,3
20663241712199,0.6891329,9.265009,3.7567315,3
20663244091210,0.37328035,9.580862,3.8763726,3
20663246470220,0.4642076,9.676575,3.67059,3
20663248849230,0.20578274,9.3511505,3.4600215,3
20663251228241,0.32542387,9.518648,3.67059,3
20663253607199,0.4881358,9.250652,3.8524444,3
20663255986210,1.0959128,9.346365,4.278367,3
20663258365220,1.3351951,8.906086,4.082155,3
20663260744230,1.6319051,9.346365,4.278367,3
20663263123241,1.6797615,8.906086,3.7998023,3
20663265502251,1.550549,9.135797,3.8285162,3
20663267881262,1.0336994,8.896515,3.5653057,3
20663270260272,0.6364908,9.12144,3.8237305,3
20663272639230,0.2009971,8.82473,3.7328033,3
20663275018241,-0.038285162,9.107083,4.019942,3
20663277397251,-0.32542387,9.0544405,3.9338005,3
20663279776262,-0.18185452,9.202796,4.005585,3
20663282155272,-0.1052842,9.01137,3.8572302,3
20663284534283,0.21535404,9.030513,3.8763726,3
20663286913293,0.46899325,8.786445,3.900301,3
20663289292303,0.8997013,8.60459,4.106084,3
20663291671314,1.1294123,8.504091,4.1443686,3
20663294050272,1.3016955,8.585447,4.1204405,3
20663296429283,1.282553,8.666803,3.9146578,3
20663298808293,1.1581261,8.953942,3.7040894,3
20663301187303,1.0049855,9.217153,3.5126636,3
20663303566314,0.9762716,9.221938,3.5126636,3
20663305945324,1.0576276,9.178867,3.7328033,3
20663308324335,1.1437693,9.159725,3.9098723,3
20663310703293,1.3639089,9.001799,3.9816568,3
20663313082251,1.5122639,8.877372,3.9098723,3
20663315461314,1.5266209,8.882157,3.8572302,3
20663317840324,1.416551,8.867801,3.8524444,3
20663320219335,1.1533405,8.863015,3.9720855,3
20663322598345,0.8805587,8.997013,4.0677986,3
20663324977355,0.49292147,9.178867,4.082155,3
20663327356366,0.20578274,9.236296,3.9816568,3
20663329735324,-0.08135597,9.30808,3.9673,3
20663332114335,-0.18664017,9.346365,4.024728,3
20663334493345,-0.22971097,9.298509,4.0534415,3
20663336872355,0.0,9.135797,3.9960139,3
20663339251366,0.38763726,9.078369,3.9338005,3
20663341630376,0.8327023,8.9826565,3.8811584,3
20663344009387,1.1772687,8.944371,3.9194436,3
20663346388397,1.4835501,8.877372,4.005585,3
20663348767408,1.6079768,8.973084,4.130012,3
20663351146366,1.5601203,9.006584,4.1587257,3
20663353525376,1.4596218,9.020942,4.2017965,3
20663355904387,1.3016955,9.044869,4.2448673,3
20663358283397,1.2107682,8.977871,4.173083,3
20663360662408,1.0767702,8.891729,4.1443686,3
20663363041418,1.0336994,8.829515,4.1491547,3
20663365420428,0.98584294,8.79123,4.173083,3
20663367799387,0.9667004,8.7577305,4.2017965,3
20663370178397,0.89013004,8.752945,4.249653,3
20663372557408,0.7896315,8.786445,4.3262234,3
20663374936418,0.66999036,8.776874,4.3070807,3
20663377315428,0.4642076,8.82473,4.3262234,3
20663379694439,0.22013968,8.829515,4.3070807,3
20663382073449,-0.014356935,8.9013,4.3118663,3
20663384452460,-0.22492532,8.863015,4.3118663,3
20663386831418,-0.36370903,8.839087,4.359723,3
20663389210428,-0.38285163,8.872586,4.4602213,3
20663391589439,-0.24885355,8.886943,4.4745784,3
20663393968449,0.023928227,8.867801,4.402794,3
20663396347460,0.3397808,8.863015,4.2352962,3
20663398726470,0.6029913,8.9013,4.23051,3
20663401105480,0.91405827,8.920443,4.3118663,3
20663403484491,1.134198,8.977871,4.421936,3
20663405863501,1.2969099,8.997013,4.398008,3
20663408242460,1.3256238,9.049655,4.369294,3
20663410621470,1.3351951,9.068798,4.2161536,3
20663413000428,1.1581261,9.078369,4.072584,3
20663415379491,0.94277215,9.073584,3.9816568,3
20663417758501,0.7082755,9.059227,3.9864426,3
20663420137512,0.5407779,9.059227,4.0438704,3
20663422516522,0.3397808,9.078369,4.115655,3
20663424895533,0.19142582,9.102298,4.1587257,3
20663427274491,0.09571291,9.092726,4.0965123,3
20663429653501,0.009571291,9.111869,4.024728,3
20663432032460,-0.11006984,9.068798,3.9720855,3
20663434411522,-0.2632105,9.025727,4.005585,3
20663436790533,-0.38285163,8.944371,4.024728,3
20663439169543,-0.4833502,8.930014,4.1204405,3
20663441548553,-0.55513483,8.882157,4.125226,3
20663443927512,-0.5838487,8.891729,4.101298,3
20663446306470,-0.51206404,8.882157,4.0103707,3
20663448685533,-0.34456646,8.891729,3.991228,3
20663451064543,-0.14356937,8.819944,3.9720855,3
20663453443553,0.12921242,8.781659,4.0103707,3
20663455822564,0.4642076,8.762517,4.082155,3
20663458201574,0.7369894,8.724232,4.0773697,3
20663460580585,0.95712906,8.733803,4.0677986,3
20663462959595,1.038485,8.7673025,4.024728,3
20663465338553,1.0576276,8.800801,3.991228,3
20663467717564,0.9379865,8.848659,4.005585,3
20663470096574,0.79920274,8.872586,4.0869412,3
20663472475585,0.5838487,8.920443,4.197011,3
20663474854595,0.4211368,8.944371,4.2161536,3
20663477233605,0.26799613,9.01137,4.2352962,3
20663479612616,0.14356937,9.073584,4.197011,3
20663481991574,0.0526421,9.08794,4.1778684,3
20663484370585,0.0047856453,9.092726,4.2352962,3
20663486749595,-0.023928227,9.083155,4.3501515,3
20663489128605,-0.038285162,9.068798,4.398008,3
20663491507616,-0.086141616,9.0544405,4.421936,3
20663493886626,-0.15792629,9.083155,4.369294,3
20663496265637,-0.2009971,9.145369,4.278367,3
20663498644647,-0.22013968,9.145369,4.2017965,3
20663501023658,-0.22492532,9.135797,4.197011,3
20663503402616,-0.13878371,9.078369,4.23051,3
20663505781626,0.038285162,9.020942,4.2927237,3
20663508160637,0.2727818,8.930014,4.302295,3
20663510539647,0.47377887,8.853444,4.273581,3
20663512918658,0.70348984,8.796016,4.2017965,3
20663515297668,0.8470592,8.786445,4.15394,3
20663517676678,0.89013004,8.781659,4.115655,3
20663520055637,0.89491564,8.7673025,4.130012,3
20663522434647,0.85184485,8.776874,4.182654,3
20663524813658,0.71306115,8.781659,4.1922255,3
20663527192668,0.55513483,8.829515,4.182654,3
20663529571678,0.41156548,8.85823,4.072584,3
20663531950689,0.25842485,8.867801,3.991228,3
20663534329699,0.13878371,8.843872,4.0103707,3
20663536708658,0.062213387,8.800801,4.115655,3
20663539087668,0.05742774,8.762517,4.2448673,3
20663541466678,0.05742774,8.762517,4.3262234,3
20663543845637,0.11964113,8.796016,4.2927237,3
20663546224699,0.13878371,8.9013,4.182654,3
20663548603710,0.15792629,8.973084,4.072584,3
20663550982720,0.2009971,9.016156,3.9960139,3
20663553361730,0.2440679,9.083155,4.0438704,3
20663555740741,0.30149564,9.111869,4.101298,3
20663558119751,0.3589234,9.102298,4.173083,3
20663560498710,0.44027936,9.078369,4.206582,3
20663562877720,0.5024927,9.068798,4.168297,3
20663565256730,0.5886344,9.08794,4.130012,3
20663567635741,0.6412765,9.107083,4.0677986,3
20663570014751,0.7082755,9.159725,4.0677986,3
20663572393762,0.7513463,9.145369,4.1108694,3
20663574772772,0.70348984,9.111869,4.1874394,3
20663577151730,0.6221339,9.097511,4.211368,3
20663579530741,0.5072784,9.073584,4.1922255,3
20663581909751,0.38285163,9.030513,4.091727,3
20663584288762,0.23449662,9.044869,4.019942,3
20663586667772,0.11006984,9.016156,3.991228,3
20663589046783,0.038285162,8.997013,4.0390844,3
20663591425793,0.0047856453,8.925228,4.1108694,3
20663593804751,0.0047856453,8.915657,4.206582,3
20663596183762,0.05742774,8.886943,4.1874394,3
20663598562772,0.13878371,8.882157,4.1443686,3
20663600941783,0.22492532,8.886943,4.072584,3
20663603320793,0.28235307,8.877372,4.063013,3
20663605699803,0.3493521,8.810373,4.0869412,3
20663608078814,0.4019942,8.776874,4.1635113,3
20663610457824,0.43070808,8.796016,4.2257247,3
20663612836783,0.43070808,8.819944,4.26401,3
20663615215793,0.41156548,8.843872,4.211368,3
20663617594803,0.3924229,8.882157,4.1778684,3
20663619973814,0.39720857,8.906086,4.1108694,3
20663622352824,0.39720857,8.896515,4.1443686,3
20663624731835,0.38285163,8.886943,4.2161536,3
20663627110845,0.35413775,8.886943,4.321438,3
20663629489855,0.32063824,8.863015,4.3836513,3
20663631868814,0.2536392,8.906086,4.3836513,3
20663634247824,0.19621146,8.930014,4.2927237,3
20663636626835,0.11485548,8.987442,4.197011,3
20663639005845,0.062213387,9.030513,4.1443686,3
20663641384855,-0.014356935,9.044869,4.1922255,3
20663643763866,-0.02871387,9.035298,4.278367,3
20663646142876,-0.0047856453,9.01137,4.3405805,3
20663648521835,0.043070808,8.9826565,4.3070807,3
20663650900845,0.14356937,8.992228,4.2257247,3
20663653279855,0.24885355,8.9826565,4.106084,3
20663655658866,0.36370903,8.963513,4.0773697,3
20663658037876,0.46899325,8.925228,4.0965123,3
20663660416887,0.526421,8.915657,4.1635113,3
20663662795897,0.55034924,8.891729,4.2161536,3
20663665174908,0.5599205,8.85823,4.2161536,3
20663667553866,0.5886344,8.848659,4.1491547,3
20663669932876,0.57427746,8.886943,4.063013,3
20663672311887,0.5024927,8.9013,4.005585,3
20663674690897,0.47856453,8.896515,4.0103707,3
20663677069908,0.4019942,8.891729,4.082155,3
20663679448918,0.36370903,8.882157,4.1874394,3
20663681827928,0.32542387,8.863015,4.2161536,3
20663684206939,0.24885355,8.886943,4.1922255,3
20663686585897,0.22971097,8.9108715,4.130012,3
20663688964908,0.17706887,8.963513,4.091727,3
20663691343918,0.15314065,8.977871,4.1204405,3
20663693722928,0.1052842,8.992228,4.168297,3
20663696101939,0.062213387,9.016156,4.220939,3
20663698480949,0.07178468,9.020942,4.2448673,3
20663700859960,0.1052842,9.035298,4.240082,3
20663703238918,0.17706887,9.020942,4.173083,3
20663705617928,0.23928227,9.016156,4.115655,3
20663707996939,0.30149564,9.040084,4.091727,3
20663710375949,0.3924229,9.035298,4.1204405,3
20663712754960,0.4546363,9.025727,4.168297,3
20663715133970,0.4881358,9.001799,4.197011,3
20663717512980,0.5455636,8.977871,4.1778684,3
20663719891991,0.5312066,8.987442,4.1491547,3
20663722270949,0.47377887,9.006584,4.091727,3
20663724649960,0.41156548,8.997013,4.0677986,3
20663727028970,0.3397808,8.997013,4.0677986,3
20663729407980,0.2632105,8.977871,4.1108694,3
20663731786991,0.17706887,8.944371,4.1635113,3
20663734166001,0.11006984,8.9108715,4.1874394,3
20663736545012,0.08135597,8.920443,4.1778684,3
20663738924022,0.08135597,8.949157,4.1491547,3
20663741302980,0.10049855,8.9348,4.101298,3
20663743681939,0.09092726,8.920443,4.115655,3
20663746061001,0.13399807,8.939586,4.1347976,3
20663748440012,0.16749759,8.949157,4.1874394,3
20663750819022,0.2009971,8.949157,4.182654,3
20663753198033,0.27756742,8.958728,4.1778684,3
20663755577043,0.3493521,8.939586,4.1443686,3
20663757956001,0.39720857,8.953942,4.125226,3
20663760335012,0.45942193,8.949157,4.101298,3
20663762713970,0.4833502,8.953942,4.130012,3
20663765092980,0.5312066,8.968299,4.15394,3
20663767472043,0.5599205,8.939586,4.1922255,3
20663769851053,0.5694918,8.9348,4.1922255,3
20663772230064,0.5694918,8.920443,4.173083,3
20663774609074,0.55034924,8.9013,4.1587257,3
20663776988033,0.4833502,8.920443,4.1587257,3
20663779367043,0.4354937,8.930014,4.1635113,3
20663781746053,0.3684947,8.939586,4.139583,3
20663784125064,0.33499518,8.930014,4.139583,3
20663786504074,0.28713873,8.968299,4.168297,3
20663788883085,0.27756742,8.953942,4.1922255,3
20663791262095,0.28713873,8.968299,4.23051,3
20663793641053,0.32542387,8.9348,4.23051,3
20663796020064,0.3924229,8.949157,4.2352962,3
20663798399074,0.4546363,8.939586,4.211368,3
20663800778085,0.52163535,8.977871,4.2352962,3
20663803157095,0.60777694,8.958728,4.2257247,3
20663805536105,0.64606214,8.944371,4.23051,3
20663807915116,0.7178468,8.920443,4.220939,3
20663810294126,0.74177504,8.930014,4.254439,3
20663812673085,0.75613195,8.925228,4.206582,3
20663815052095,0.7369894,8.930014,4.1874394,3
20663817431105,0.72263247,8.925228,4.1922255,3
20663819810116,0.66999036,8.891729,4.182654,3
20663822189126,0.6364908,8.882157,4.1874394,3
20663824568137,0.6029913,8.896515,4.2017965,3
20663826947147,0.5407779,8.915657,4.206582,3
20663829326105,0.45942193,8.925228,4.182654,3
20663831705116,0.38285163,8.9013,4.168297,3
20663834084126,0.30149564,8.891729,4.1635113,3
20663836463137,0.22971097,8.896515,4.1587257,3
20663838842147,0.19142582,8.891729,4.197011,3
20663841221158,0.16749759,8.896515,4.2017965,3
20663843600168,0.16271193,8.886943,4.211368,3
20663845979126,0.20578274,8.891729,4.2257247,3
20663848358137,0.2536392,8.896515,4.211368,3
20663850737147,0.32063824,8.877372,4.206582,3
20663853116158,0.38285163,8.886943,4.220939,3
20663855495168,0.47856453,8.906086,4.211368,3
20663857874178,0.5694918,8.882157,4.206582,3
20663860253189,0.6221339,8.896515,4.211368,3
20663862632199,0.6652047,8.915657,4.1922255,3
20663865011158,0.6795616,8.953942,4.1778684,3
20663867390168,0.6795616,8.944371,4.15394,3
20663869769178,0.66041905,8.953942,4.1587257,3
20663872148189,0.6125626,8.963513,4.139583,3
20663874527199,0.56470615,8.968299,4.1491547,3
20663876906210,0.5168497,8.958728,4.168297,3
20663879285220,0.4642076,8.968299,4.168297,3
20663881664178,0.41635114,8.977871,4.1347976,3
20663884043189,0.37328035,9.01137,4.130012,3
20663886422199,0.32063824,8.997013,4.125226,3
20663888801210,0.29192436,9.016156,4.130012,3
20663891180220,0.29192436,8.963513,4.1347976,3
20663893559230,0.28713873,8.973084,4.1204405,3
20663895938241,0.29192436,8.963513,4.106084,3
20663898317199,0.29192436,8.997013,4.091727,3
20663900696210,0.33499518,8.973084,4.0869412,3
20663903075220,0.3924229,8.987442,4.0869412,3
20663905454230,0.4642076,8.963513,4.0773697,3
20663907833241,0.47856453,8.973084,4.072584,3
20663910212251,0.53599226,8.987442,4.0965123,3
20663912591262,0.59342,8.958728,4.091727,3
20663914970272,0.6125626,8.953942,4.091727,3
20663917349230,0.60777694,8.963513,4.106084,3
20663919728189,0.5838487,8.939586,4.1108694,3
20663922107251,0.526421,8.949157,4.1108694,3
20663924486262,0.49292147,8.953942,4.1443686,3
20663926865220,0.41635114,8.958728,4.1587257,3
20663929244283,0.36370903,8.949157,4.168297,3
20663931623293,0.30149564,8.953942,4.173083,3
20663934002251,0.22971097,8.953942,4.168297,3
20663936381262,0.16749759,8.953942,4.1778684,3
20663938760272,0.14356937,8.958728,4.1635113,3
20663941139283,0.09092726,8.963513,4.206582,3
20663943518293,0.08135597,8.968299,4.2352962,3
20663945897303,0.11964113,8.958728,4.23051,3
20663948276314,0.1052842,8.977871,4.2257247,3
20663950655272,0.15792629,8.958728,4.2257247,3
20663953034283,0.2009971,8.949157,4.2257247,3
20663955413293,0.24885355,8.930014,4.2161536,3
20663957792303,0.3062813,8.939586,4.206582,3
20663960171314,0.3493521,8.925228,4.206582,3
20663962550324,0.41635114,8.925228,4.220939,3
20663964929335,0.4642076,8.886943,4.197011,3
20663967308293,0.4833502,8.882157,4.1874394,3
20663969687303,0.5024927,8.906086,4.1635113,3
20663972066314,0.5072784,8.915657,4.1443686,3
20663974445324,0.47856453,8.9108715,4.15394,3
20663976824335,0.44985065,8.891729,4.139583,3
20663979203345,0.41156548,8.896515,4.15394,3
20663981582355,0.35413775,8.9108715,4.1635113,3
20663983961366,0.3062813,8.920443,4.1491547,3
20663986340324,0.25842485,8.939586,4.1347976,3
20663988719335,0.23928227,8.939586,4.139583,3
20663991098293,0.20578274,8.968299,4.130012,3
20663993477355,0.18664017,8.968299,4.125226,3
20663995856366,0.2009971,8.997013,4.168297,3
20663998235376,0.2009971,9.01137,4.168297,3
20664000614387,0.23449662,9.020942,4.1587257,3
20664002993345,0.30149564,9.016156,4.1347976,3
20664005372355,0.32063824,9.01137,4.130012,3
20664007751366,0.36370903,9.006584,4.125226,3
20664010130376,0.3924229,9.016156,4.115655,3
20664012509387,0.4211368,8.997013,4.125226,3
20664014888397,0.4354937,8.987442,4.125226,3
20664017267408,0.44985065,8.992228,4.115655,3
20664019646366,0.43070808,8.977871,4.115655,3
20664022025324,0.42592242,8.953942,4.091727,3
20664024404387,0.42592242,8.953942,4.115655,3
20664026783397,0.4019942,8.9348,4.1443686,3
20664029162408,0.32542387,8.973084,4.15394,3
20664031541418,0.26799613,8.944371,4.1635113,3
20664033920428,0.23928227,8.925228,4.168297,3
20664036299439,0.2105684,8.9348,4.1635113,3
20664038678397,0.16749759,8.915657,4.1778684,3
20664041057408,0.15314065,8.886943,4.1874394,3
20664043436418,0.16271193,8.867801,4.182654,3
20664045815428,0.19621146,8.863015,4.1778684,3
20664048194439,0.22013968,8.863015,4.197011,3
20664050573449,0.27756742,8.863015,4.197011,3
20664052952408,0.33020952,8.877372,4.2161536,3
20664055331418,0.39720857,8.872586,4.206582,3
20664057710428,0.45942193,8.882157,4.197011,3
20664060089439,0.47856453,8.886943,4.1922255,3
20664062468449,0.55034924,8.891729,4.206582,3
20664064847460,0.5886344,8.9108715,4.2017965,3
20664067226470,0.59342,8.9348,4.1922255,3
20664069605480,0.63170516,8.920443,4.23051,3
20664071984439,0.63170516,8.949157,4.23051,3
20664074363449,0.6221339,8.953942,4.2161536,3
20664076742460,0.57906306,8.9826565,4.1922255,3
20664079121470,0.55034924,8.997013,4.206582,3
20664081500480,0.49292147,8.987442,4.2017965,3
20664083879491,0.46899325,9.016156,4.211368,3
20664086258501,0.45942193,8.997013,4.1874394,3
20664088637460,0.41156548,8.977871,4.1874394,3
20664091016470,0.3684947,8.992228,4.182654,3
20664093395480,0.3493521,8.997013,4.139583,3
20664095774491,0.32063824,8.9826565,4.1204405,3
20664098153501,0.33020952,8.987442,4.1108694,3
20664100532512,0.3589234,8.9826565,4.091727,3
20664102911522,0.37806597,8.973084,4.0869412,3
20664105290480,0.38763726,8.944371,4.072584,3
20664107669491,0.4211368,8.939586,4.048656,3
20664110048501,0.42592242,8.939586,4.024728,3
20664112427512,0.42592242,8.944371,4.024728,3
20664114806522,0.44027936,8.9348,4.024728,3
20664117185533,0.4211368,8.949157,4.0390844,3
20664119564491,0.38763726,8.953942,4.048656,3
20664121943501,0.3589234,8.939586,4.072584,3
20664124322512,0.33020952,8.949157,4.0869412,3
20664126701522,0.32063824,8.963513,4.106084,3
20664129080533,0.29671,8.9826565,4.1108694,3
20664131459543,0.26799613,9.020942,4.1443686,3
20664133838553,0.22492532,9.001799,4.173083,3
20664136217564,0.19142582,8.992228,4.1922255,3
20664138596522,0.148355,8.992228,4.220939,3
20664140975533,0.124426775,8.987442,4.220939,3
20664143354543,0.14356937,9.006584,4.2257247,3
20664145733553,0.14356937,8.968299,4.220939,3
20664148112564,0.12921242,8.973084,4.211368,3
20664150491574,0.12921242,8.977871,4.206582,3
20664152870585,0.15792629,8.963513,4.206582,3
20664155249543,0.18185452,8.944371,4.2161536,3
20664157628553,0.23449662,8.939586,4.197011,3
20664160007564,0.2727818,8.9108715,4.1635113,3
20664162386574,0.31106696,8.9108715,4.1491547,3
20664164765585,0.31585258,8.9108715,4.168297,3
20664167144595,0.33020952,8.915657,4.206582,3
20664169523605,0.3493521,8.891729,4.1874394,3
20664171902512,0.36370903,8.891729,4.182654,3
20664174281574,0.3589234,8.85823,4.1635113,3
20664176660585,0.3684947,8.85823,4.1443686,3
20664179039595,0.36370903,8.872586,4.1635113,3
20664181418605,0.34456646,8.877372,4.173083,3
20664183797616,0.32542387,8.886943,4.1778684,3
20664186176626,0.31585258,8.867801,4.182654,3
20664188555533,0.32063824,8.882157,4.220939,3
20664190934595,0.3397808,8.886943,4.206582,3
20664193313605,0.3589234,8.886943,4.211368,3
20664195692616,0.36370903,8.915657,4.2161536,3
20664198071626,0.3589234,8.920443,4.211368,3
20664200450637,0.35413775,8.896515,4.2161536,3
20664202829595,0.38763726,8.949157,4.2448673,3
20664205208605,0.4211368,8.977871,4.2352962,3
20664207587616,0.44985065,8.992228,4.206582,3
20664209966626,0.46899325,9.016156,4.182654,3
20664212345637,0.5072784,9.006584,4.168297,3
20664214724647,0.52163535,9.025727,4.173083,3
20664217103658,0.55513483,9.020942,4.197011,3
20664219482668,0.56470615,8.997013,4.2257247,3
20664221861626,0.55513483,8.997013,4.240082,3
20664224240637,0.57427746,8.997013,4.2448673,3
20664226619647,0.56470615,8.973084,4.240082,3
20664228998658,0.56470615,8.939586,4.2448673,3
20664231377668,0.5168497,8.920443,4.2352962,3
20664233756678,0.5168497,8.915657,4.2448673,3
20664236135637,0.5168497,8.915657,4.2352962,3
20664238514647,0.46899325,8.891729,4.220939,3
20664240893658,0.4546363,8.882157,4.2257247,3
20664243272668,0.45942193,8.9013,4.220939,3
20664245651678,0.45942193,8.896515,4.197011,3
20664248030689,0.47377887,8.896515,4.1922255,3
20664250409699,0.49292147,8.920443,4.168297,3
20664252788658,0.4833502,8.953942,4.1443686,3
20664255167668,0.5168497,8.939586,4.1635113,3
20664257546678,0.53599226,8.944371,4.1491547,3
20664259925689,0.55513483,8.915657,4.139583,3
20664262304699,0.5838487,8.949157,4.139583,3
20664264683710,0.5982057,8.944371,4.1443686,3
20664267062720,0.66041905,8.944371,4.130012,3
20664269441730,0.6556334,8.9348,4.1204405,3
20664271820689,0.63170516,8.925228,4.1491547,3
20664274199699,0.65084773,8.925228,4.1443686,3
20664276578710,0.63170516,8.925228,4.1443686,3
20664278957720,0.63170516,8.930014,4.125226,3
20664281336730,0.61734825,8.906086,4.130012,3
20664283715741,0.57906306,8.920443,4.139583,3
20664286094699,0.55513483,8.906086,4.1635113,3
20664288473710,0.526421,8.882157,4.1874394,3
20664290852720,0.4881358,8.863015,4.197011,3
20664293231730,0.4546363,8.834301,4.2161536,3
20664295610741,0.4211368,8.853444,4.2257247,3
20664297989751,0.40677986,8.853444,4.2352962,3
20664300368762,0.41156548,8.839087,4.23051,3
20664302747772,0.44985065,8.867801,4.220939,3
20664305126730,0.46899325,8.867801,4.2257247,3
20664307505741,0.4977071,8.896515,4.240082,3
20664309884751,0.526421,8.925228,4.26401,3
20664312263710,0.59342,8.944371,4.2448673,3
20664314642772,0.6412765,8.958728,4.23051,3
20664317021783,0.71306115,8.973084,4.206582,3
20664319400741,0.7609176,8.9826565,4.1922255,3
20664321779751,0.8039884,9.01137,4.1778684,3
20664324158762,0.8279166,9.020942,4.173083,3
20664326537772,0.86141616,9.049655,4.173083,3
20664328916783,0.8709874,9.035298,4.168297,3
20664331295793,0.8470592,9.030513,4.130012,3
20664333674803,0.8279166,9.040084,4.130012,3
20664336053762,0.79441714,9.016156,4.130012,3
20664338432772,0.7513463,9.025727,4.1347976,3
20664340811783,0.6987042,9.001799,4.1108694,3
20664343190793,0.65084773,8.977871,4.115655,3
20664345569803,0.61734825,8.958728,4.1108694,3
20664347948814,0.5838487,8.958728,4.0965123,3
20664350327824,0.56470615,8.9348,4.091727,3
20664352706783,0.55513483,8.915657,4.091727,3
20664355085793,0.5407779,8.906086,4.0965123,3
20664357464803,0.5455636,8.896515,4.091727,3
20664359843814,0.5694918,8.872586,4.091727,3
20664362222824,0.5982057,8.877372,4.0965123,3
20664364601835,0.6412765,8.839087,4.125226,3
20664366980793,0.66041905,8.848659,4.130012,3
20664369359803,0.6939186,8.85823,4.1443686,3
20664371738814,0.7322037,8.877372,4.15394,3
20664374117824,0.76570326,8.863015,4.130012,3
20664376496835,0.7800602,8.877372,4.130012,3
20664378875845,0.7848458,8.886943,4.1491547,3
20664381254855,0.80877405,8.925228,4.139583,3
20664383633814,0.7848458,8.949157,4.1347976,3
20664386012824,0.7752745,8.973084,4.15394,3
20664388391835,0.7609176,8.9826565,4.1443686,3
20664390770845,0.6939186,9.001799,4.1347976,3
20664393149855,0.63170516,8.992228,4.130012,3
20664395528866,0.6029913,8.997013,4.1491547,3
20664397907876,0.55513483,9.001799,4.125226,3
20664400286835,0.5312066,8.992228,4.125226,3
20664402665845,0.5024927,8.9826565,4.1347976,3
20664405044855,0.49292147,8.977871,4.125226,3
20664407423866,0.4833502,8.977871,4.130012,3
20664409802876,0.5024927,9.001799,4.125226,3
20664412181887,0.526421,8.987442,4.1204405,3
20664414560897,0.5886344,8.977871,4.1108694,3
20664416939855,0.61734825,8.973084,4.106084,3
20664419318866,0.66041905,8.949157,4.1108694,3
20664421697876,0.6987042,8.949157,4.082155,3
20664424076887,0.7609176,8.920443,4.063013,3
20664426455897,0.79920274,8.9108715,4.063013,3
20664428834908,0.8135597,8.891729,4.0534415,3
20664431213866,0.81834537,8.906086,4.063013,3
20664433592876,0.81834537,8.930014,4.072584,3
20664435971887,0.8135597,8.939586,4.063013,3
20664438350897,0.80877405,8.930014,4.0677986,3
20664440729908,0.7800602,8.944371,4.091727,3
20664443108918,0.75613195,8.968299,4.0965123,3
20664445487928,0.7322037,8.958728,4.125226,3
20664447866887,0.6843473,8.977871,4.1778684,3
20664450245897,0.66041905,8.973084,4.168297,3
20664452624908,0.6269195,8.9826565,4.1922255,3
20664455003918,0.6029913,9.001799,4.206582,3
20664457382928,0.6029913,8.997013,4.2257247,3
20664459761939,0.57906306,9.001799,4.240082,3
20664462140897,0.5982057,9.016156,4.2592244,3
20664464519908,0.57906306,9.049655,4.240082,3
20664466898918,0.5312066,9.0544405,4.211368,3
20664469277928,0.56470615,9.064013,4.173083,3
20664471656939,0.57427746,9.064013,4.125226,3
20664474035949,0.6029913,9.030513,4.15394,3
20664476414960,0.63170516,9.040084,4.211368,3
20664478793918,0.66041905,9.044869,4.23051,3
20664481172928,0.6795616,9.030513,4.2448673,3
20664483551939,0.6891329,9.006584,4.1778684,3
20664485930949,0.71306115,8.973084,4.106084,3
20664488309960,0.7369894,8.968299,4.0965123,3
20664490688970,0.7513463,8.963513,4.1108694,3
20664493067928,0.7752745,8.930014,4.1108694,3
20664495446939,0.7896315,8.896515,4.125226,3
20664497825949,0.8039884,8.906086,4.106084,3
20664500204960,0.8039884,8.886943,4.0677986,3
20664502583970,0.8039884,8.882157,4.034299,3
20664504962980,0.8135597,8.872586,4.0007997,3
20664507341991,0.7896315,8.882157,3.9960139,3
20664509721001,0.79441714,8.886943,4.0151563,3
20664512099960,0.7752745,8.9013,4.0390844,3
20664514478970,0.7704889,8.920443,4.0390844,3
20664516857980,0.7465607,8.930014,4.0295134,3
20664519236991,0.7369894,8.944371,3.9816568,3
20664521616001,0.72741807,8.968299,3.9481573,3
20664523995012,0.72263247,8.977871,3.9625144,3
20664526374022,0.7322037,9.01137,4.0103707,3
20664528752980,0.7369894,9.001799,4.048656,3
20664531131991,0.7800602,9.020942,4.082155,3
20664533511001,0.7704889,9.049655,4.072584,3
20664535890012,0.7704889,9.030513,4.034299,3
20664538269022,0.7800602,9.035298,4.0151563,3
20664540647980,0.8039884,9.059227,4.024728,3
20664543026991,0.80877405,9.0544405,4.0390844,3
20664545406001,0.79441714,9.0544405,4.072584,3
20664547785012,0.79441714,9.030513,4.082155,3
20664550164022,0.74177504,9.020942,4.058227,3
20664552543033,0.7178468,9.025727,4.058227,3
20664554922043,0.6939186,9.040084,4.0438704,3
20664557301001,0.64606214,9.025727,4.0295134,3
20664559680012,0.61734825,8.973084,4.0390844,3
20664562059022,0.5599205,8.992228,4.0677986,3
20664564438033,0.5455636,8.949157,4.072584,3
20664566817043,0.5312066,8.939586,4.063013,3
20664569196053,0.49292147,8.920443,4.058227,3
20664571575064,0.46899325,8.906086,4.034299,3
20664573954074,0.46899325,8.877372,4.048656,3
20664576333033,0.44506502,8.9013,4.0677986,3
20664578712043,0.47377887,8.886943,4.091727,3
20664581091053,0.5072784,8.877372,4.115655,3
20664583470064,0.51206404,8.867801,4.1347976,3
20664585849074,0.56470615,8.867801,4.1443686,3
20664588228085,0.5838487,8.882157,4.139583,3
20664590607043,0.6221339,8.886943,4.139583,3
20664592986053,0.6412765,8.882157,4.1443686,3
20664595365064,0.6652047,8.9013,4.168297,3
20664597744074,0.67477596,8.920443,4.197011,3
20664600123085,0.6795616,8.930014,4.2161536,3
20664602502095,0.6652047,8.9108715,4.240082,3
20664604881053,0.6556334,8.925228,4.2352962,3
20664607260064,0.6269195,8.944371,4.2592244,3
20664609639074,0.60777694,8.944371,4.302295,3
20664612018085,0.5694918,8.939586,4.302295,3
20664614397095,0.5694918,8.977871,4.3070807,3
20664616776105,0.55034924,8.987442,4.2975097,3
20664619155116,0.53599226,8.977871,4.316652,3
20664621534074,0.53599226,8.973084,4.3357944,3
20664623913085,0.5168497,8.963513,4.3262234,3
20664626292095,0.53599226,8.963513,4.2975097,3
20664628671105,0.52163535,8.977871,4.278367,3
20664631050116,0.5455636,8.953942,4.287938,3
20664633429126,0.55513483,8.9348,4.2975097,3
20664635808085,0.55513483,8.925228,4.302295,3
20664638187095,0.56470615,8.944371,4.2927237,3
20664640566105,0.5886344,8.896515,4.2975097,3
20664642945116,0.57427746,8.867801,4.2975097,3
20664645324126,0.56470615,8.829515,4.3070807,3
20664647703137,0.57906306,8.815159,4.3070807,3
20664650082147,0.47856453,8.810373,4.3070807,3
20664652461105,0.31106696,8.853444,4.398008,3
20664654840116,0.27756742,8.628518,4.354937,3
20664657219126,0.26799613,8.575876,4.2831526,3
20664659598137,0.23928227,8.724232,4.369294,3
20664661977147,0.5455636,8.566305,4.287938,3
20664664356158,0.72263247,8.513663,4.321438,3
20664666735168,1.0001999,8.590233,4.3262234,3
20664669114126,1.119841,8.690732,4.3836513,3
20664671493137,1.3782659,8.63809,4.369294,3
20664673872147,1.3208381,8.796016,4.3836513,3
20664676251158,1.2586247,8.920443,4.2448673,3
20664678630168,1.038485,9.01137,4.1443686,3
20664681009178,0.8135597,9.078369,4.101298,3
20664683388137,0.5599205,9.174082,4.197011,3
20664685767147,0.37328035,9.097511,4.3740797,3
20664688146158,0.23928227,9.01137,4.56072,3
20664690525168,0.15314065,9.006584,4.642076,3
20664692904178,0.18664017,9.016156,4.627719,3
20664695283189,0.22971097,8.963513,4.4889355,3
20664697662147,0.32063824,9.064013,4.4171505,3
20664700041158,0.41156548,9.068798,4.359723,3
20664702420168,0.44506502,9.08794,4.479364,3
20664704799178,0.47856453,9.025727,4.56072,3
20664707178189,0.51206404,9.083155,4.570291,3
20664709557199,0.53599226,9.030513,4.3932223,3
20664711936158,0.53599226,9.030513,4.2352962,3
20664714315168,0.5599205,9.001799,4.082155,3
20664716694178,0.6221339,8.973084,4.058227,3
20664719073189,0.66999036,8.872586,4.115655,3
20664721452199,0.64606214,8.819944,4.1778684,3
20664723831210,0.63170516,8.772088,4.173083,3
20664726210220,0.56470615,8.781659,4.130012,3
20664728589178,0.4642076,8.7673025,4.019942,3
20664730968189,0.3397808,8.781659,3.952943,3
20664733347199,0.19142582,8.810373,3.9338005,3
20664735726210,0.043070808,8.819944,4.0007997,3
20664738105220,-0.09092726,8.800801,4.063013,3
20664740484230,-0.17706887,8.829515,4.106084,3
20664742863189,-0.19142582,8.829515,4.058227,3
20664745242199,-0.18185452,8.930014,3.9960139,3
20664747621210,-0.07178468,8.906086,3.8476589,3
20664750000220,0.047856454,8.953942,3.8141594,3
20664752379230,0.22013968,8.977871,3.900301,3
20664754758241,0.39720857,9.001799,4.0390844,3
20664757137251,0.53599226,8.992228,4.0677986,3
20664759516210,0.6029913,9.025727,4.063013,3
20664761895220,0.64606214,9.035298,4.072584,3
20664764274230,0.5982057,9.030513,4.0534415,3
20664766653241,0.5168497,9.01137,4.0965123,3
20664769032251,0.37328035,9.01137,4.1635113,3
20664771411262,0.25842485,9.001799,4.2687955,3
20664773790220,0.148355,9.001799,4.321438,3
20664776169230,0.08135597,9.016156,4.3262234,3
20664778548241,0.019142581,9.016156,4.273581,3
20664780927251,-0.023928227,9.035298,4.206582,3
20664783306262,-0.043070808,9.01137,4.15394,3
20664785685272,-0.076570325,8.963513,4.168297,3
20664788064283,-0.09092726,8.930014,4.240082,3
20664790443241,-0.11964113,8.915657,4.316652,3
20664792822251,-0.17706887,8.853444,4.354937,3
20664795201262,-0.18664017,8.815159,4.3357944,3
20664797580272,-0.16749759,8.834301,4.2831526,3
20664799959283,-0.07178468,8.839087,4.220939,3
20664802338293,0.033499517,8.853444,4.168297,3
20664804717251,0.17706887,8.848659,4.197011,3
20664807096262,0.3684947,8.85823,4.211368,3
20664809475272,0.5312066,8.829515,4.2161536,3
20664811854283,0.6269195,8.810373,4.2017965,3
20664814233293,0.7322037,8.79123,4.1922255,3
20664816612303,0.79441714,8.796016,4.1778684,3
20664818991314,0.79920274,8.79123,4.168297,3
20664821370272,0.75613195,8.786445,4.1922255,3
20664823749283,0.66999036,8.834301,4.240082,3
20664826128293,0.5455636,8.877372,4.2927237,3
20664828507303,0.44506502,8.939586,4.2975097,3
20664830886314,0.35413775,8.9826565,4.254439,3
20664833265272,0.33020952,9.020942,4.182654,3
20664835644283,0.24885355,9.030513,4.1204405,3
20664838023293,0.19142582,9.044869,4.125226,3
20664840402303,0.18185452,9.059227,4.1347976,3
20664842781314,0.17706887,9.044869,4.206582,3
20664845160324,0.18185452,9.020942,4.2687955,3
20664847539335,0.17228323,9.030513,4.254439,3
20664849918293,0.19621146,9.068798,4.220939,3
20664852297303,0.24885355,9.059227,4.168297,3
20664854676314,0.27756742,9.0544405,4.130012,3
20664857055324,0.33499518,9.035298,4.115655,3
20664859434335,0.39720857,9.016156,4.1491547,3
20664861813345,0.49292147,8.992228,4.1922255,3
20664864192303,0.5838487,8.939586,4.197011,3
20664866571314,0.6029913,8.891729,4.1874394,3
20664868950324,0.6556334,8.848659,4.1443686,3
20664871329335,0.6412765,8.834301,4.115655,3
20664873708345,0.5982057,8.829515,4.0965123,3
20664876087355,0.47856453,8.843872,4.1108694,3
20664878466366,0.3924229,8.863015,4.1204405,3
20664880845324,0.28713873,8.85823,4.130012,3
20664883224335,0.17228323,8.863015,4.125226,3
20664885603345,0.062213387,8.863015,4.139583,3
20664887982355,0.0047856453,8.863015,4.1347976,3
20664890361366,-0.047856454,8.877372,4.1778684,3
20664892740324,-0.086141616,8.863015,4.211368,3
20664895119335,-0.076570325,8.85823,4.240082,3
20664897498345,-0.043070808,8.882157,4.26401,3
20664899877355,0.009571291,8.915657,4.2831526,3
20664902256366,0.043070808,8.920443,4.249653,3
20664904635376,0.09571291,8.915657,4.211368,3
20664907014387,0.15314065,8.958728,4.2161536,3
20664909393345,0.2009971,8.958728,4.211368,3
20664911772355,0.2440679,8.977871,4.249653,3
20664914151366,0.32063824,8.987442,4.2592244,3
20664916530376,0.38285163,8.973084,4.249653,3
20664918909387,0.44027936,8.939586,4.2352962,3
20664921288397,0.47856453,8.953942,4.2257247,3
20664923667355,0.5312066,8.953942,4.220939,3
20664926046366,0.5599205,8.939586,4.2017965,3
20664928425376,0.5599205,8.915657,4.2161536,3
20664930804387,0.5455636,8.9108715,4.206582,3
20664933183397,0.56470615,8.9108715,4.23051,3
20664935562408,0.56470615,8.915657,4.2161536,3
20664937941418,0.5407779,8.886943,4.1874394,3
20664940320376,0.5407779,8.891729,4.15394,3
20664942699387,0.5599205,8.920443,4.139583,3
20664945078397,0.59342,8.896515,4.130012,3
20664947457408,0.63170516,8.925228,4.1491547,3
20664949836418,0.6843473,8.915657,4.1347976,3
20664952215428,0.74177504,8.930014,4.1204405,3
20664954594387,0.7704889,8.930014,4.115655,3
20664956973397,0.7704889,8.944371,4.0869412,3
20664959352408,0.80877405,8.968299,4.0965123,3
20664961731418,0.83748794,8.977871,4.101298,3
20664964110428,0.81834537,8.9826565,4.0965123,3
20664966489439,0.7848458,8.9826565,4.1108694,3
20664968868397,0.76570326,9.006584,4.130012,3
20664971247408,0.7369894,8.987442,4.139583,3
20664973626418,0.6843473,8.953942,4.1491547,3
20664976005428,0.6364908,8.953942,4.211368,3
20664978384439,0.6221339,8.963513,4.240082,3
20664980763397,0.5838487,8.973084,4.220939,3
20664983142408,0.5694918,8.939586,4.206582,3
20664985521418,0.5312066,8.949157,4.197011,3
20664987900428,0.5312066,8.925228,4.1922255,3
20664990279439,0.53599226,8.930014,4.220939,3
20664992658449,0.5312066,8.906086,4.254439,3
20664995037460,0.5694918,8.867801,4.2687955,3
20664997416418,0.60777694,8.882157,4.254439,3
20664999795428,0.6364908,8.872586,4.240082,3
20665002174439,0.67477596,8.872586,4.220939,3
20665004553449,0.76570326,8.843872,4.220939,3
20665006932460,0.81834537,8.863015,4.23051,3
20665009311470,0.85184485,8.843872,4.23051,3
20665011690480,0.85184485,8.843872,4.240082,3
20665014069439,0.86141616,8.839087,4.2352962,3
20665016448449,0.8853444,8.853444,4.2257247,3
20665018827460,0.8566305,8.834301,4.220939,3
20665021206470,0.8135597,8.82473,4.2161536,3
20665023585480,0.76570326,8.843872,4.220939,3
20665025964491,0.72741807,8.872586,4.2448673,3
20665028343449,0.6939186,8.85823,4.2257247,3
20665030722460,0.63170516,8.867801,4.220939,3
20665033101470,0.6364908,8.891729,4.2017965,3
20665035480480,0.6221339,8.9108715,4.1922255,3
20665037859491,0.64606214,8.925228,4.182654,3
20665040238501,0.66999036,8.920443,4.173083,3
20665042617460,0.6843473,8.930014,4.1635113,3
20665044996470,0.6891329,8.9348,4.1491547,3
20665047375480,0.6795616,8.973084,4.1443686,3
20665049754491,0.6987042,8.977871,4.101298,3
20665052133501,0.71306115,8.992228,4.082155,3
20665054512512,0.72741807,9.006584,4.063013,3
20665056891470,0.72263247,8.9826565,4.082155,3
20665059270480,0.75613195,9.001799,4.106084,3
20665061649491,0.7752745,9.006584,4.106084,3
20665064028501,0.7896315,9.020942,4.101298,3
20665066407512,0.8135597,9.016156,4.0438704,3
20665068786522,0.8327023,9.020942,4.0151563,3
20665071165480,0.85184485,9.035298,4.0151563,3
20665073544491,0.8422736,9.0544405,4.0438704,3
20665075923501,0.8470592,9.059227,4.0677986,3
20665078302512,0.79920274,9.078369,4.0869412,3
20665080681522,0.7513463,9.111869,4.0677986,3
20665083060480,0.6795616,9.116654,4.0534415,3
20665085439543,0.61734825,9.140582,4.0438704,3
20665087818501,0.5455636,9.135797,4.048656,3
20665090197512,0.4833502,9.116654,4.082155,3
20665092576522,0.44985065,9.097511,4.115655,3
20665094955533,0.38763726,9.08794,4.1204405,3
20665097334543,0.35413775,9.078369,4.125226,3
20665099713501,0.31106696,9.064013,4.139583,3
20665102092512,0.29671,9.035298,4.139583,3
20665104471522,0.27756742,9.001799,4.1491547,3
20665106850533,0.27756742,8.977871,4.139583,3
20665109229543,0.26799613,8.930014,4.1347976,3
20665111608553,0.30149564,8.9108715,4.1443686,3
20665113987512,0.3062813,8.891729,4.1443686,3
20665116366522,0.38285163,8.867801,4.130012,3
20665118745533,0.4211368,8.829515,4.125226,3
20665121124543,0.44027936,8.810373,4.1108694,3
20665123503553,0.47856453,8.781659,4.106084,3
20665125882564,0.5455636,8.7577305,4.1108694,3
20665128261522,0.5455636,8.748159,4.1204405,3
20665130640533,0.55513483,8.752945,4.1108694,3
20665133019543,0.5168497,8.786445,4.0965123,3
20665135398553,0.47856453,8.7673025,4.1204405,3
20665137777564,0.4354937,8.7577305,4.139583,3
20665140156574,0.41156548,8.752945,4.1587257,3
20665142535533,0.3589234,8.762517,4.182654,3
20665144914543,0.31585258,8.786445,4.2161536,3
20665147293553,0.2536392,8.805588,4.2161536,3
20665149672564,0.23449662,8.85823,4.211368,3
20665152051522,0.22492532,8.896515,4.2161536,3
20665154430585,0.23449662,8.939586,4.240082,3
20665156809595,0.26799613,8.968299,4.26401,3
20665159188553,0.31106696,8.963513,4.26401,3
20665161567564,0.35413775,8.973084,4.2687955,3
20665163946574,0.38763726,8.997013,4.2831526,3
20665166325585,0.45942193,9.001799,4.278367,3
20665168704595,0.526421,9.040084,4.278367,3
20665171083605,0.59342,9.064013,4.278367,3
20665173462564,0.6269195,9.059227,4.26401,3
20665175841574,0.6652047,9.073584,4.2592244,3
20665178220585,0.71306115,9.097511,4.2831526,3
20665180599595,0.74177504,9.102298,4.254439,3
20665182978605,0.76570326,9.092726,4.249653,3
20665185357564,0.7609176,9.068798,4.240082,3
20665187736574,0.74177504,9.001799,4.23051,3
20665190115585,0.7082755,8.997013,4.3118663,3
20665192494595,0.6939186,8.963513,4.354937,3
20665194873605,0.63170516,8.958728,4.354937,3
20665197252616,0.5982057,8.939586,4.249653,3
20665199631626,0.5455636,8.939586,4.168297,3
20665202010585,0.526421,8.896515,4.1491547,3
20665204389595,0.49292147,8.843872,4.197011,3
20665206768605,0.45942193,8.805588,4.273581,3
20665209147616,0.45942193,8.743374,4.273581,3
20665211526626,0.44985065,8.738588,4.254439,3
20665213905637,0.4354937,8.71466,4.2017965,3
20665216284543,0.46899325,8.709874,4.1874394,3
20665218663605,0.51206404,8.647661,4.15394,3
20665221042616,0.55513483,8.652447,4.1635113,3
20665223421626,0.57427746,8.642876,4.173083,3
20665225800637,0.57906306,8.647661,4.2161536,3
20665228179595,0.6412765,8.676374,4.2257247,3
20665230558605,0.6364908,8.685946,4.206582,3
20665232937616,0.6364908,8.724232,4.173083,3
20665235316626,0.63170516,8.762517,4.1443686,3
20665237695637,0.6652047,8.800801,4.1635113,3
20665240074647,0.6221339,8.810373,4.2017965,3
20665242453605,0.5982057,8.872586,4.26401,3
20665244832616,0.5312066,8.906086,4.26401,3
20665247211626,0.4833502,8.977871,4.2927237,3
20665249590637,0.4546363,9.030513,4.278367,3
20665251969647,0.4211368,9.073584,4.287938,3
20665254348658,0.37328035,9.116654,4.2927237,3
20665256727616,0.34456646,9.135797,4.2927237,3
20665259106626,0.32542387,9.145369,4.3262234,3
20665261485637,0.30149564,9.131011,4.3645086,3
20665263864647,0.3062813,9.140582,4.3645086,3
20665266243658,0.33499518,9.135797,4.3118663,3
20665268622668,0.37328035,9.111869,4.2927237,3
20665271001678,0.38763726,9.102298,4.2592244,3
20665273380637,0.44985065,9.049655,4.2592244,3
20665275759647,0.4881358,9.025727,4.26401,3
20665278138658,0.5168497,9.006584,4.2448673,3
20665280517668,0.57427746,8.949157,4.2352962,3
20665282896678,0.59342,8.915657,4.206582,3
20665285275637,0.60777694,8.891729,4.168297,3
20665287654647,0.6364908,8.853444,4.1108694,3
20665290033658,0.6269195,8.839087,4.091727,3
20665292412668,0.6029913,8.829515,4.063013,3
20665294791678,0.57427746,8.796016,4.063013,3
20665297170689,0.55513483,8.776874,4.0677986,3
20665299549647,0.53599226,8.748159,4.0295134,3
20665301928658,0.5168497,8.786445,4.0103707,3
20665304307668,0.47377887,8.786445,3.9960139,3
20665306686678,0.44985065,8.796016,3.9816568,3
20665309065689,0.4354937,8.819944,4.005585,3
20665311444699,0.44506502,8.839087,4.019942,3
20665313823658,0.47377887,8.834301,4.0390844,3
20665316202668,0.4977071,8.843872,4.063013,3
20665318581678,0.53599226,8.877372,4.058227,3
20665320960689,0.5982057,8.891729,4.0677986,3
20665323339699,0.64606214,8.915657,4.0677986,3
20665325718710,0.66999036,8.925228,4.0438704,3
20665328097668,0.70348984,8.949157,4.0677986,3
20665330476678,0.74177504,8.958728,4.0677986,3
20665332855689,0.7322037,8.977871,4.0534415,3
20665335234699,0.7513463,8.949157,4.024728,3
20665337613710,0.8135597,8.949157,3.9768713,3
20665339992668,0.81834537,9.178867,4.125226,3
20665342371678,0.7513463,9.097511,4.106084,3
20665344750689,0.6364908,9.006584,3.9050865,3
20665347129699,0.5072784,9.245867,3.9577286,3
20665349508710,0.37328035,9.169296,3.8907297,3
20665351887720,-0.019142581,9.116654,4.0295134,3
20665354266730,0.05742774,9.020942,4.1347976,3
20665356645689,-0.16749759,9.068798,4.3788652,3
20665359024699,-0.24885355,8.829515,4.369294,3
20665361403710,-0.2440679,8.7673025,4.4602213,3
20665363782720,0.033499517,8.752945,4.45065,3
20665366161678,0.16271193,8.700303,4.412365,3
20665368540741,0.47856453,8.551949,4.388437,3
20665370919699,0.9284152,8.595019,4.4841495,3
20665373298710,1.2729816,8.642876,4.5128636,3
20665375677720,1.5457634,8.571091,4.4075794,3
20665378056730,1.7946169,8.63809,4.2257247,3
20665380435741,2.0147567,8.772088,4.0677986,3
20665382814751,2.0291135,8.79123,3.952943,3
20665385193710,1.9142581,8.848659,4.0151563,3
20665387572720,1.7419748,8.872586,4.1108694,3
20665389951730,1.4691931,8.925228,4.2257247,3
20665392330741,1.1102697,8.9348,4.2687955,3
20665394709751,0.7369894,9.049655,4.2592244,3
20665397088710,0.3397808,9.15494,4.206582,3
20665399467720,0.06699903,9.2075815,4.1874394,3
20665401846730,-0.15792629,9.241081,4.3070807,3
20665404225741,-0.23928227,9.255438,4.4458647,3
20665406604751,-0.28713873,9.260223,4.4745784,3
20665408983762,-0.014356935,9.226724,4.3645086,3
20665411362772,0.29671,9.245867,4.254439,3
20665413741730,0.66999036,9.169296,4.101298,3
20665416120741,1.052842,9.135797,4.024728,3
20665418499751,1.5122639,9.169296,4.0103707,3
20665420878762,1.8233309,9.135797,3.938586,3
20665423257772,2.0147567,9.12144,3.900301,3
20665425636783,2.1966112,9.12144,3.8476589,3
20665428015741,2.1918256,9.159725,3.804588,3
20665430394751,2.009971,9.140582,3.7088752,3
20665432773762,1.7898313,9.102298,3.6801612,3
20665435152772,1.5314065,9.097511,3.7328033,3
20665437531783,1.1629118,9.020942,3.804588,3
20665439910741,0.7369894,8.930014,3.900301,3
20665442289751,0.44027936,8.877372,4.024728,3
20665444668762,0.20578274,8.867801,4.130012,3
20665447047772,-0.009571291,8.867801,4.1108694,3
20665449426783,-0.16271193,8.810373,4.0965123,3
20665451805793,-0.086141616,8.7673025,4.1204405,3
20665454184751,-0.023928227,8.839087,4.130012,3
20665456563762,0.148355,8.85823,4.1108694,3
20665458942720,0.38285163,8.848659,4.072584,3
20665461321783,0.57427746,8.9013,4.0007997,3
20665463700793,0.7178468,8.958728,3.8620157,3
20665466079803,0.83748794,8.949157,3.7854455,3
20665468458762,0.86141616,8.949157,3.7615173,3
20665470837772,0.79441714,9.01137,3.7950168,3
20665473216783,0.6795616,9.006584,3.871587,3
20665475595793,0.52163535,8.958728,3.9768713,3
20665477974803,0.38763726,8.906086,4.0103707,3
20665480353814,0.28713873,8.9108715,4.0534415,3
20665482732772,0.27756742,8.848659,4.115655,3
20665485111783,0.25842485,8.7673025,4.1778684,3
20665487490793,0.32542387,8.786445,4.240082,3
20665489869803,0.49292147,8.810373,4.2687955,3
20665492248814,0.64606214,8.863015,4.240082,3
20665494627772,0.7752745,8.920443,4.091727,3
20665497006783,0.91884387,9.006584,3.9338005,3
20665499385793,1.0289137,9.068798,3.804588,3
20665501764803,1.0863415,9.097511,3.7567315,3
20665504143814,1.0671989,9.092726,3.7710886,3
20665506522824,1.0432707,9.073584,3.8620157,3
20665508901783,0.9523434,8.997013,3.9338005,3
20665511280793,0.8662018,8.925228,4.034299,3
20665513659803,0.7704889,8.877372,4.091727,3
20665516038814,0.7178468,8.863015,4.0869412,3
20665518417824,0.66041905,8.85823,4.082155,3
20665520796835,0.61734825,8.863015,4.082155,3
20665523175793,0.6412765,8.863015,4.125226,3
20665525554803,0.6843473,8.877372,4.1778684,3
20665527933814,0.72741807,8.9013,4.23051,3
20665530312824,0.72741807,8.906086,4.2352962,3
20665532691835,0.7609176,8.906086,4.182654,3
20665535070845,0.8327023,8.925228,4.091727,3
20665537449803,0.86141616,8.973084,4.0438704,3
20665539828814,0.86141616,8.973084,4.024728,3
20665542207824,0.8805587,8.968299,4.0677986,3
20665544586835,0.8757731,8.958728,4.125226,3
20665546965845,0.9236295,8.944371,4.139583,3
20665549344803,0.91884387,8.920443,4.1443686,3
20665551723814,0.89491564,8.944371,4.1347976,3
20665554102824,0.8805587,8.958728,4.1204405,3
20665556481835,0.8709874,8.963513,4.1108694,3
20665558860845,0.82313097,8.958728,4.130012,3
20665561239855,0.76570326,8.939586,4.2017965,3
20665563618814,0.72741807,8.939586,4.2257247,3
20665565997824,0.7465607,8.9108715,4.1778684,3
20665568376835,0.74177504,8.872586,4.15394,3
20665570755845,0.7178468,8.939586,4.125226,3
20665573134855,0.75613195,8.977871,4.072584,3
20665575513866,0.7848458,8.987442,4.048656,3
20665577892824,0.8566305,8.953942,4.082155,3
20665580271835,0.9523434,8.958728,4.0965123,3
20665582650845,1.038485,8.963513,4.0534415,3
20665585029855,1.1389836,8.958728,4.082155,3
20665587408866,1.2011969,8.944371,4.0773697,3
20665589787876,1.2873386,8.949157,4.019942,3
20665592166835,1.3639089,8.9348,3.9768713,3
20665594545845,1.3878372,8.9108715,4.0103707,3
20665596924855,1.402194,8.863015,4.091727,3
20665599303866,1.416551,8.815159,4.125226,3
20665601682876,1.3878372,8.82473,4.15394,3
20665604061887,1.3734802,8.839087,4.125226,3
20665606440845,1.3304094,8.819944,4.0773697,3
20665608819855,1.3256238,8.839087,4.0295134,3
20665611198866,1.3208381,8.867801,4.0438704,3
20665613577876,1.3495519,8.872586,4.0965123,3
20665615956887,1.3686945,8.882157,4.15394,3
20665618335897,1.4596218,8.9013,4.115655,3
20665620714855,1.5026926,8.953942,4.0534415,3
20665623093866,1.5840486,8.963513,3.991228,3
20665625472876,1.6606189,8.953942,3.9577286,3
20665627851887,1.7371893,8.973084,3.9720855,3
20665630230897,1.7850457,8.987442,4.0773697,3
20665632609855,1.8137596,8.977871,4.1635113,3
20665634988866,1.8185452,8.973084,4.1347976,3
20665637367876,1.847259,8.958728,4.082155,3
20665639746887,1.8424734,8.997013,4.0534415,3
20665642125897,1.8233309,8.968299,4.0534415,3
20665644504908,1.8089739,8.963513,4.048656,3
20665646883866,1.8233309,8.992228,4.139583,3
20665649262876,1.8137596,8.987442,4.1778684,3
20665651641887,1.8089739,8.958728,4.1347976,3
20665654020897,1.8185452,8.963513,4.058227,3
20665656399908,1.8041883,8.9826565,4.0007997,3
20665658778866,1.7467605,8.968299,3.991228,3
20665661157876,1.6654046,8.949157,3.9960139,3
20665663536887,1.6031911,8.925228,4.058227,3
20665665915897,1.5314065,8.915657,4.1108694,3
20665668294908,1.5218352,8.9013,4.115655,3
20665670673918,1.4979069,8.906086,4.0773697,3
20665673052876,1.4979069,8.886943,4.019942,3
20665675431887,1.5074782,8.853444,4.0438704,3
20665677810897,1.5553347,8.834301,4.091727,3
20665680189908,1.6366907,8.829515,4.106084,3
20665682568918,1.7180467,8.834301,4.091727,3
20665684947928,1.8233309,8.819944,4.048656,3
20665687326887,1.8568304,8.810373,4.0103707,3
20665689705897,1.8903298,8.82473,3.9960139,3
20665692084908,1.9094725,8.82473,4.063013,3
20665694463918,1.8855443,8.863015,4.091727,3
20665696842928,1.8185452,8.863015,4.0869412,3
20665699221887,1.727618,8.867801,4.0677986,3
20665701600845,1.6414764,8.9108715,4.048656,3
20665703979908,1.550549,8.9348,4.058227,3
20665706358918,1.4452649,8.915657,4.101298,3
20665708737928,1.3639089,8.915657,4.15394,3
20665711116939,1.2873386,8.9348,4.1874394,3
20665713495897,1.253839,8.973084,4.2017965,3
20665715874908,1.2442678,8.973084,4.211368,3
20665718253918,1.253839,8.949157,4.220939,3
20665720632928,1.282553,8.963513,4.2257247,3
20665723011939,1.3495519,8.953942,4.220939,3
20665725390949,1.4117653,8.920443,4.2257247,3
20665727769908,1.4691931,8.9348,4.240082,3
20665730148918,1.5218352,8.949157,4.273581,3
20665732527928,1.5457634,8.9108715,4.2831526,3
20665734906939,1.579263,8.872586,4.287938,3
20665737285949,1.6127625,8.853444,4.2975097,3
20665739664960,1.579263,8.848659,4.2687955,3
20665742043918,1.5409778,8.829515,4.249653,3
20665744422928,1.4835501,8.834301,4.2352962,3
20665746801939,1.4069797,8.781659,4.254439,3
20665749180949,1.3256238,8.7673025,4.2975097,3
20665751559960,1.2586247,8.772088,4.316652,3
20665753938918,1.1485549,8.781659,4.302295,3
20665756317928,1.0767702,8.762517,4.2687955,3
20665758696939,1.0241281,8.748159,4.23051,3
20665761075949,0.9762716,8.743374,4.240082,3
20665763454960,0.9379865,8.738588,4.2975097,3
20665765833970,0.94755775,8.743374,4.3501515,3
20665768212928,0.9379865,8.752945,4.3501515,3
20665770591939,0.94755775,8.743374,4.3118663,3
20665772970949,1.0097711,8.743374,4.3070807,3
20665775349960,1.0767702,8.738588,4.3118663,3
20665777728970,1.1437693,8.7577305,4.3262234,3
20665780107980,1.2203395,8.762517,4.354937,3
20665782486939,1.268196,8.748159,4.388437,3
20665784865949,1.3160524,8.776874,4.3740797,3
20665787244960,1.3351951,8.800801,4.3932223,3
20665789623970,1.3399807,8.810373,4.388437,3
20665792002980,1.3208381,8.819944,4.3740797,3
20665794381939,1.2921243,8.834301,4.3645086,3
20665796760949,1.2442678,8.82473,4.359723,3
20665799139960,1.1581261,8.819944,4.3740797,3
20665801518970,1.1006985,8.805588,4.4075794,3
20665803897980,1.0432707,8.819944,4.45065,3
20665806276939,0.94277215,8.82473,4.45065,3
20665808655949,0.8997013,8.819944,4.4315076,3
20665811034960,0.85184485,8.819944,4.436293,3
20665813413970,0.8279166,8.805588,4.4315076,3
20665815792980,0.83748794,8.79123,4.4458647,3
20665818171991,0.8422736,8.796016,4.469793,3
20665820550949,0.8805587,8.7577305,4.465007,3
20665822929960,0.9092726,8.71466,4.4458647,3
20665825308970,0.95712906,8.709874,4.4315076,3
20665827687980,0.9954142,8.719446,4.426722,3
20665830066991,1.0576276,8.71466,4.426722,3
20665832446001,1.1006985,8.719446,4.402794,3
20665834824960,1.1389836,8.719446,4.3836513,3
20665837203970,1.1533405,8.738588,4.354937,3
20665839582980,1.1820544,8.772088,4.273581,3
20665841961991,1.1485549,8.776874,4.211368,3
20665844341001,1.1150553,8.819944,4.1443686,3
20665846719960,1.0815558,8.834301,4.125226,3
20665849098970,1.0193424,8.839087,4.125226,3
20665851477980,0.94277215,8.848659,4.1587257,3
20665853856991,0.8805587,8.867801,4.1587257,3
20665856236001,0.81834537,8.906086,4.1443686,3
20665858615012,0.7465607,8.915657,4.125226,3
20665860993970,0.72741807,8.930014,4.101298,3
20665863372980,0.72263247,8.9348,4.0773697,3
20665865751991,0.72741807,8.953942,4.082155,3
20665868131001,0.74177504,8.992228,4.0773697,3
20665870510012,0.79441714,9.006584,4.063013,3
20665872889022,0.8327023,9.035298,4.024728,3
20665875267980,0.8853444,9.049655,3.9673,3
20665877646991,0.9379865,9.030513,3.9146578,3
20665880026001,1.0097711,9.035298,3.8907297,3
20665882405012,1.0336994,9.030513,3.9050865,3
20665884784022,1.0624132,9.001799,3.938586,3
20665887162980,1.0863415,8.968299,3.9625144,3
20665889541991,1.0815558,8.963513,3.9720855,3
20665891921001,1.052842,8.949157,3.9673,3
20665894300012,1.0241281,8.949157,3.9577286,3
20665896679022,0.9667004,8.939586,3.9864426,3
20665899058033,0.9236295,8.9348,4.0438704,3
20665901436991,0.8470592,8.915657,4.0965123,3
20665903816001,0.80877405,8.906086,4.15394,3
20665906195012,0.7800602,8.896515,4.182654,3
20665908574022,0.75613195,8.886943,4.173083,3
20665910953033,0.76570326,8.877372,4.1635113,3
20665913331991,0.7752745,8.863015,4.1778684,3
20665915711001,0.80877405,8.85823,4.220939,3
20665918090012,0.85184485,8.853444,4.23051,3
20665920469022,0.8805587,8.848659,4.240082,3
20665922848033,0.9092726,8.848659,4.2352962,3
20665925227043,0.94277215,8.839087,4.2448673,3
20665927606001,0.94755775,8.843872,4.254439,3
20665929985012,0.9762716,8.848659,4.26401,3
20665932364022,0.9810573,8.848659,4.2592244,3
20665934743033,0.94755775,8.834301,4.2687955,3
20665937122043,0.9092726,8.843872,4.2687955,3
20665939501001,0.8805587,8.848659,4.26401,3
20665941880012,0.79920274,8.82473,4.26401,3
20665944259022,0.72741807,8.853444,4.26401,3
20665946638033,0.6939186,8.848659,4.2448673,3
20665949017043,0.64606214,8.872586,4.240082,3
20665951396053,0.5982057,8.872586,4.254439,3
20665953775012,0.57427746,8.863015,4.2448673,3
20665956154022,0.55513483,8.867801,4.1874394,3
20665958533033,0.59342,8.906086,4.168297,3
20665960912043,0.70348984,8.9013,4.125226,3
20665963291053,0.79920274,8.882157,4.0965123,3
20665965670012,0.9523434,8.896515,4.0534415,3
20665968049022,1.0815558,8.906086,4.048656,3
20665970428033,1.2155539,8.872586,4.019942,3
20665972807043,1.2873386,8.872586,4.005585,3
20665975186053,1.3447664,8.85823,4.0007997,3
20665977565064,1.3447664,8.867801,3.9960139,3
20665979944022,1.3016955,8.85823,3.9577286,3
20665982323033,1.2442678,8.896515,3.9433718,3
20665984702043,1.119841,8.9108715,3.9481573,3
20665987081053,1.0001999,8.925228,3.9577286,3
20665989460064,0.8805587,8.930014,3.9768713,3
20665991839074,0.7848458,8.920443,3.9960139,3
20665994218033,0.6891329,8.9348,4.0151563,3
20665996597043,0.5982057,8.958728,4.0295134,3
20665998976053,0.5407779,8.987442,4.034299,3
20666001355064,0.5599205,8.973084,4.0534415,3
20666003734074,0.57427746,8.958728,4.072584,3
20666006113033,0.6221339,8.949157,4.101298,3
20666008492043,0.7082755,8.973084,4.1635113,3
20666010871053,0.81834537,8.968299,4.15394,3
20666013250064,0.9379865,8.977871,4.1347976,3
20666015629074,1.0671989,8.958728,4.101298,3
20666018008085,1.1916257,8.973084,4.125226,3
20666020387043,1.3495519,8.958728,4.125226,3
20666022766053,1.4787644,8.968299,4.15394,3
20666025145064,1.5553347,8.953942,4.1587257,3
20666027524074,1.6079768,8.977871,4.15394,3
20666029903085,1.6462619,8.9826565,4.1491547,3
20666032282043,1.564906,8.9826565,4.1204405,3
20666034661053,1.3878372,9.006584,4.1491547,3
20666037040064,1.2634103,8.930014,4.1443686,3
20666039419074,1.1006985,8.863015,4.1347976,3
20666041798085,0.94277215,8.85823,4.1778684,3
20666044177095,1.0289137,8.805588,4.168297,3
20666046556053,1.0576276,8.772088,4.197011,3
20666048935064,1.2299109,8.772088,4.197011,3
20666051314074,1.3208381,8.7673025,4.2352962,3
20666053693085,1.4931214,8.748159,4.1587257,3
20666056072095,1.5409778,8.815159,4.101298,3
20666058451053,1.5936198,8.853444,3.9720855,3
20666060830064,1.5122639,8.819944,3.8620157,3
20666063209074,1.3686945,8.752945,3.7806597,3
20666065588085,1.2107682,8.7673025,3.7471602,3
20666067967095,1.0624132,8.796016,3.6658044,3
20666070346105,1.0241281,8.609376,3.278167,3
20666072725064,0.7800602,8.786445,3.9625144,3
20666075104074,1.0480564,8.403593,4.206582,3
20666077483085,0.90448695,8.681161,3.938586,3
20666079862095,0.971486,8.9348,3.2159536,3
20666082241105,1.3064811,8.815159,2.8522446,3
20666084620064,1.2634103,8.719446,3.2590244,3
20666086999074,1.3256238,8.662018,3.8093736,3
20666089378085,1.4356936,8.729017,4.1587257,3
20666091757095,1.7036897,8.7577305,3.3786657,3
20666094136105,1.402194,9.221938,2.3784657,3
20666096515116,1.4691931,9.298509,1.9381863,3
20666098894074,1.4404793,9.178867,2.8426733,3
20666101273085,1.4739788,9.08794,3.804588,3
20666103652095,1.3782659,9.509077,3.8763726,3
20666106031105,1.5074782,10.078569,3.1776686,3
20666108410116,1.6941184,10.332209,2.5746772,3
20666110789074,1.6031911,10.480563,3.225525,3
20666113168085,1.7084754,10.289138,4.85743,3
20666115547095,1.7994026,10.12164,6.250053,3
20666117926105,1.861616,10.035499,6.0634127,3
20666120305116,1.8520447,9.992428,4.613362,3
20666122684074,2.0147567,9.954143,3.129812,3
20666125063085,2.0817556,9.958928,2.565106,3
20666127442095,1.9716859,9.772287,3.1154552,3
20666129821105,2.0051854,9.355937,4.240082,3
20666132200116,2.0434706,8.992228,5.072784,3
20666134579126,2.0051854,8.9108715,5.0009995,3
20666136958085,2.0434706,8.834301,4.173083,3
20666139337095,2.0865414,8.724232,3.0675986,3
20666141716105,2.062613,8.633304,2.5459633,3
20666144095116,1.9860427,8.5423765,2.6656044,3
20666146474126,1.8281165,8.279166,3.3212378,3
20666148853137,1.564906,8.082955,4.168297,3
20666151232095,1.4931214,7.9680996,4.4602213,3
20666153611105,1.3591232,8.068598,4.273581,3
20666155990116,1.4261223,8.073383,3.397808,3
20666158369126,1.4404793,8.216953,2.684747,3
20666160748137,1.6271194,8.293523,2.3641088,3
20666163127095,1.8041883,8.269595,2.8570302,3
20666165506105,1.9573289,8.2456665,3.6897326,3
20666167885116,2.1248264,8.279166,4.206582,3
20666170264126,2.268396,8.360522,4.220939,3
20666172643137,2.37368,8.504091,3.7328033,3
20666175022095,2.3784657,8.666803,3.1537402,3
20666177401105,2.3784657,8.815159,2.9336007,3
20666179780116,2.2157538,8.9013,3.2590244,3
20666182159126,2.1296122,9.01137,3.8093736,3
20666184538137,1.9046868,9.19801,4.3118663,3
20666186917095,1.7850457,9.370294,4.2687955,3
20666189296105,1.6079768,9.619147,3.9864426,3
20666191675116,1.4835501,9.82493,3.5174494,3
20666194054126,1.3926228,9.987641,3.2446675,3
20666196433137,1.2107682,10.073783,3.2877383,3
20666198812147,1.1676974,10.112068,3.5605202,3
20666201191158,0.9906286,10.164711,3.9338005,3
20666203570116,0.9236295,10.126426,4.0965123,3
20666205949126,0.9236295,10.116854,4.1204405,3
20666208328137,0.93320084,10.092926,4.0151563,3
20666210707147,1.0624132,9.97807,3.7806597,3
20666213086105,1.1820544,9.853643,3.67059,3
20666215465116,1.3543376,9.74836,3.6610186,3
20666217844126,1.5409778,9.5665045,3.818945,3
20666220223137,1.6941184,9.355937,3.9290147,3
20666222602147,1.8520447,9.174082,3.8093736,3
20666224981158,1.9860427,9.08794,3.5270207,3
20666227360064,1.942972,8.977871,3.0245278,3
20666229739126,1.8233309,8.877372,2.833102,3
20666232118137,1.5936198,8.719446,2.9575288,3
20666234497147,1.2969099,8.518449,3.278167,3
20666236876158,0.8997013,8.441878,3.4648073,3
20666239255116,0.45942193,8.465807,3.3355947,3
20666241634126,0.09092726,8.504091,3.0532417,3
20666244013137,-0.29671,8.5423765,2.8570302,3
20666246392147,-0.6412765,8.566305,2.9718857,3
20666248771158,-0.81834537,8.499306,3.3260236,3
20666251150168,-1.0576276,8.5423765,3.790231,3
20666253529074,-1.1485549,8.52802,3.7758741,3
20666255908137,-1.3208381,8.733803,3.6897326,3
20666258287147,-1.3543376,8.79123,3.5270207,3
20666260666158,-1.430908,8.886943,3.656233,3
20666263045168,-1.4356936,8.930014,3.9720855,3
20666265424074,-1.3351951,8.977871,4.2927237,3
20666267803137,-1.1724831,9.059227,4.4985065,3
20666270182147,-0.98584294,9.178867,4.479364,3
20666272561158,-0.6987042,9.2793665,4.287938,3
20666274940168,-0.32063824,9.379865,4.139583,3
20666277319178,-0.023928227,9.45165,4.101298,3
20666279698137,0.33020952,9.518648,4.15394,3
20666282077147,0.6221339,9.547362,4.26401,3
20666284456158,0.8327023,9.561719,4.316652,3
20666286835168,1.0911272,9.513863,4.3788652,3
20666289214178,1.2394822,9.475577,4.536792,3
20666291593137,1.2586247,9.461221,4.479364,3
20666293972147,1.3447664,9.4229355,4.249653,3
20666296351158,1.3830515,9.480363,4.0534415,3
20666298730168,1.2442678,9.394221,4.115655,3
20666301109178,1.0719845,9.159725,4.0151563,3
20666303488189,0.7513463,9.327223,3.8668015,3
20666305867147,0.26799613,9.317652,3.4695928,3
20666308246158,-0.13878371,9.068798,3.048456,3
20666310625168,-0.42592242,8.9108715,2.914458,3
20666313004178,-0.82313097,8.9348,3.062813,3
20666315383189,-1.1006985,8.805588,3.1872396,3
20666317762147,-1.1389836,8.853444,3.3882368,3
20666320141158,-1.2155539,9.020942,3.6227336,3
20666322520168,-1.1102697,8.973084,3.8763726,3
20666324899178,-0.83748794,8.896515,4.1587257,3
20666327278189,-0.45942193,9.020942,4.3405805,3
20666329657199,-0.09571291,9.135797,4.3405805,3
20666332036158,0.34456646,9.116654,4.316652,3
20666334415168,0.79441714,9.116654,4.3262234,3
20666336794178,1.1485549,9.178867,4.3836513,3
20666339173189,1.4548361,9.135797,4.465007,3
20666341552199,1.7036897,9.135797,4.5224347,3
20666343931158,1.8281165,9.260223,4.4554358,3
20666346310168,1.7994026,9.284152,4.3070807,3
20666348689178,1.7036897,9.193225,4.3262234,3
20666351068189,1.3782659,9.068798,4.508078,3
20666353447199,1.052842,9.083155,4.8239303,3
20666355826158,0.72263247,9.08794,4.8287163,3
20666358205168,0.4881358,9.145369,4.761717,3
20666360584178,0.27756742,9.025727,4.5798626,3
20666362963189,0.23449662,9.131011,4.4315076,3
20666365342199,0.28235307,9.116654,4.5128636,3
20666367721158,0.5024927,8.915657,4.412365,3
20666370100168,0.7465607,8.939586,4.5894337,3
20666372479178,1.1006985,8.949157,4.412365,3
20666374858189,1.3543376,8.882157,4.254439,3
20666377237199,1.5696917,8.79123,4.15394,3
20666379616210,1.8711873,8.585447,4.0103707,3
20666381995168,1.9716859,8.398808,3.900301,3
20666384374178,2.0147567,8.288737,4.1587257,3
20666386753189,2.292324,8.078169,4.331009,3
20666389132199,2.3832514,7.9920278,4.412365,3
20666391511210,2.3688943,7.920243,4.240082,3
20666393890168,2.349752,7.920243,4.125226,3
20666396269178,2.1678972,7.8723865,4.0773697,3
20666398648189,1.9334008,7.948957,4.106084,3
20666401027199,1.5314065,8.025527,4.354937,3
20666403406210,1.2203395,8.111669,4.465007,3
20666405785220,0.8470592,8.169097,4.4602213,3
20666408164178,0.4881358,8.336594,4.402794,3
20666410543189,0.5838487,8.394022,4.182654,3
20666412922199,0.72741807,8.566305,4.2831526,3
20666415301210,1.0001999,8.681161,4.211368,3
20666417680220,1.6462619,8.815159,4.316652,3
20666420059178,2.2157538,8.963513,4.493721,3
20666422438189,3.034099,9.020942,4.426722,3
20666424817199,3.5270207,9.097511,4.570291,3
20666427196210,4.3405805,9.15494,4.479364,3
20666429575220,4.881358,9.221938,4.45065,3
20666431954230,5.3359947,9.284152,4.4745784,3
20666434333189,5.6949177,9.260223,4.3357944,3
20666436712199,5.9820566,9.30808,4.426722,3
20666439091210,6.192625,9.265009,4.302295,3
20666441470220,6.0777693,9.265009,4.3501515,3
20666443849230,6.1495543,9.183653,4.220939,3
20666446228189,5.804988,9.08794,4.2975097,3
20666448607199,5.5657053,8.944371,4.3262234,3
20666450986210,5.0440702,8.829515,4.4458647,3
20666453365220,4.4841495,8.748159,4.508078,3
20666455744230,3.8763726,8.63809,4.4554358,3
20666458123241,3.225525,8.547162,4.4841495,3
20666460502199,2.7038896,8.437093,4.3405805,3
20666462881210,2.105684,8.370093,4.388437,3
20666465260220,1.8329022,8.298309,4.345366,3
20666467639230,1.4931214,8.207381,4.412365,3
20666470018241,1.430908,8.130812,4.3645086,3
20666472397199,1.4117653,8.12124,4.3788652,3
20666474776210,1.6127625,8.145168,4.3645086,3
20666477155220,1.9764715,8.126026,4.2927237,3
20666479534230,2.2636101,8.135597,4.4171505,3
20666481913241,2.8091738,8.159525,4.3788652,3
20666484292199,3.048456,8.207381,4.575077,3
20666486671210,3.4360933,8.193025,4.4171505,3
20666489050220,3.5030923,8.236095,4.4602213,3
20666491429230,3.5892339,8.288737,4.2975097,3
20666493808241,3.3882368,8.331808,4.287938,3
20666496187095,3.0053852,8.374879,4.4171505,3
20666498566210,2.6225336,8.451449,4.388437,3
20666500945220,1.9525433,8.56152,4.56072,3
20666503324230,1.4548361,8.6141615,4.4075794,3
20666505703241,0.8757731,8.7577305,4.546363,3
20666508082251,0.5072784,8.848659,4.4841495,3
20666510461210,0.07178468,8.920443,4.5415773,3
20666512840220,-0.3684947,9.001799,4.618148,3
20666515219230,-0.59342,9.025727,4.6085763,3
20666517598241,-0.8662018,9.040084,4.8239303,3
20666519977251,-1.0719845,9.078369,4.8191447,3
20666522356210,-1.1437693,9.092726,4.9435716,3
20666524735220,-1.1676974,9.059227,4.9770713,3
20666527114230,-0.9954142,8.977871,4.910072,3
20666529493241,-0.81834537,8.920443,5.0249276,3
20666531872251,-0.46899325,8.872586,4.991428,3
20666534251262,-0.043070808,8.781659,4.948357,3
20666536630220,0.25842485,8.681161,4.8047876,3
20666539009230,0.6556334,8.532805,4.642076,3
20666541388241,0.89013004,8.551949,4.699504,3
20666543767251,0.89491564,8.465807,4.723432,3
20666546146262,0.9236295,8.322237,4.699504,3
20666548525220,0.7800602,8.303095,4.814359,3
20666550904230,0.5168497,8.26481,4.752146,3
20666553283241,0.28713873,8.26481,4.790431,3
20666555662251,-0.038285162,8.130812,4.814359,3
20666558041262,-0.21535404,8.16431,4.7952166,3
20666560420220,-0.46899325,8.288737,4.900501,3
20666562799230,-0.7178468,8.226524,5.0679984,3
20666565178241,-0.82313097,8.054241,4.9866424,3
20666567557251,-1.253839,8.303095,4.962714,3
20666569936210,-1.3447664,8.269595,4.8047876,3
20666572315272,-1.5074782,8.169097,4.8239303,3
20666574694230,-1.713261,8.16431,4.9531426,3
20666577073241,-1.8568304,8.240881,5.0009995,3
20666579452251,-1.9094725,8.226524,5.245067,3
20666581831262,-1.6319051,8.154739,5.3503513,3
20666584210272,-1.4979069,8.260024,5.3886366,3
20666586589230,-0.9667004,8.312666,5.2977095,3
20666588968241,-0.3684947,8.355737,5.1876397,3
20666591347251,0.22492532,8.398808,5.096712,3
20666593726262,0.7752745,8.475378,5.087141,3
20666596105272,1.3495519,8.489735,5.1349974,3
20666598484230,1.8520447,8.456235,5.163711,3
20666600863241,2.1343977,8.504091,5.0823555,3
20666603242251,2.3258235,8.489735,4.8191447,3
20666605621262,2.359323,8.566305,4.651647,3
20666608000272,2.0578275,8.489735,4.6707897,3
20666610379230,1.6366907,8.480164,5.029713,3
20666612758189,1.2729816,8.523234,5.369494,3
20666615137251,0.7609176,8.623733,5.584848,3
20666617516262,0.3062813,8.441878,5.345566,3
20666619895272,-0.27756742,8.657232,5.15414,3
20666622274283,-0.6556334,8.843872,5.168497,3
20666624653241,-0.72741807,8.652447,5.005785,3
20666627032251,-1.0001999,8.9013,5.0775695,3
20666629411262,-0.79441714,8.863015,4.9531426,3
20666631790272,-0.11006984,8.743374,4.9340005,3
20666634169283,0.6364908,8.7577305,4.709075,3
20666636548293,1.3686945,9.001799,4.5224347,3
20666638927251,2.2301106,9.030513,4.398008,3
20666641306262,2.9862428,8.781659,4.3836513,3
20666643685272,3.4169507,8.676374,4.3788652,3
20666646064283,3.7136607,8.724232,4.4075794,3
20666648443293,3.8380876,8.805588,4.2831526,3
20666650822251,3.7710886,8.973084,3.9050865,3
20666653201262,3.5174494,9.102298,3.6610186,3
20666655580272,3.3499517,9.08794,3.5653057,3
20666657959283,2.9910283,9.092726,3.6753755,3
20666660338241,2.6081767,9.145369,3.9098723,3
20666662717251,2.254039,9.083155,4.0007997,3
20666665096262,1.9573289,9.2075815,4.048656,3
20666667475272,1.5744773,9.370294,3.9720855,3
20666669854283,1.2203395,9.475577,3.8380876,3
20666672233293,0.8470592,9.499506,3.7663028,3
20666674612251,0.46899325,9.456435,3.818945,3
20666676991262,0.23449662,9.360723,4.0151563,3
20666679370272,0.047856454,9.250652,4.273581,3
20666681749283,0.0,9.107083,4.3405805,3
20666684128293,0.10049855,9.08794,4.2831526,3
20666686507251,0.3924229,9.01137,4.082155,3
20666688886262,0.7465607,8.9013,3.9194436,3
20666691265272,1.0241281,8.834301,3.9242291,3
20666693644283,1.402194,8.815159,4.058227,3
