t_ns,ax,ay,az,accuracy
19277045311951,-1.253839,9.059227,3.8237305,3
19277047690961,-1.253839,9.059227,3.8380876,3
19277050070805,-1.2490535,9.0544405,3.8811584,3
19277052449971,-1.2011969,9.068798,3.9146578,3
19277054829138,-1.1294123,9.073584,3.9146578,3
19277057208201,-1.0815558,9.0544405,3.8572302,3
19277059587419,-1.0001999,9.078369,3.804588,3
19277061966586,-0.90448695,9.064013,3.751946,3
19277064345701,-0.83748794,9.08794,3.7806597,3
19277066724867,-0.79920274,9.092726,3.7950168,3
19277069104034,-0.7609176,9.097511,3.818945,3
19277071483201,-0.7465607,9.083155,3.818945,3
19277073862315,-0.7369894,9.064013,3.8093736,3
19277076241482,-0.7513463,9.092726,3.7758741,3
19277078620648,-0.7800602,9.097511,3.7615173,3
19277080999763,-0.83748794,9.092726,3.7710886,3
19277083378930,-0.8662018,9.073584,3.7806597,3
19277085758096,-0.94277215,9.083155,3.8093736,3
19277088137263,-1.0336994,9.078369,3.8333018,3
19277090516378,-1.1006985,9.049655,3.818945,3
19277092895544,-1.1724831,9.040084,3.7950168,3
19277095274711,-1.2346965,9.0544405,3.7615173,3
19277097653878,-1.268196,9.049655,3.7806597,3
19277100032992,-1.3016955,9.059227,3.7998023,3
19277102412159,-1.3447664,9.068798,3.842873,3
19277104791326,-1.3256238,9.068798,3.8763726,3
19277107170440,-1.2777673,9.0544405,3.8907297,3
19277109549607,-1.2346965,9.083155,3.900301,3
19277111928773,-1.2059826,9.059227,3.871587,3
19277114307940,-1.1485549,9.059227,3.8763726,3
19277116687055,-1.0767702,9.073584,3.885944,3
19277119066221,-1.0097711,9.08794,3.9098723,3
19277121445388,-0.9236295,9.064013,3.9194436,3
19277123824503,-0.8709874,9.0544405,3.9242291,3
19277126203669,-0.80877405,9.064013,3.9194436,3
19277128582836,-0.7322037,9.059227,3.9194436,3
19277130962003,-0.7082755,9.059227,3.9242291,3
19277133341117,-0.6891329,9.044869,3.9050865,3
19277135720232,-0.6843473,9.001799,3.9242291,3
19277138099451,-0.6843473,9.006584,3.9098723,3
19277140478565,-0.6939186,9.01137,3.9050865,3
19277142857732,-0.7178468,9.016156,3.885944,3
19277145236898,-0.7609176,9.025727,3.8668015,3
19277147616065,-0.82313097,9.006584,3.8572302,3
19277149995180,-0.8997013,9.01137,3.8668015,3
19277152374346,-0.9667004,9.006584,3.8668015,3
19277154753513,-1.038485,8.992228,3.8476589,3
19277157132680,-1.1150553,8.997013,3.8668015,3
19277159511794,-1.1629118,9.001799,3.8572302,3
19277161890961,-1.2107682,9.016156,3.8524444,3
19277164270128,-1.2586247,8.997013,3.8572302,3
19277166649242,-1.2777673,9.01137,3.8380876,3
19277169028409,-1.268196,9.001799,3.8285162,3
19277171407576,-1.2442678,9.025727,3.818945,3
19277173786742,-1.2251252,9.035298,3.804588,3
19277176165857,-1.1581261,9.006584,3.7758741,3
19277178545023,-1.0959128,9.01137,3.7806597,3
19277180924190,-1.038485,8.987442,3.7663028,3
19277183303305,-0.9523434,8.997013,3.7710886,3
19277185682471,-0.8853444,9.01137,3.7950168,3
19277188061638,-0.8422736,9.001799,3.7998023,3
19277190440805,-0.7704889,9.006584,3.818945,3
19277192819919,-0.6987042,9.020942,3.818945,3
19277195199086,-0.66999036,9.040084,3.790231,3
19277197578201,-0.66999036,9.0544405,3.804588,3
19277199957367,-0.6891329,9.0544405,3.8141594,3
19277202336534,-0.74177504,9.059227,3.818945,3
19277204715701,-0.7896315,9.064013,3.818945,3
19277207094867,-0.8853444,9.078369,3.8285162,3
19277209473982,-0.9523434,9.068798,3.8285162,3
19277211853148,-1.0432707,9.083155,3.818945,3
19277214232315,-1.1533405,9.083155,3.818945,3
19277216611482,-1.2155539,9.083155,3.8333018,3
19277218990596,-1.268196,9.078369,3.8476589,3
19277221369763,-1.3256238,9.059227,3.8380876,3
19277223748930,-1.3639089,9.073584,3.8333018,3
19277226128044,-1.3686945,9.078369,3.842873,3
19277228507211,-1.3495519,9.0544405,3.8380876,3
19277230886378,-1.2873386,9.0544405,3.842873,3
19277233265544,-1.2394822,9.0544405,3.871587,3
19277235644659,-1.1389836,9.0544405,3.8955152,3
19277238023826,-1.0576276,9.078369,3.900301,3
19277240402992,-0.9906286,9.059227,3.9242291,3
19277242782107,-0.89013004,9.040084,3.9242291,3
19277245161273,-0.7848458,9.08794,3.9146578,3
19277247540440,-0.6939186,9.068798,3.9146578,3
19277249919607,-0.61734825,9.059227,3.9338005,3
19277252298721,-0.5694918,9.068798,3.9242291,3
19277254677888,-0.53599226,9.044869,3.9242291,3
19277257057055,-0.55513483,9.0544405,3.9098723,3
19277259436169,-0.5838487,9.030513,3.900301,3
19277261815336,-0.6221339,9.025727,3.8955152,3
19277264194503,-0.67477596,9.040084,3.8763726,3
19277266573669,-0.76570326,9.020942,3.871587,3
19277268952784,-0.8709874,9.001799,3.8524444,3
19277271331951,-0.9667004,8.992228,3.8572302,3
19277273711117,-1.038485,9.001799,3.8668015,3
19277276090232,-1.119841,9.001799,3.8668015,3
19277278469398,-1.2011969,9.006584,3.8380876,3
19277280848513,-1.253839,9.01137,3.8285162,3
19277283227732,-1.3064811,9.035298,3.8093736,3
19277285606846,-1.3160524,9.0544405,3.8237305,3
19277287986013,-1.3304094,9.059227,3.818945,3
19277290365180,-1.3016955,9.064013,3.8141594,3
19277292744294,-1.2442678,9.059227,3.8093736,3
19277295123461,-1.18684,9.064013,3.8093736,3
19277297502628,-1.1294123,9.068798,3.7854455,3
19277299881794,-1.0241281,9.059227,3.790231,3
19277302260909,-0.9284152,9.059227,3.7854455,3
19277304640076,-0.85184485,9.059227,3.7998023,3
19277307019242,-0.76570326,9.0544405,3.804588,3
19277309398357,-0.6795616,9.044869,3.8333018,3
19277311777523,-0.6221339,9.040084,3.8333018,3
19277314156690,-0.5838487,9.049655,3.8237305,3
19277316535857,-0.5982057,9.035298,3.8093736,3
19277318914971,-0.6029913,9.049655,3.790231,3
19277321294138,-0.6412765,9.044869,3.7950168,3
19277323673305,-0.7082755,9.035298,3.804588,3
19277326052419,-0.8039884,9.020942,3.7998023,3
19277328431586,-0.89013004,9.064013,3.8141594,3
19277330810753,-0.9762716,9.08794,3.8141594,3
19277333189919,-1.0624132,9.083155,3.7950168,3
19277335569034,-1.1485549,9.073584,3.7998023,3
19277337948201,-1.2346965,9.0544405,3.818945,3
19277340327367,-1.2490535,9.059227,3.8285162,3
19277342706534,-1.2729816,9.059227,3.8285162,3
19277345085648,-1.282553,9.0544405,3.8285162,3
19277347464815,-1.2586247,9.035298,3.8237305,3
19277349843982,-1.2107682,9.044869,3.8237305,3
19277352223096,-1.1389836,9.035298,3.8237305,3
19277354602263,-1.052842,9.044869,3.8572302,3
19277356981430,-0.95712906,9.025727,3.885944,3
19277359360544,-0.8422736,9.030513,3.900301,3
19277361739659,-0.71306115,9.025727,3.9194436,3
19277364118878,-0.5694918,9.030513,3.900301,3
19277366498044,-0.4642076,9.020942,3.900301,3
19277368877159,-0.3589234,9.001799,3.9098723,3
19277371256326,-0.29671,9.01137,3.9050865,3
19277373635492,-0.23928227,9.030513,3.9146578,3
19277376014659,-0.2440679,9.035298,3.9290147,3
19277378393773,-0.2632105,9.059227,3.9194436,3
19277380772940,-0.32063824,9.044869,3.9146578,3
19277383152107,-0.42592242,9.064013,3.900301,3
19277385531221,-0.5407779,9.078369,3.8955152,3
19277387910388,-0.6652047,9.049655,3.9050865,3
19277390289555,-0.83748794,9.0544405,3.8907297,3
19277392668721,-0.9810573,9.097511,3.8811584,3
19277395047836,-1.1102697,9.08794,3.871587,3
19277397427003,-1.18684,9.097511,3.8476589,3
19277399806169,-1.2873386,9.097511,3.8333018,3
19277402185284,-1.3447664,9.111869,3.818945,3
19277404564451,-1.3782659,9.092726,3.7998023,3
19277406943617,-1.402194,9.083155,3.7998023,3
19277409322784,-1.3734802,9.097511,3.8237305,3
19277411701898,-1.3016955,9.092726,3.818945,3
19277414081065,-1.2011969,9.08794,3.8093736,3
19277416460232,-1.0911272,9.073584,3.790231,3
19277418839346,-0.9619147,9.073584,3.7806597,3
19277421218513,-0.83748794,9.073584,3.7854455,3
19277423597680,-0.72263247,9.083155,3.790231,3
19277425976794,-0.63170516,9.083155,3.7806597,3
19277428355961,-0.5838487,9.097511,3.7710886,3
19277430735128,-0.5312066,9.107083,3.7806597,3
19277433114294,-0.526421,9.111869,3.7806597,3
19277435493409,-0.51206404,9.12144,3.7758741,3
19277437872576,-0.56470615,9.08794,3.7710886,3
19277440251742,-0.66999036,9.097511,3.7806597,3
19277442630857,-0.7465607,9.097511,3.7950168,3
19277445010023,-0.8805587,9.092726,3.790231,3
19277447389190,-1.0049855,9.083155,3.7998023,3
19277449768357,-1.1102697,9.064013,3.804588,3
19277452147471,-1.1916257,9.073584,3.7663028,3
19277454526638,-1.2634103,9.0544405,3.7471602,3
19277456905805,-1.2873386,9.059227,3.737589,3
19277459284919,-1.3351951,9.035298,3.7471602,3
19277461664086,-1.3160524,9.025727,3.7710886,3
19277464043253,-1.2777673,9.030513,3.804588,3
19277466422419,-1.2203395,9.030513,3.8237305,3
19277468801534,-1.1150553,9.035298,3.8285162,3
19277471180701,-1.0097711,9.040084,3.8237305,3
19277473559867,-0.8853444,9.0544405,3.8237305,3
19277475938930,-0.76570326,9.078369,3.8333018,3
19277478318148,-0.70348984,9.073584,3.842873,3
19277480697315,-0.60777694,9.059227,3.871587,3
19277483076482,-0.5312066,9.049655,3.8955152,3
19277485455596,-0.49292147,9.049655,3.9098723,3
19277487834763,-0.49292147,9.049655,3.8955152,3
19277490213930,-0.4881358,9.049655,3.8620157,3
19277492593044,-0.52163535,9.030513,3.8668015,3
19277494972211,-0.5599205,9.030513,3.885944,3
19277497351378,-0.6412765,9.020942,3.8955152,3
19277499730492,-0.6987042,9.025727,3.8907297,3
19277502109659,-0.7896315,9.035298,3.885944,3
19277504488826,-0.8566305,9.016156,3.885944,3
19277506867992,-0.94277215,9.016156,3.8572302,3
19277509247107,-0.9954142,9.01137,3.8572302,3
19277511626273,-1.052842,9.006584,3.8811584,3
19277514005440,-1.0719845,8.992228,3.8955152,3
19277516384607,-1.0959128,8.997013,3.9290147,3
19277518763721,-1.0911272,8.997013,3.9290147,3
19277521142888,-1.0767702,8.992228,3.9242291,3
19277523522055,-1.0432707,9.01137,3.8955152,3
19277525901169,-1.0145568,9.006584,3.8620157,3
19277528280336,-0.94277215,9.020942,3.8237305,3
19277530659503,-0.90448695,9.016156,3.8237305,3
19277533038617,-0.8470592,9.016156,3.8333018,3
19277535417784,-0.8279166,9.020942,3.818945,3
19277537796951,-0.79441714,9.049655,3.804588,3
19277540176117,-0.79441714,9.059227,3.7950168,3
19277542555232,-0.7896315,9.068798,3.7567315,3
19277544934398,-0.80877405,9.073584,3.7471602,3
19277547313565,-0.85184485,9.059227,3.751946,3
19277549692680,-0.8805587,9.083155,3.7663028,3
19277552071846,-0.94755775,9.078369,3.7710886,3
19277554451013,-0.9906286,9.068798,3.804588,3
19277556830180,-1.0336994,9.092726,3.7950168,3
19277559209294,-1.0719845,9.068798,3.7950168,3
19277561588461,-1.105484,9.078369,3.7854455,3
19277563967628,-1.119841,9.078369,3.7854455,3
19277566346742,-1.134198,9.08794,3.804588,3
19277568725909,-1.1389836,9.107083,3.818945,3
19277571105076,-1.1246266,9.111869,3.8380876,3
19277573484242,-1.119841,9.102298,3.8380876,3
19277575863357,-1.105484,9.097511,3.842873,3
19277578242523,-1.0719845,9.059227,3.8524444,3
19277580621690,-1.0145568,9.064013,3.8811584,3
19277583000805,-0.94755775,9.059227,3.9098723,3
19277585379971,-0.89491564,9.040084,3.9098723,3
19277587759138,-0.82313097,9.049655,3.9242291,3
19277590138253,-0.7704889,9.044869,3.9290147,3
19277592517419,-0.70348984,9.049655,3.938586,3
19277594896586,-0.67477596,9.035298,3.9577286,3
19277597275753,-0.63170516,9.049655,3.9816568,3
19277599654867,-0.5982057,9.030513,3.9720855,3
19277602034034,-0.57906306,9.020942,4.005585,3
19277604413201,-0.57427746,9.016156,4.0007997,3
19277606792315,-0.57906306,9.030513,3.9960139,3
19277609171482,-0.6364908,9.025727,3.9864426,3
19277611550648,-0.6939186,9.016156,3.9625144,3
19277613929815,-0.7322037,9.035298,3.938586,3
19277616308930,-0.8039884,9.0544405,3.9242291,3
19277618688096,-0.8757731,9.0544405,3.9050865,3
19277621067263,-0.91884387,9.064013,3.885944,3
19277623446378,-0.9906286,9.078369,3.8763726,3
19277625825544,-1.0289137,9.08794,3.8572302,3
19277628204711,-1.0624132,9.08794,3.8476589,3
19277630583826,-1.1102697,9.08794,3.8141594,3
19277632962992,-1.1246266,9.078369,3.7950168,3
19277635342159,-1.134198,9.0544405,3.7663028,3
19277637721326,-1.1246266,9.078369,3.7567315,3
19277640100440,-1.0863415,9.083155,3.7471602,3
19277642479607,-1.0624132,9.08794,3.723232,3
19277644858773,-1.0097711,9.102298,3.7280176,3
19277647237940,-0.9284152,9.068798,3.7136607,3
19277649617055,-0.89491564,9.068798,3.6897326,3
19277651996221,-0.81834537,9.049655,3.6993039,3
19277654375388,-0.76570326,9.040084,3.723232,3
19277656754503,-0.6939186,9.035298,3.723232,3
19277659133669,-0.66041905,9.059227,3.7423747,3
19277661512836,-0.6221339,9.073584,3.7328033,3
19277663891951,-0.63170516,9.059227,3.7184465,3
19277666271117,-0.6795616,9.064013,3.7280176,3
19277668650284,-0.7178468,9.068798,3.723232,3
19277671029451,-0.7800602,9.040084,3.751946,3
19277673408565,-0.8662018,9.035298,3.7758741,3
19277675787732,-0.9667004,9.068798,3.7950168,3
19277678166898,-1.0624132,9.083155,3.8141594,3
19277680546013,-1.1485549,9.078369,3.8093736,3
19277682925180,-1.2203395,9.097511,3.8093736,3
19277685304346,-1.2634103,9.107083,3.8141594,3
19277687683461,-1.3399807,9.102298,3.8380876,3
19277690062628,-1.3734802,9.08794,3.871587,3
19277692441794,-1.3734802,9.083155,3.8955152,3
19277694820961,-1.3639089,9.097511,3.9146578,3
19277697200076,-1.3351951,9.08794,3.9242291,3
19277699579242,-1.2777673,9.083155,3.900301,3
19277701958409,-1.1820544,9.059227,3.8811584,3
19277704337523,-1.105484,9.049655,3.9098723,3
19277706716690,-1.0049855,9.049655,3.952943,3
19277709095805,-0.8853444,9.059227,3.9816568,3
19277711474971,-0.7896315,9.049655,3.9577286,3
19277713854138,-0.6795616,9.016156,3.9290147,3
19277716233305,-0.5838487,9.040084,3.9290147,3
19277718612471,-0.4977071,9.049655,3.9242291,3
19277720991586,-0.4211368,9.035298,3.9242291,3
19277723370753,-0.38763726,9.035298,3.9433718,3
19277725749919,-0.3924229,9.025727,3.9816568,3
19277728129034,-0.43070808,9.030513,3.991228,3
19277730508201,-0.47377887,9.040084,3.9673,3
19277732887367,-0.53599226,9.049655,3.9290147,3
19277735266534,-0.60777694,9.049655,3.900301,3
19277737645648,-0.7465607,9.059227,3.8763726,3
19277740024815,-0.85184485,9.064013,3.8763726,3
19277742403982,-0.94277215,9.064013,3.885944,3
19277744783044,-1.0432707,9.030513,3.871587,3
19277747162263,-1.1437693,9.035298,3.8620157,3
19277749541430,-1.1772687,9.064013,3.8333018,3
19277751920544,-1.1964114,9.049655,3.8380876,3
19277754299711,-1.1964114,9.044869,3.8333018,3
19277756678878,-1.1820544,9.035298,3.8237305,3
19277759058044,-1.1629118,9.025727,3.8285162,3
19277761437159,-1.1006985,9.001799,3.8237305,3
19277763816326,-1.0289137,9.006584,3.8093736,3
19277766195492,-0.94277215,9.025727,3.790231,3
19277768574607,-0.8709874,9.020942,3.790231,3
19277770953721,-0.7704889,9.016156,3.7998023,3
19277773332940,-0.70348984,9.030513,3.8237305,3
19277775712003,-0.6556334,9.025727,3.8524444,3
19277778091221,-0.6269195,9.030513,3.8524444,3
19277780470388,-0.6221339,9.030513,3.8380876,3
19277782849555,-0.6269195,9.040084,3.8237305,3
19277785228669,-0.6364908,9.064013,3.818945,3
19277787607836,-0.70348984,9.040084,3.8141594,3
19277789987003,-0.7609176,9.049655,3.8380876,3
19277792366117,-0.81834537,9.040084,3.8668015,3
19277794745284,-0.8853444,9.020942,3.885944,3
19277797124451,-0.9523434,9.020942,3.8763726,3
19277799503565,-1.0193424,9.020942,3.8620157,3
19277801882732,-1.0719845,8.997013,3.8333018,3
19277804261898,-1.0911272,8.992228,3.8285162,3
19277806641065,-1.1150553,9.001799,3.8380876,3
19277809020180,-1.1246266,9.006584,3.8237305,3
19277811399346,-1.1150553,8.997013,3.8093736,3
19277813778513,-1.1102697,9.006584,3.8093736,3
19277816157628,-1.0576276,9.025727,3.8093736,3
19277818536794,-0.98584294,9.049655,3.8237305,3
19277820915961,-0.93320084,9.064013,3.8285162,3
19277823295023,-0.8662018,9.078369,3.8285162,3
19277825674242,-0.8039884,9.078369,3.8333018,3
19277828053409,-0.7178468,9.083155,3.8380876,3
19277830432576,-0.67477596,9.102298,3.8380876,3
19277832811690,-0.6269195,9.097511,3.842873,3
19277835190857,-0.5694918,9.08794,3.8333018,3
19277837570023,-0.55513483,9.092726,3.818945,3
19277839949138,-0.5168497,9.083155,3.8285162,3
19277842328305,-0.5024927,9.111869,3.8620157,3
19277844707471,-0.47856453,9.073584,3.871587,3
19277847086586,-0.47856453,9.064013,3.885944,3
19277849465753,-0.44985065,9.073584,3.900301,3
19277851844919,-0.46899325,9.059227,3.9290147,3
19277854224086,-0.45942193,9.044869,3.9433718,3
19277856603201,-0.44985065,9.025727,3.9625144,3
19277858982367,-0.47377887,9.020942,3.9577286,3
19277861361534,-0.53599226,9.044869,3.9577286,3
19277863740648,-0.59342,9.020942,3.9625144,3
19277866119815,-0.6269195,9.001799,3.952943,3
19277868498982,-0.6795616,8.997013,3.9433718,3
19277870878148,-0.7609176,8.992228,3.9194436,3
19277873257263,-0.83748794,9.049655,3.8907297,3
19277875636430,-0.8997013,9.078369,3.8620157,3
19277878015596,-0.9523434,9.078369,3.8476589,3
19277880394711,-1.0097711,9.08794,3.818945,3
19277882773826,-1.038485,9.126225,3.8093736,3
19277885153044,-1.0719845,9.140582,3.790231,3
19277887532159,-1.0671989,9.159725,3.7567315,3
19277889911326,-1.0815558,9.164511,3.737589,3
19277892290492,-1.0576276,9.164511,3.723232,3
19277894669659,-1.0576276,9.178867,3.7040894,3
19277897048773,-1.038485,9.15494,3.6849468,3
19277899427940,-1.0049855,9.159725,3.67059,3
19277901807107,-0.9667004,9.159725,3.6370904,3
19277904186221,-0.9236295,9.145369,3.6370904,3
19277906565388,-0.8470592,9.116654,3.67059,3
19277908944555,-0.7848458,9.102298,3.7040894,3
19277911323669,-0.72263247,9.111869,3.7184465,3
19277913702836,-0.60777694,9.097511,3.7280176,3
19277916082003,-0.5168497,9.073584,3.7710886,3
19277918461169,-0.4642076,9.040084,3.804588,3
19277920840284,-0.41156548,9.025727,3.8141594,3
19277923219451,-0.39720857,9.025727,3.8333018,3
19277925598617,-0.38285163,9.035298,3.8476589,3
19277927977732,-0.41156548,9.030513,3.8668015,3
19277930356898,-0.4546363,9.040084,3.900301,3
19277932736065,-0.52163535,9.030513,3.9050865,3
19277935115180,-0.6412765,9.030513,3.9146578,3
19277937494346,-0.7369894,9.040084,3.9194436,3
19277939873513,-0.8566305,9.0544405,3.9194436,3
19277942252628,-0.94755775,9.064013,3.900301,3
19277944631794,-1.0193424,9.073584,3.9146578,3
19277947010961,-1.0767702,9.078369,3.9433718,3
19277949390128,-1.1150553,9.073584,3.9290147,3
19277951769242,-1.1246266,9.0544405,3.938586,3
19277954148409,-1.1102697,9.064013,3.9481573,3
19277956527576,-1.0671989,9.0544405,3.9481573,3
19277958906690,-1.0241281,9.073584,3.9481573,3
19277961285857,-0.93320084,9.064013,3.938586,3
19277963665023,-0.8566305,9.049655,3.9290147,3
19277966044138,-0.7800602,9.035298,3.9290147,3
19277968423305,-0.67477596,9.035298,3.900301,3
19277970802419,-0.5886344,9.040084,3.8811584,3
19277973181586,-0.55513483,9.016156,3.8668015,3
19277975560753,-0.51206404,9.025727,3.8476589,3
19277977939919,-0.47856453,9.030513,3.8285162,3
19277980319086,-0.45942193,9.040084,3.8141594,3
19277982698201,-0.49292147,9.040084,3.8141594,3
19277985077367,-0.5599205,9.049655,3.8093736,3
19277987456534,-0.6412765,9.078369,3.7806597,3
19277989835648,-0.72741807,9.064013,3.7710886,3
19277992214815,-0.82313097,9.044869,3.7615173,3
19277994593982,-0.9236295,9.083155,3.7423747,3
19277996973148,-1.0097711,9.068798,3.7471602,3
19277999352263,-1.0863415,9.064013,3.7423747,3
19278001731430,-1.1676974,9.064013,3.7423747,3
19278004110596,-1.1724831,9.068798,3.7328033,3
19278006489711,-1.1437693,9.064013,3.7280176,3
19278008868878,-1.119841,9.040084,3.7328033,3
19278011248044,-1.0289137,9.006584,3.7280176,3
19278013627159,-0.9236295,8.647661,3.6466618,3
19278016006326,-0.7800602,8.413164,3.5030923,3
19278018385492,-0.5599205,8.968299,2.469393,3
19278020764607,-0.2536392,9.82493,0.55513483,3
19278023143773,-0.8709874,9.801002,2.1822543,3
19278025522940,0.16271193,8.523234,5.5274205,3
19278027902107,-0.37806597,8.303095,7.542177,3
19278030281221,-0.39720857,8.82473,6.2261243,3
19278032660388,0.033499517,9.241081,3.493521,3
19278035039555,0.42592242,9.556933,0.82313097,3
19278037418669,-0.26799613,10.01157,0.66041905,3
19278039797836,-0.19142582,9.595219,3.0723844,3
19278042177003,0.14356937,8.79123,5.814559,3
19278044556117,-0.5024927,9.030513,6.9678993,3
19278046935284,-0.60777694,9.260223,5.9916277,3
19278049314451,-0.4019942,9.040084,3.751946,3
19278051693617,-0.7800602,9.188439,1.7419748,3
19278054072732,-1.1102697,9.332008,1.550549,3
19278056451898,-1.0241281,8.843872,3.101098,3
19278058831013,-1.3639089,8.571091,5.1062837,3
19278061210180,-1.8041883,8.772088,6.4127645,3
19278063589346,-1.5984055,8.748159,6.1830535,3
19278065968461,-1.6319051,8.800801,4.685147,3
19278068347628,-1.875973,9.049655,2.9862428,3
19278070726794,-1.6941184,9.226724,2.1631117,3
19278073105961,-1.6223338,9.217153,2.804388,3
19278075485076,-1.7036897,9.178867,4.3932223,3
19278077864242,-1.6223338,9.083155,5.7810597,3
19278080243409,-1.4117653,8.9826565,6.053841,3
19278082622523,-1.2873386,9.064013,4.9340005,3
19278085001690,-1.0336994,9.284152,3.1537402,3
19278087380857,-0.81834537,9.466006,2.105684,3
19278089759971,-0.6412765,9.346365,2.239682,3
19278092139138,-0.52163535,9.150154,3.4456646,3
19278094518305,-0.31106696,8.939586,4.800002,3
19278096897471,-0.22013968,8.867801,5.407779,3
19278099276586,-0.06699903,8.863015,4.847859,3
19278101655753,0.038285162,9.049655,3.7471602,3
19278104034919,0.13399807,9.145369,2.7469604,3
19278106414034,0.12921242,9.169296,2.5507488,3
19278108793201,0.023928227,9.145369,3.306881,3
19278111172367,-0.0526421,9.059227,4.4410787,3
19278113551534,-0.25842485,8.958728,5.2402816,3
19278115930648,-0.37328035,8.896515,5.058427,3
19278118309815,-0.56470615,9.0544405,4.0773697,3
19278120688982,-0.6364908,9.202796,2.861816,3
19278123068096,-0.75613195,9.2793665,2.2348964,3
19278125447263,-0.8997013,9.236296,2.603391,3
19278127826430,-1.0241281,9.15494,3.6131623,3
19278130205544,-1.1294123,9.044869,4.5224347,3
19278132584711,-1.1389836,9.049655,4.7377887,3
19278134963878,-1.1102697,9.083155,4.0869412,3
19278137342992,-1.0097711,9.097511,3.0436704,3
19278139722159,-0.91884387,9.159725,2.4646072,3
19278142101326,-0.8327023,9.064013,2.78046,3
19278144480440,-0.6891329,8.906086,3.842873,3
19278146859607,-0.5886344,8.863015,4.900501,3
19278149238773,-0.4019942,8.939586,5.020142,3
19278151617940,-0.2632105,9.08794,4.2448673,3
19278153997055,-0.02871387,9.164511,3.1680973,3
19278156376221,0.12921242,9.150154,2.5698915,3
19278158755388,0.2105684,9.12144,2.7469604,3
19278161134503,0.19142582,9.049655,3.5413775,3
19278163513669,0.16749759,8.939586,4.359723,3
19278165892836,0.062213387,8.915657,4.7042894,3
19278168271951,-0.10049855,8.9826565,4.4315076,3
19278170651117,-0.2727818,9.035298,3.6897326,3
19278173030284,-0.46899325,9.102298,3.0963125,3
19278175409398,-0.6412765,9.097511,2.9336007,3
19278177788565,-0.8757731,9.078369,3.4121652,3
19278180167732,-1.052842,9.016156,4.0677986,3
19278182546846,-1.2299109,9.001799,4.5224347,3
19278184926013,-1.3112668,9.040084,4.3740797,3
19278187305180,-1.3399807,9.0544405,3.6993039,3
19278189684346,-1.3208381,9.049655,2.952743,3
19278192063461,-1.2299109,9.044869,2.656033,3
19278194442628,-1.1964114,9.01137,3.0675986,3
19278196821794,-1.1006985,8.882157,3.7950168,3
19278199200909,-1.0336994,8.834301,4.4171505,3
19278201580076,-0.8662018,8.886943,4.45065,3
19278203959242,-0.7465607,9.016156,3.9960139,3
19278206338357,-0.5886344,9.059227,3.4025939,3
19278208717523,-0.4642076,9.140582,3.1345978,3
19278211096690,-0.44985065,9.159725,3.345166,3
19278213475857,-0.4642076,9.126225,3.8476589,3
19278215854971,-0.51206404,9.092726,4.3788652,3
19278218235753,-0.5982057,9.040084,4.5798626,3
19278220613305,-0.7178468,8.930014,4.436293,3
19278222992419,-0.8279166,8.973084,4.2352962,3
19278225371586,-0.91884387,9.212367,4.115655,3
19278227750753,-1.0959128,9.489935,4.1635113,3
19278230129867,-1.2059826,9.470792,4.197011,3
19278232509034,-1.2969099,9.250652,4.3070807,3
19278234888201,-1.3399807,9.178867,4.56072,3
19278237267315,-1.4213367,9.159725,4.7712884,3
19278239646482,-1.3639089,9.016156,4.7712884,3
19278242025648,-1.3064811,8.891729,4.613362,3
19278244404763,-1.2490535,8.9348,4.508078,3
19278246783930,-1.2011969,8.85823,4.388437,3
19278249163096,-1.0959128,8.762517,4.173083,3
19278251542211,-1.0145568,8.853444,3.9768713,3
19278253921378,-0.9236295,8.9108715,3.8285162,3
19278256300544,-0.8709874,8.915657,3.842873,3
19278258679711,-0.7800602,8.939586,3.9050865,3
19278261058826,-0.74177504,8.992228,3.9433718,3
19278263437992,-0.71306115,9.040084,3.8524444,3
19278265817159,-0.72263247,9.08794,3.7663028,3
19278268196273,-0.7513463,9.145369,3.7184465,3
19278270575440,-0.74177504,9.183653,3.7567315,3
19278272954607,-0.7465607,9.202796,3.885944,3
19278275333721,-0.75613195,9.226724,3.9625144,3
19278277712888,-0.7609176,9.221938,3.9050865,3
19278280092055,-0.70348984,9.202796,3.7136607,3
19278282471169,-0.61734825,9.183653,3.5126636,3
19278284850336,-0.55034924,9.19801,3.3882368,3
19278287229451,-0.45942193,9.145369,3.397808,3
19278289608669,-0.38763726,9.073584,3.5318062,3
19278291987784,-0.2632105,9.01137,3.6849468,3
19278294366898,-0.20578274,8.987442,3.790231,3
19278296746117,-0.17228323,8.987442,3.8285162,3
19278299125232,-0.148355,8.987442,3.7710886,3
19278301504398,-0.12921242,9.001799,3.7567315,3
19278303883565,-0.11485548,8.977871,3.7950168,3
19278306262680,-0.16749759,9.020942,3.8955152,3
19278308641846,-0.22013968,9.01137,3.9673,3
19278311021013,-0.28713873,9.0544405,4.0103707,3
19278313400128,-0.32063824,9.064013,3.9720855,3
19278315779294,-0.34456646,9.092726,3.8955152,3
19278318158461,-0.37328035,9.126225,3.7854455,3
19278320537576,-0.38285163,9.131011,3.7184465,3
19278322916742,-0.43070808,9.140582,3.6897326,3
19278325295909,-0.44985065,9.12144,3.6849468,3
19278327675076,-0.5168497,9.140582,3.723232,3
19278330054190,-0.5886344,9.111869,3.7663028,3
19278332433357,-0.6029913,9.092726,3.751946,3
19278334812523,-0.6364908,9.078369,3.7184465,3
19278337191638,-0.67477596,9.078369,3.6801612,3
19278339570805,-0.67477596,9.0544405,3.6610186,3
19278341949971,-0.6364908,9.035298,3.6849468,3
19278344329086,-0.6125626,9.073584,3.751946,3
19278346708253,-0.53599226,9.078369,3.7663028,3
19278349087419,-0.47856453,9.040084,3.7758741,3
19278351466534,-0.38763726,9.044869,3.7615173,3
19278353845701,-0.32542387,9.049655,3.7040894,3
19278356224867,-0.2632105,9.035298,3.6514473,3
19278358603982,-0.23928227,9.016156,3.6514473,3
19278360983148,-0.2536392,9.025727,3.6466618,3
19278363362315,-0.31106696,9.044869,3.6514473,3
19278365741430,-0.40677986,9.073584,3.67059,3
19278368120596,-0.5072784,9.073584,3.6658044,3
19278370499763,-0.6221339,9.097511,3.603591,3
19278372878930,-0.75613195,9.08794,3.5365918,3
19278375258044,-0.8805587,9.064013,3.5700915,3
19278377637211,-0.9667004,9.020942,3.656233,3
19278380016326,-1.0480564,8.939586,3.723232,3
19278382395492,-1.0911272,8.925228,3.751946,3
19278384774659,-1.0480564,9.040084,3.603591,3
19278387153826,-1.1629118,9.145369,3.6131623,3
19278389532940,-1.0624132,9.001799,3.6849468,3
19278391912107,-1.0001999,9.044869,3.8811584,3
19278394291273,-0.95712906,9.164511,4.115655,3
19278396670388,-0.8566305,8.977871,4.2161536,3
19278399049555,-0.6843473,8.848659,4.2448673,3
19278401428721,-0.5838487,8.968299,4.26401,3
19278403807836,-0.526421,8.977871,4.182654,3
19278406187003,-0.4019942,8.877372,4.0965123,3
19278408566169,-0.34456646,8.997013,4.130012,3
19278410945336,-0.33499518,9.131011,4.1587257,3
19278413324451,-0.36370903,9.111869,4.1922255,3
19278415703617,-0.41156548,9.092726,4.182654,3
19278418082732,-0.526421,9.19801,4.1347976,3
19278420461898,-0.67477596,9.245867,4.0390844,3
19278422841065,-0.83748794,9.188439,4.019942,3
19278425220232,-0.9810573,9.202796,4.0295134,3
19278427599346,-1.119841,9.241081,4.048656,3
19278429978513,-1.253839,9.212367,4.0390844,3
19278432357680,-1.3160524,9.188439,3.9960139,3
19278434736794,-1.3351951,9.226724,3.8811584,3
19278437115961,-1.3208381,9.226724,3.7567315,3
19278439495128,-1.282553,9.19801,3.67059,3
19278441874242,-1.2011969,9.174082,3.641876,3
19278444253409,-1.1150553,9.164511,3.6514473,3
19278446632576,-1.0049855,9.150154,3.6897326,3
19278449011690,-0.8757731,9.150154,3.7136607,3
19278451390857,-0.76570326,9.145369,3.7136607,3
19278453770023,-0.6269195,9.15494,3.7136607,3
19278456149138,-0.526421,9.188439,3.6993039,3
19278458528305,-0.45942193,9.193225,3.751946,3
19278460907471,-0.37328035,9.174082,3.842873,3
19278463286586,-0.2727818,9.131011,3.9290147,3
19278465665753,-0.2009971,9.174082,3.9625144,3
19278468044919,-0.13399807,9.164511,3.9768713,3
19278470424086,-0.10049855,9.135797,3.9673,3
19278472803201,-0.047856454,9.150154,3.9673,3
19278475182367,-0.009571291,9.140582,3.9577286,3
19278477561534,-0.02871387,9.131011,3.9960139,3
19278479940648,-0.047856454,9.12144,4.034299,3
19278482319815,-0.10049855,9.08794,4.0295134,3
19278484698982,-0.14356937,9.092726,3.9673,3
19278487078096,-0.23449662,9.111869,3.9194436,3
19278489457263,-0.35413775,9.092726,3.8668015,3
19278491836430,-0.44985065,9.059227,3.8380876,3
19278494215544,-0.53599226,9.073584,3.8333018,3
19278496594711,-0.6891329,9.083155,3.8524444,3
19278498973878,-0.7896315,9.068798,3.8524444,3
19278501352992,-0.8709874,9.049655,3.8333018,3
19278503732159,-0.9810573,9.006584,3.7710886,3
19278506111326,-1.105484,8.748159,3.6227336,3
19278508490388,-1.2203395,8.456235,3.751946,3
19278510869607,-1.2634103,8.657232,4.369294,3
19278513248773,-1.3208381,9.427721,4.8622155,3
19278515627888,-1.5457634,9.547362,4.4889355,3
19278518007055,-1.5696917,9.260223,4.0103707,3
19278520386221,-1.2442678,9.609575,3.5700915,3
19278522765336,-1.564906,10.112068,3.3260236,3
19278525144503,-1.5170496,9.537791,3.3643086,3
19278527523669,-1.1820544,9.08794,3.9577286,3
19278529902836,-1.1246266,9.217153,4.5415773,3
19278532281951,-1.3256238,9.030513,4.843073,3
19278534661117,-0.89491564,8.585447,4.8765726,3
19278537040284,-0.6221339,8.566305,4.536792,3
19278539419398,-0.7178468,9.006584,4.546363,3
19278541798565,-0.59342,8.671589,4.618148,3
19278544177732,-0.31106696,8.384451,4.0438704,3
19278546556846,-0.5886344,8.886943,3.5509489,3
19278548936013,-0.47377887,8.920443,3.211168,3
19278551315180,-0.66999036,8.705089,3.5365918,3
19278553694294,-0.8757731,8.738588,3.9338005,3
19278556073461,-1.18684,8.963513,4.345366,3
19278558452628,-1.2251252,8.85823,4.15394,3
19278560831742,-1.5314065,8.977871,3.5988052,3
19278563210857,-1.6845472,9.188439,2.9192436,3
19278565590076,-1.6319051,9.260223,2.5938199,3
19278567969190,-1.6319051,9.236296,2.7708886,3
19278570348357,-1.5696917,9.241081,3.2350962,3
19278572727523,-1.3351951,9.236296,3.6658044,3
19278575106638,-1.0959128,9.178867,3.6849468,3
19278577485805,-0.83748794,9.226724,3.2350962,3
19278579864971,-0.6125626,9.346365,2.737389,3
19278582244138,-0.31585258,9.303294,2.3784657,3
19278584623253,-0.17228323,9.241081,2.4263222,3
19278587002419,-0.038285162,9.19801,2.8474588,3
19278589381586,0.023928227,9.131011,3.3403804,3
19278591760701,0.0,9.035298,3.6083765,3
19278594139867,-0.033499517,9.01137,3.574877,3
19278596519034,-0.043070808,9.040084,3.3403804,3
19278598898148,-0.17228323,9.083155,3.1680973,3
19278601277315,-0.29192436,9.068798,3.2303107,3
19278603656482,-0.44985065,9.064013,3.5509489,3
19278606035596,-0.6221339,9.044869,3.9816568,3
19278608414763,-0.7704889,9.035298,4.2687955,3
19278610793930,-0.91405827,9.035298,4.321438,3
19278613173044,-1.0432707,9.107083,4.168297,3
19278615552211,-1.1006985,9.135797,3.9816568,3
19278617931378,-1.0959128,9.126225,3.9098723,3
19278620310492,-1.0911272,9.135797,4.0534415,3
19278622689659,-1.052842,9.08794,4.3357944,3
19278625068826,-0.9906286,9.040084,4.6085763,3
19278627447940,-0.8279166,9.01137,4.6755753,3
19278629827107,-0.64606214,9.040084,4.5655055,3
19278632206273,-0.4833502,9.030513,4.3405805,3
19278634585388,-0.33020952,8.9826565,4.168297,3
19278636964555,-0.2009971,8.953942,4.139583,3
19278639343721,-0.086141616,8.925228,4.240082,3
19278641722836,-0.033499517,8.843872,4.359723,3
19278644102003,-0.043070808,8.762517,4.369294,3
19278646481169,-0.13878371,8.781659,4.211368,3
19278648860284,-0.25842485,8.815159,3.9673,3
19278651239451,-0.41156548,8.82473,3.7328033,3
19278653618617,-0.5694918,8.886943,3.5844483,3
19278655997732,-0.76570326,8.953942,3.5988052,3
19278658376898,-0.90448695,8.9348,3.6323047,3
19278660756065,-1.052842,8.977871,3.6753755,3
19278663135232,-1.1485549,9.044869,3.6323047,3
19278665514346,-1.1772687,9.073584,3.522235,3
19278667893513,-1.2011969,9.116654,3.4217365,3
19278670272628,-1.1676974,9.183653,3.345166,3
19278672651794,-1.105484,9.193225,3.397808,3
19278675030961,-0.98584294,9.126225,3.4600215,3
19278677410128,-0.85184485,9.135797,3.5270207,3
19278679789242,-0.66999036,9.2075815,3.5318062,3
19278682168409,-0.4354937,9.265009,3.4839497,3
19278684547523,-0.27756742,9.274581,3.4121652,3
19278686926690,-0.08135597,9.255438,3.4025939,3
19278689305857,0.06699903,9.183653,3.546163,3
19278691685023,0.17228323,9.073584,3.7423747,3
19278694064138,0.20578274,9.001799,3.9673,3
19278696443305,0.2105684,8.953942,4.072584,3
19278698822471,0.13878371,8.9108715,4.072584,3
19278701201534,0.043070808,8.915657,4.005585,3
19278703580753,-0.124426775,8.930014,3.900301,3
19278705959919,-0.29192436,8.944371,3.900301,3
19278708339034,-0.5024927,8.953942,3.9864426,3
19278710718201,-0.70348984,9.006584,4.1587257,3
19278713097367,-0.8997013,9.001799,4.2448673,3
19278715476482,-1.0671989,9.020942,4.23051,3
19278717855648,-1.2203395,9.040084,4.168297,3
19278720234815,-1.3160524,9.073584,4.0869412,3
19278722613930,-1.3830515,9.102298,4.0534415,3
19278724993096,-1.3734802,9.111869,4.048656,3
19278727372263,-1.3495519,9.150154,4.106084,3
19278729751378,-1.2346965,9.150154,4.1443686,3
19278732130544,-1.1150553,9.164511,4.1443686,3
19278734509711,-0.91884387,9.188439,4.101298,3
19278736888826,-0.66999036,9.202796,4.0103707,3
19278739267992,-0.42592242,9.202796,3.8476589,3
19278741647159,-0.18664017,9.245867,3.751946,3
19278744026273,-0.023928227,9.250652,3.7950168,3
19278746405440,0.18185452,9.212367,3.9146578,3
19278748784607,0.30149564,9.19801,4.0438704,3
19278751163721,0.4019942,9.169296,4.082155,3
19278753542888,0.41635114,9.126225,4.058227,3
19278755922055,0.39720857,9.116654,3.9577286,3
19278758301117,0.34456646,9.08794,3.871587,3
19278760680336,0.23928227,9.073584,3.8907297,3
19278763059503,0.06699903,9.025727,3.9625144,3
19278765438617,-0.07178468,8.987442,4.034299,3
19278767817784,-0.2632105,9.025727,4.168297,3
19278770196951,-0.44506502,8.997013,4.254439,3
19278772576117,-0.5838487,8.944371,4.2257247,3
19278774955232,-0.7369894,9.006584,4.0534415,3
19278777334398,-0.8709874,9.025727,3.8285162,3
19278779713513,-0.95712906,9.049655,3.7663028,3
19278782092680,-1.0097711,9.016156,3.8907297,3
19278784471846,-1.0241281,9.040084,4.024728,3
19278786851013,-1.0289137,9.078369,4.082155,3
19278789230128,-0.9619147,9.0544405,3.8907297,3
19278791609294,-0.90448695,9.131011,3.7184465,3
19278793988409,-0.7800602,9.131011,3.656233,3
19278796367576,-0.6269195,9.097511,3.7088752,3
19278798746742,-0.4977071,9.102298,3.7998023,3
19278801125909,-0.3493521,9.068798,3.7998023,3
19278803505023,-0.21535404,9.025727,3.7088752,3
19278805884190,-0.11006984,9.097511,3.6131623,3
19278808263357,-0.047856454,9.140582,3.5557344,3
19278810642471,-0.009571291,9.030513,3.6083765,3
19278813021638,0.02871387,9.006584,3.6658044,3
19278815400805,-0.076570325,9.059227,3.7088752,3
19278817779919,-0.13399807,9.001799,3.7184465,3
19278820159086,-0.30149564,8.930014,3.7663028,3
19278822538253,-0.44985065,8.939586,3.8141594,3
19278824917315,-0.6987042,8.9826565,3.9050865,3
19278827296534,-0.82313097,8.920443,3.8668015,3
19278829675701,-0.98584294,9.016156,3.7423747,3
19278832054815,-1.1246266,9.040084,3.6083765,3
19278834433982,-1.2442678,9.025727,3.603591,3
19278836813148,-1.2873386,8.992228,3.7328033,3
19278839192263,-1.3304094,8.997013,3.9194436,3
19278841571430,-1.3304094,8.9826565,3.9816568,3
19278843950596,-1.253839,8.977871,3.9864426,3
19278846329711,-1.1676974,9.025727,3.9816568,3
19278848708878,-0.9954142,9.020942,3.818945,3
19278851088044,-0.89013004,9.078369,3.7328033,3
19278853467159,-0.72263247,9.12144,3.7663028,3
19278855846326,-0.59342,9.08794,3.9338005,3
19278858225492,-0.47856453,9.035298,4.063013,3
19278860604607,-0.4019942,9.064013,4.0773697,3
19278862983773,-0.31106696,9.08794,4.034299,3
19278865362940,-0.28713873,9.08794,3.9433718,3
19278867742055,-0.3062813,9.111869,3.885944,3
19278870121221,-0.30149564,9.135797,3.871587,3
19278872500388,-0.3684947,9.111869,3.9050865,3
19278874879503,-0.44985065,9.092726,3.9673,3
19278877258617,-0.5312066,9.064013,3.9720855,3
19278879637836,-0.6364908,9.073584,3.9146578,3
19278882016951,-0.7322037,9.025727,3.7998023,3
19278884396117,-0.8039884,9.064013,3.8285162,3
19278886775284,-0.8757731,9.073584,3.9577286,3
19278889154398,-0.94277215,9.030513,4.072584,3
19278891533565,-0.9762716,9.064013,4.106084,3
19278893912732,-0.95712906,9.097511,3.9720855,3
19278896291846,-0.9236295,9.102298,3.7710886,3
19278898671013,-0.83748794,9.08794,3.7184465,3
19278901050180,-0.76570326,9.083155,3.871587,3
19278903429294,-0.70348984,9.064013,4.063013,3
19278905808461,-0.57906306,9.025727,4.106084,3
19278908187628,-0.45942193,9.059227,4.0151563,3
19278910566690,-0.38763726,9.107083,3.9098723,3
19278912945909,-0.32063824,9.083155,3.818945,3
19278915325076,-0.2536392,9.08794,3.7615173,3
19278917704190,-0.23928227,9.116654,3.7088752,3
19278920083357,-0.2536392,9.08794,3.7567315,3
19278922462523,-0.2727818,9.068798,3.8907297,3
19278924841638,-0.37328035,9.083155,4.0151563,3
19278927220805,-0.47856453,9.097511,3.8955152,3
19278929599971,-0.5982057,9.097511,3.67059,3
19278931979086,-0.6987042,9.08794,3.5126636,3
19278934358253,-0.8709874,9.116654,3.6323047,3
19278936737419,-1.0049855,9.064013,3.8572302,3
19278939116534,-1.1006985,9.049655,3.9577286,3
19278941495701,-1.1916257,9.116654,3.9194436,3
19278943874867,-1.2634103,9.150154,3.7184465,3
19278946253930,-1.2969099,9.102298,3.5509489,3
19278948633148,-1.2969099,9.08794,3.6131623,3
19278951012315,-1.2490535,9.083155,3.9720855,3
19278953391482,-1.1772687,8.968299,4.273581,3
19278955770596,-1.0959128,8.997013,4.273581,3
19278958149763,-0.9954142,9.059227,3.9864426,3
19278960528878,-0.83748794,9.073584,3.7040894,3
19278962908044,-0.71306115,9.064013,3.6227336,3
19278965287211,-0.6125626,9.073584,3.7758741,3
19278967666378,-0.4977071,9.025727,4.101298,3
19278970045492,-0.43070808,8.949157,4.369294,3
19278972424659,-0.3397808,8.9348,4.3788652,3
19278974803826,-0.32063824,9.025727,4.1204405,3
19278977182888,-0.26799613,9.001799,3.7758741,3
19278979562107,-0.2536392,9.01137,3.5605202,3
19278981941273,-0.32063824,9.059227,3.5988052,3
19278984320388,-0.41156548,9.059227,3.8285162,3
19278986699555,-0.52163535,9.035298,4.101298,3
19278989078669,-0.6364908,9.064013,4.15394,3
19278991457836,-0.7704889,9.107083,3.9481573,3
19278993837003,-0.8709874,9.111869,3.6275191,3
19278996216065,-0.971486,9.164511,3.4313076,3
19278998595284,-1.052842,9.169296,3.4983068,3
19279000974451,-1.119841,9.164511,3.7471602,3
19279003353617,-1.134198,9.116654,3.9864426,3
19279005732732,-1.1437693,9.083155,4.091727,3
19279008111898,-1.105484,9.116654,3.9625144,3
19279010491013,-0.9954142,9.111869,3.723232,3
19279012870180,-0.89013004,9.111869,3.5796626,3
19279015249346,-0.72263247,9.12144,3.5988052,3
19279017628461,-0.5599205,9.078369,3.7423747,3
19279020007628,-0.44506502,9.035298,3.9338005,3
19279022386794,-0.29192436,9.040084,4.048656,3
19279024765909,-0.13399807,9.049655,4.019942,3
19279027145076,0.014356935,9.059227,3.8620157,3
19279029524242,0.124426775,9.097511,3.723232,3
19279031903357,0.19621146,9.131011,3.6610186,3
19279034282523,0.2440679,9.126225,3.7423747,3
19279036661690,0.25842485,9.126225,3.871587,3
19279039040805,0.2632105,9.111869,3.9481573,3
19279041419971,0.2440679,9.097511,3.8763726,3
19279043799138,0.19621146,9.059227,3.7088752,3
19279046178253,0.16271193,8.997013,3.6801612,3
19279048557419,0.076570325,8.953942,3.7854455,3
19279050936586,-0.033499517,8.977871,3.9720855,3
19279053315701,-0.17706887,9.001799,4.0534415,3
19279055694867,-0.29671,9.006584,3.9720855,3
19279058074034,-0.3924229,9.030513,3.8141594,3
19279060453148,-0.4833502,9.083155,3.7184465,3
19279062832315,-0.57906306,9.078369,3.737589,3
19279065211430,-0.6269195,9.025727,3.842873,3
19279067590596,-0.6939186,9.016156,3.9481573,3
19279069969763,-0.7082755,9.030513,3.952943,3
19279072348930,-0.66999036,9.016156,3.871587,3
19279074728096,-0.61734825,9.059227,3.751946,3
19279077107211,-0.5455636,9.107083,3.67059,3
19279079486378,-0.41635114,9.107083,3.6801612,3
19279081865492,-0.33020952,9.083155,3.7615173,3
19279084244659,-0.22971097,9.092726,3.871587,3
19279086623826,-0.14356937,9.102298,3.9242291,3
19279089002992,-0.07178468,9.116654,3.9146578,3
19279091382107,-0.02871387,9.12144,3.8524444,3
19279093761273,-0.023928227,9.102298,3.790231,3
19279096140388,-0.047856454,9.092726,3.7998023,3
19279098519555,-0.1052842,9.083155,3.8620157,3
19279100898721,-0.19621146,9.0544405,3.9433718,3
19279103277836,-0.3062813,9.035298,3.9816568,3
19279105657003,-0.41635114,9.025727,3.9720855,3
19279108036169,-0.5168497,9.040084,3.9098723,3
19279110415284,-0.6412765,9.068798,3.8237305,3
19279112794451,-0.75613195,9.064013,3.804588,3
19279115173617,-0.83748794,9.073584,3.8285162,3
19279117552732,-0.8853444,9.08794,3.8907297,3
19279119931898,-0.9379865,9.102298,3.9242291,3
19279122311065,-0.9523434,9.102298,3.9433718,3
19279124690180,-0.9284152,9.131011,3.9481573,3
19279127069346,-0.8757731,9.111869,3.8955152,3
19279129448513,-0.7896315,9.107083,3.8524444,3
19279131827628,-0.6843473,9.107083,3.8763726,3
19279134206794,-0.5982057,9.102298,3.9098723,3
19279136585961,-0.49292147,9.102298,3.9338005,3
19279138965076,-0.39720857,9.116654,3.9338005,3
19279141344242,-0.3062813,9.097511,3.9194436,3
19279143723409,-0.2440679,9.083155,3.8524444,3
19279146102523,-0.2009971,9.08794,3.8141594,3
19279148481690,-0.19142582,9.092726,3.8237305,3
19279150860857,-0.18664017,9.064013,3.8237305,3
19279153239971,-0.2105684,9.083155,3.8380876,3
19279155619138,-0.27756742,9.097511,3.842873,3
19279157998305,-0.32542387,9.111869,3.8476589,3
19279160377419,-0.4211368,9.150154,3.8141594,3
19279162756586,-0.5072784,9.150154,3.790231,3
19279165135753,-0.57906306,9.140582,3.7663028,3
19279167514867,-0.6221339,9.135797,3.7998023,3
19279169894034,-0.6652047,9.131011,3.8380876,3
19279172273201,-0.7178468,9.145369,3.8763726,3
19279174652315,-0.71306115,9.140582,3.8811584,3
19279177031482,-0.6795616,9.12144,3.8524444,3
19279179410648,-0.65084773,9.15494,3.8285162,3
19279181789763,-0.57427746,9.15494,3.8237305,3
19279184168930,-0.5168497,9.107083,3.8333018,3
19279186548096,-0.4354937,9.107083,3.842873,3
19279188927211,-0.3493521,9.078369,3.8524444,3
19279191306378,-0.29671,9.08794,3.8620157,3
19279193685544,-0.21535404,9.068798,3.8333018,3
19279196064659,-0.16749759,9.040084,3.7998023,3
19279198443826,-0.13399807,9.040084,3.7710886,3
19279200822992,-0.124426775,9.035298,3.7806597,3
19279203202107,-0.148355,9.0544405,3.790231,3
19279205581273,-0.20578274,9.049655,3.7998023,3
19279207960440,-0.2536392,9.044869,3.7950168,3
19279210339555,-0.32063824,9.030513,3.7998023,3
19279212718669,-0.40677986,9.044869,3.7998023,3
19279215097888,-0.47856453,9.030513,3.7710886,3
19279217477003,-0.53599226,9.049655,3.7567315,3
19279219856169,-0.66041905,9.064013,3.7710886,3
19279222235336,-0.7369894,9.068798,3.8093736,3
19279224614451,-0.7752745,9.083155,3.8093736,3
19279226993617,-0.8039884,9.092726,3.8524444,3
19279229372784,-0.8422736,9.078369,3.8333018,3
19279231751898,-0.83748794,9.049655,3.8285162,3
19279234131065,-0.80877405,9.049655,3.7998023,3
19279236510232,-0.7848458,9.049655,3.7950168,3
19279238889346,-0.7513463,9.059227,3.8093736,3
19279241268513,-0.70348984,9.030513,3.804588,3
19279243647628,-0.65084773,9.035298,3.8093736,3
19279246026794,-0.5838487,9.035298,3.804588,3
19279248405961,-0.5455636,9.016156,3.7998023,3
19279250785076,-0.4833502,9.025727,3.7998023,3
19279253164242,-0.45942193,9.006584,3.7998023,3
19279255543409,-0.44985065,9.01137,3.8141594,3
19279257922576,-0.43070808,9.040084,3.8524444,3
19279260301690,-0.4642076,9.049655,3.8524444,3
19279262680857,-0.4833502,9.044869,3.842873,3
19279265059971,-0.5168497,9.040084,3.842873,3
19279267439138,-0.5599205,9.073584,3.8380876,3
19279269818305,-0.6125626,9.083155,3.8524444,3
19279272197419,-0.65084773,9.102298,3.8763726,3
19279274576586,-0.6939186,9.097511,3.8907297,3
19279276955753,-0.7465607,9.097511,3.9146578,3
19279279334867,-0.7704889,9.092726,3.9433718,3
19279281714034,-0.80877405,9.083155,3.952943,3
19279284093201,-0.83748794,9.073584,3.952943,3
19279286472315,-0.8039884,9.08794,3.9577286,3
19279288851482,-0.7896315,9.097511,3.9290147,3
19279291230648,-0.7322037,9.102298,3.9242291,3
19279293609711,-0.7082755,9.097511,3.9242291,3
19279295988930,-0.6269195,9.097511,3.9433718,3
19279298368096,-0.57427746,9.092726,3.9338005,3
19279300747211,-0.5072784,9.097511,3.9146578,3
19279303126378,-0.4546363,9.102298,3.900301,3
19279305505544,-0.40677986,9.107083,3.8955152,3
19279307884659,-0.3684947,9.08794,3.885944,3
19279310263826,-0.32063824,9.111869,3.900301,3
19279312642992,-0.30149564,9.116654,3.9050865,3
19279315022107,-0.28713873,9.12144,3.8955152,3
19279317401273,-0.28713873,9.131011,3.8811584,3
19279319780440,-0.29192436,9.111869,3.8620157,3
19279322159555,-0.28713873,9.116654,3.8620157,3
19279324538721,-0.32063824,9.126225,3.871587,3
19279326917888,-0.3589234,9.131011,3.8620157,3
19279329297003,-0.39720857,9.131011,3.8572302,3
19279331676169,-0.4354937,9.116654,3.8333018,3
19279334055336,-0.47856453,9.135797,3.8476589,3
19279336434451,-0.5024927,9.111869,3.8285162,3
19279338813617,-0.5168497,9.102298,3.8333018,3
19279341192784,-0.52163535,9.126225,3.8237305,3
19279343571898,-0.52163535,9.116654,3.8141594,3
19279345951065,-0.5168497,9.08794,3.804588,3
19279348330180,-0.4881358,9.08794,3.818945,3
19279350709346,-0.4642076,9.064013,3.8141594,3
19279353088513,-0.44027936,9.064013,3.8333018,3
19279355467628,-0.3924229,9.073584,3.8380876,3
19279357846794,-0.3589234,9.0544405,3.8285162,3
19279360225961,-0.30149564,9.073584,3.8333018,3
19279362605076,-0.28235307,9.083155,3.8141594,3
19279364984242,-0.2632105,9.073584,3.818945,3
19279367363409,-0.2632105,9.078369,3.8380876,3
19279369742523,-0.28713873,9.068798,3.8524444,3
19279372121690,-0.28713873,9.059227,3.8572302,3
19279374500857,-0.29671,9.068798,3.8572302,3
19279376879971,-0.3397808,9.073584,3.8476589,3
19279379259138,-0.38763726,9.073584,3.818945,3
19279381638305,-0.44027936,9.078369,3.8333018,3
19279384017419,-0.49292147,9.092726,3.842873,3
19279386396586,-0.53599226,9.092726,3.8333018,3
19279388775753,-0.5599205,9.083155,3.8524444,3
19279391154867,-0.60777694,9.111869,3.8668015,3
19279393534034,-0.66999036,9.08794,3.8572302,3
19279395913201,-0.6795616,9.092726,3.8668015,3
19279398292315,-0.7178468,9.08794,3.8572302,3
19279400671482,-0.7178468,9.08794,3.8524444,3
19279403050648,-0.72741807,9.111869,3.8572302,3
19279405429763,-0.72741807,9.083155,3.8476589,3
19279407808930,-0.6987042,9.08794,3.8285162,3
19279410188096,-0.66999036,9.073584,3.8141594,3
19279412567211,-0.64606214,9.097511,3.8237305,3
19279414946378,-0.61734825,9.107083,3.8476589,3
19279417325544,-0.55034924,9.097511,3.8524444,3
19279419704659,-0.5072784,9.049655,3.8668015,3
19279422083826,-0.44985065,9.0544405,3.8907297,3
19279424462992,-0.38763726,9.08794,3.900301,3
19279426842107,-0.3062813,9.092726,3.8955152,3
19279429221273,-0.24885355,9.0544405,3.8907297,3
19279431600388,-0.19621146,9.044869,3.8811584,3
19279433979555,-0.17228323,9.044869,3.885944,3
19279436358721,-0.15792629,9.044869,3.8668015,3
19279438737888,-0.11964113,9.020942,3.871587,3
19279441117003,-0.13399807,9.030513,3.8668015,3
19279443496169,-0.13878371,9.044869,3.8524444,3
19279445875284,-0.16749759,9.030513,3.8333018,3
19279448254451,-0.2105684,9.044869,3.8285162,3
19279450633617,-0.2440679,9.025727,3.8285162,3
19279453012732,-0.30149564,9.035298,3.818945,3
19279455391898,-0.3397808,9.025727,3.8141594,3
19279457771065,-0.39720857,9.040084,3.7950168,3
19279460150180,-0.44985065,9.040084,3.7854455,3
19279462529346,-0.526421,9.049655,3.7806597,3
19279464908513,-0.56470615,9.0544405,3.7806597,3
19279467287628,-0.60777694,9.064013,3.7710886,3
19279469666794,-0.6556334,9.0544405,3.7806597,3
19279472045961,-0.66041905,9.044869,3.7854455,3
19279474425076,-0.66041905,9.0544405,3.8141594,3
19279476804242,-0.6364908,9.030513,3.7998023,3
19279479183409,-0.5982057,9.044869,3.7998023,3
19279481562523,-0.57427746,9.059227,3.8237305,3
19279483941690,-0.526421,9.049655,3.8333018,3
19279486320857,-0.44027936,9.035298,3.8763726,3
19279488699971,-0.38285163,9.035298,3.900301,3
19279491079138,-0.33499518,9.0544405,3.9194436,3
19279493458305,-0.31585258,9.049655,3.9242291,3
19279495837419,-0.29192436,9.040084,3.9098723,3
19279498216586,-0.24885355,9.030513,3.9242291,3
19279500595753,-0.2632105,9.040084,3.9194436,3
19279502974867,-0.27756742,9.044869,3.9338005,3
19279505354034,-0.30149564,9.049655,3.952943,3
19279507733148,-0.32542387,9.01137,3.9481573,3
19279510112315,-0.38285163,9.020942,3.938586,3
19279512491482,-0.44027936,9.049655,3.9338005,3
19279514870596,-0.4881358,9.016156,3.9242291,3
19279517249763,-0.55034924,9.016156,3.952943,3
19279519628930,-0.6029913,9.016156,3.9720855,3
19279522008044,-0.6652047,9.001799,3.9433718,3
19279524387211,-0.7082755,9.001799,3.9242291,3
19279526766326,-0.7322037,9.01137,3.8955152,3
19279529145492,-0.75613195,9.016156,3.885944,3
19279531524659,-0.7752745,8.963513,3.8811584,3
19279533903826,-0.7800602,8.997013,3.8907297,3
19279536282940,-0.79920274,9.016156,3.9194436,3
19279538662107,-0.7609176,8.958728,3.871587,3
19279541041273,-0.7465607,8.963513,3.8572302,3
19279543420388,-0.72741807,8.963513,3.7998023,3
19279545799555,-0.7178468,8.9348,3.7663028,3
19279548178721,-0.6843473,8.9013,3.7854455,3
19279550557836,-0.66041905,8.906086,3.8524444,3
19279552937003,-0.6221339,8.877372,3.900301,3
19279555316169,-0.55034924,8.834301,3.9050865,3
19279557695284,-0.46899325,8.891729,3.8811584,3
19279560074451,-0.37806597,8.920443,3.8333018,3
19279562453565,-0.31106696,8.958728,3.818945,3
19279564832732,-0.2536392,8.992228,3.8572302,3
19279567211898,-0.16749759,9.01137,3.9242291,3
19279569591013,-0.09092726,9.092726,3.9864426,3
19279571970180,0.009571291,9.131011,3.9720855,3
19279574349346,0.10049855,9.202796,3.9242291,3
19279576728461,0.16271193,9.293723,3.871587,3
19279579107628,0.2440679,9.322437,3.8237305,3
19279581486794,0.29192436,9.360723,3.8141594,3
19279583865909,0.3397808,9.41815,3.8237305,3
19279586245076,0.38763726,9.437292,3.8285162,3
19279588624242,0.3924229,9.45165,3.8285162,3
19279591003357,0.38763726,9.470792,3.790231,3
19279593382523,0.3684947,9.427721,3.723232,3
19279595761690,0.3062813,9.408579,3.6801612,3
19279598140805,0.22013968,9.379865,3.6610186,3
19279600519971,0.15792629,9.355937,3.694518,3
19279602899138,0.062213387,9.288938,3.7328033,3
19279605278253,-0.043070808,9.226724,3.7998023,3
19279607657419,-0.11485548,9.174082,3.7854455,3
19279610036586,-0.22971097,9.135797,3.751946,3
19279612415701,-0.32542387,9.126225,3.7280176,3
19279614794867,-0.41635114,9.097511,3.6993039,3
19279617173982,-0.49292147,9.068798,3.751946,3
19279619553148,-0.5455636,9.097511,3.8285162,3
19279621932315,-0.5694918,9.044869,3.8524444,3
19279624311378,-0.55513483,8.9826565,3.8333018,3
19279626690596,-0.5838487,9.020942,3.8763726,3
19279629069763,-0.6029913,9.049655,3.9242291,3
19279631448878,-0.5407779,9.059227,3.9290147,3
19279633828044,-0.49292147,9.049655,3.9098723,3
19279636207211,-0.4642076,9.116654,3.871587,3
19279638586326,-0.37806597,9.178867,3.842873,3
19279640965492,-0.31106696,9.140582,3.885944,3
19279643344659,-0.26799613,9.140582,3.9290147,3
19279645723773,-0.2105684,9.164511,3.9816568,3
19279648102940,-0.16749759,9.135797,3.9720855,3
19279650482107,-0.18185452,9.126225,3.9481573,3
19279652861221,-0.19621146,9.169296,3.9290147,3
19279655240388,-0.21535404,9.135797,3.8955152,3
19279657619503,-0.2632105,9.0544405,3.9290147,3
19279659998669,-0.35413775,9.059227,3.9338005,3
19279662377836,-0.43070808,9.092726,3.9194436,3
19279664756951,-0.5168497,9.083155,3.9194436,3
19279667136117,-0.6891329,9.040084,3.8955152,3
19279669515284,-0.7704889,9.068798,3.9242291,3
19279671894398,-0.8662018,9.0544405,3.9625144,3
19279674273565,-0.9762716,8.992228,3.9290147,3
19279676652732,-1.0432707,9.035298,3.938586,3
19279679031846,-1.0671989,9.107083,3.9481573,3
19279681411013,-1.1102697,9.068798,3.9242291,3
19279683790180,-1.1102697,9.059227,3.9433718,3
19279686169294,-1.038485,9.08794,3.9625144,3
19279688548461,-1.0001999,9.140582,3.9768713,3
19279690927628,-0.8997013,9.174082,3.9768713,3
19279693306742,-0.7896315,9.169296,3.9577286,3
19279695685909,-0.6556334,9.169296,3.938586,3
19279698065076,-0.49292147,9.15494,3.8955152,3
19279700444190,-0.3397808,9.159725,3.8811584,3
19279702823357,-0.19142582,9.126225,3.8668015,3
19279705202523,-0.09092726,9.135797,3.8524444,3
19279707581638,0.009571291,9.116654,3.8380876,3
19279709960805,0.08135597,9.116654,3.8285162,3
19279712339971,0.12921242,9.08794,3.7998023,3
19279714719086,0.11006984,9.020942,3.7471602,3
19279717098253,0.0526421,9.030513,3.723232,3
19279719477367,0.0526421,9.035298,3.6801612,3
19279721856534,-0.033499517,9.020942,3.7040894,3
19279724235701,-0.11485548,9.064013,3.7471602,3
19279726614815,-0.15314065,9.0544405,3.8093736,3
19279728993982,-0.20578274,8.953942,3.8285162,3
19279731373148,-0.3493521,9.068798,3.885944,3
19279733752263,-0.33020952,9.107083,3.8572302,3
19279736131430,-0.38763726,9.068798,3.7615173,3
19279738510596,-0.45942193,8.977871,3.5126636,3
19279740889711,-0.4354937,9.083155,3.5126636,3
19279743268878,-0.46899325,9.030513,3.7663028,3
19279745648044,-0.47377887,8.853444,4.0965123,3
19279748027159,-0.4354937,8.82473,4.3070807,3
19279750406326,-0.36370903,8.877372,4.182654,3
19279752785492,-0.29671,8.958728,3.818945,3
19279755164607,-0.19621146,9.116654,3.4648073,3
19279757543773,-0.09571291,9.23151,3.3690944,3
19279759922888,-0.033499517,9.183653,3.5988052,3
19279762302055,0.023928227,9.116654,3.9864426,3
19279764681221,0.05742774,9.092726,4.278367,3
19279767060336,0.0526421,9.040084,4.2352962,3
19279769439503,0.043070808,9.016156,4.005585,3
19279771818669,0.0,9.006584,3.7040894,3
19279774197784,-0.086141616,9.030513,3.5509489,3
19279776576951,-0.23928227,9.083155,3.641876,3
19279778956117,-0.3589234,9.083155,3.8572302,3
19279781335232,-0.51206404,9.08794,4.048656,3
19279783714398,-0.60777694,9.12144,4.1204405,3
19279786093565,-0.6652047,9.178867,3.9768713,3
19279788472680,-0.6795616,9.236296,3.7615173,3
19279790851846,-0.6652047,9.2793665,3.6179478,3
19279793231013,-0.6221339,9.293723,3.6801612,3
19279795610128,-0.5168497,9.274581,3.9098723,3
19279797989294,-0.44985065,9.236296,4.15394,3
19279800368409,-0.33020952,9.2075815,4.273581,3
19279802747576,-0.20578274,9.159725,4.1922255,3
19279805126742,-0.11485548,9.15494,3.991228,3
19279807505909,-0.014356935,9.188439,3.7854455,3
19279809885023,0.033499517,9.212367,3.7136607,3
19279812264190,0.086141616,9.19801,3.7615173,3
19279814643305,0.05742774,9.159725,3.9146578,3
19279817022419,0.0526421,9.126225,4.0677986,3
19279819401638,0.019142581,9.107083,4.0677986,3
19279821780753,-0.043070808,9.097511,3.9960139,3
19279824159919,-0.10049855,9.08794,3.8811584,3
19279826539086,-0.18185452,9.102298,3.7950168,3
19279828918201,-0.2632105,9.0544405,3.7950168,3
19279831297367,-0.39720857,9.020942,3.8955152,3
19279833676534,-0.47377887,9.030513,3.9673,3
19279836055648,-0.6029913,9.040084,3.991228,3
19279838434815,-0.6939186,9.044869,3.9481573,3
19279840813982,-0.7848458,9.068798,3.8333018,3
19279843193096,-0.8709874,9.08794,3.7663028,3
19279845572263,-0.91405827,9.083155,3.7328033,3
19279847951430,-0.95712906,9.111869,3.7950168,3
19279850330544,-0.95712906,9.116654,3.8907297,3
19279852709711,-0.8997013,9.140582,3.9625144,3
19279855088826,-0.8422736,9.135797,3.9290147,3
19279857467992,-0.7369894,9.15494,3.842873,3
19279859847159,-0.66041905,9.150154,3.751946,3
19279862226273,-0.5886344,9.193225,3.694518,3
19279864605388,-0.53599226,9.2075815,3.6993039,3
19279866984607,-0.4642076,9.19801,3.737589,3
19279869363721,-0.4642076,9.188439,3.804588,3
19279871742888,-0.46899325,9.193225,3.818945,3
19279874122055,-0.45942193,9.188439,3.7854455,3
19279876501169,-0.4642076,9.169296,3.7184465,3
19279878880336,-0.49292147,9.145369,3.67059,3
19279881259451,-0.51206404,9.145369,3.6801612,3
19279883638617,-0.526421,9.150154,3.694518,3
19279886017784,-0.56470615,9.126225,3.751946,3
19279888396951,-0.5886344,9.126225,3.7854455,3
19279890776065,-0.5982057,9.126225,3.7950168,3
19279893155232,-0.6125626,9.135797,3.7423747,3
19279895534346,-0.6652047,9.111869,3.723232,3
19279897913513,-0.66041905,9.097511,3.7328033,3
19279900292680,-0.6556334,9.097511,3.7663028,3
19279902671794,-0.65084773,9.092726,3.8237305,3
19279905050961,-0.6269195,9.068798,3.8572302,3
19279907430128,-0.61734825,9.068798,3.8620157,3
19279909809242,-0.57427746,9.08794,3.8285162,3
19279912188409,-0.5455636,9.111869,3.7998023,3
19279914567576,-0.5168497,9.08794,3.7615173,3
19279916946690,-0.5072784,9.083155,3.7758741,3
19279919325857,-0.46899325,9.111869,3.8237305,3
19279921705023,-0.43070808,9.12144,3.8333018,3
19279924084138,-0.37806597,9.164511,3.804588,3
19279926463305,-0.3062813,9.174082,3.7663028,3
19279928842419,-0.25842485,9.178867,3.7615173,3
19279931221586,-0.21535404,9.150154,3.804588,3
19279933600753,-0.124426775,9.126225,3.8476589,3
19279935979867,-0.09092726,9.102298,3.900301,3
19279938359034,-0.033499517,9.083155,3.9146578,3
19279940738201,0.019142581,9.092726,3.871587,3
19279943117315,0.047856454,9.078369,3.842873,3
19279945496482,0.038285162,9.030513,3.8093736,3
19279947875648,0.047856454,9.035298,3.8380876,3
19279950254763,0.014356935,9.030513,3.8763726,3
19279952633930,-0.047856454,9.01137,3.900301,3
19279955013044,-0.08135597,9.001799,3.900301,3
19279957392159,-0.12921242,9.020942,3.8524444,3
19279959771378,-0.15792629,9.01137,3.8285162,3
19279962150492,-0.21535404,8.973084,3.8141594,3
19279964529659,-0.27756742,9.01137,3.842873,3
19279966908826,-0.32542387,9.006584,3.8763726,3
19279969287940,-0.33499518,9.025727,3.9146578,3
19279971667107,-0.36370903,9.006584,3.9146578,3
19279974046273,-0.4019942,9.001799,3.8763726,3
19279976425388,-0.38763726,9.030513,3.8811584,3
19279978804555,-0.38763726,9.0544405,3.842873,3
19279981183721,-0.3684947,9.064013,3.8524444,3
19279983562836,-0.33020952,9.040084,3.8955152,3
19279985942003,-0.33499518,9.040084,3.9338005,3
19279988321169,-0.3062813,9.040084,3.9290147,3
19279990700284,-0.25842485,9.044869,3.8955152,3
19279993079451,-0.23928227,9.025727,3.8333018,3
19279995458565,-0.19621146,9.030513,3.8093736,3
19279997837732,-0.19142582,9.040084,3.818945,3
19280000216898,-0.2009971,9.035298,3.8476589,3
19280002596013,-0.2009971,9.006584,3.8668015,3
19280004975180,-0.23928227,8.992228,3.8907297,3
19280007354346,-0.29192436,8.987442,3.8620157,3
19280009733461,-0.33499518,8.977871,3.8237305,3
19280012112628,-0.3924229,8.987442,3.7950168,3
19280014491794,-0.44506502,8.977871,3.7806597,3
19280016870909,-0.5168497,8.977871,3.7998023,3
19280019250076,-0.5886344,8.992228,3.8476589,3
19280021629242,-0.65084773,8.958728,3.885944,3
19280024008357,-0.6987042,8.953942,3.9050865,3
19280026387523,-0.7322037,8.949157,3.871587,3
19280028766690,-0.7800602,8.939586,3.8668015,3
19280031145805,-0.8135597,8.944371,3.8668015,3
19280033524971,-0.8279166,8.925228,3.9098723,3
19280035904086,-0.80877405,8.915657,3.9290147,3
19280038283253,-0.7848458,8.9108715,3.9338005,3
19280040662419,-0.74177504,8.9348,3.9242291,3
19280043041534,-0.7082755,8.953942,3.9146578,3
19280045420701,-0.6652047,8.953942,3.871587,3
19280047799867,-0.60777694,8.949157,3.8333018,3
19280050178982,-0.56470615,8.977871,3.804588,3
19280052558148,-0.53599226,8.992228,3.8141594,3
19280054937315,-0.51206404,9.001799,3.804588,3
19280057316430,-0.5024927,9.049655,3.8141594,3
19280059695596,-0.5072784,9.059227,3.7998023,3
19280062074763,-0.5455636,9.068798,3.7854455,3
19280064453878,-0.5886344,9.073584,3.7806597,3
19280066833044,-0.63170516,9.064013,3.7806597,3
19280069212159,-0.6939186,9.08794,3.790231,3
19280071591326,-0.7369894,9.102298,3.8285162,3
19280073970492,-0.7704889,9.111869,3.8811584,3
19280076349607,-0.8422736,9.12144,3.885944,3
19280078728773,-0.8805587,9.12144,3.8811584,3
19280081107940,-0.8997013,9.135797,3.8668015,3
19280083487055,-0.9379865,9.145369,3.8572302,3
19280085866221,-0.9236295,9.145369,3.8811584,3
19280088245388,-0.9284152,9.12144,3.8907297,3
19280090624503,-0.8805587,9.092726,3.9194436,3
19280093003669,-0.8135597,9.135797,3.9146578,3
19280095382836,-0.75613195,9.126225,3.9098723,3
19280097761951,-0.70348984,9.12144,3.9098723,3
19280100141117,-0.6029913,9.131011,3.8668015,3
19280102520232,-0.52163535,9.131011,3.8476589,3
19280104899398,-0.4546363,9.135797,3.8668015,3
19280107278565,-0.3493521,9.135797,3.8763726,3
19280109657680,-0.3062813,9.135797,3.8811584,3
19280112036846,-0.25842485,9.135797,3.8907297,3
19280114416013,-0.22492532,9.150154,3.8907297,3
19280116795128,-0.21535404,9.159725,3.885944,3
19280119174294,-0.19621146,9.140582,3.8763726,3
19280121553461,-0.2105684,9.159725,3.871587,3
19280123932576,-0.2105684,9.164511,3.8811584,3
19280126311742,-0.2727818,9.145369,3.8955152,3
19280128690909,-0.31106696,9.169296,3.9194436,3
19280131070023,-0.37806597,9.178867,3.9194436,3
19280133449190,-0.4354937,9.169296,3.9098723,3
19280135828305,-0.526421,9.145369,3.8763726,3
19280138207471,-0.56470615,9.15494,3.8620157,3
19280140586638,-0.63170516,9.145369,3.871587,3
19280142965753,-0.6843473,9.15494,3.8811584,3
19280145344919,-0.72741807,9.131011,3.900301,3
19280147724086,-0.75613195,9.131011,3.9146578,3
19280150103201,-0.75613195,9.126225,3.8955152,3
19280152482367,-0.7609176,9.102298,3.8668015,3
19280154861534,-0.7369894,9.08794,3.8380876,3
19280157240648,-0.71306115,9.068798,3.8333018,3
19280159619815,-0.6795616,9.0544405,3.8380876,3
19280161998982,-0.66041905,9.035298,3.8524444,3
19280164378096,-0.6221339,9.035298,3.8620157,3
19280166757263,-0.6029913,9.040084,3.871587,3
19280169136430,-0.5599205,9.044869,3.8763726,3
19280171515544,-0.5599205,9.040084,3.8572302,3
19280173894711,-0.5312066,9.020942,3.8524444,3
19280176273826,-0.526421,9.020942,3.8524444,3
19280178652940,-0.5455636,8.997013,3.8811584,3
19280181032159,-0.55034924,8.992228,3.885944,3
19280183411273,-0.57906306,8.987442,3.8955152,3
19280185790440,-0.60777694,8.987442,3.871587,3
19280188169607,-0.63170516,8.997013,3.8763726,3
19280190548721,-0.6891329,8.997013,3.8572302,3
19280192927888,-0.75613195,8.997013,3.842873,3
19280195307055,-0.8279166,8.997013,3.8285162,3
19280197686169,-0.89491564,9.016156,3.8333018,3
19280200065336,-0.9236295,9.030513,3.8141594,3
19280202444451,-0.9762716,9.025727,3.8093736,3
19280204823617,-1.0241281,9.020942,3.804588,3
19280207202784,-1.0241281,9.016156,3.790231,3
19280209581898,-1.0624132,9.025727,3.790231,3
19280211961065,-1.0671989,9.020942,3.7998023,3
19280214340232,-1.0815558,9.016156,3.818945,3
19280216719294,-1.0959128,9.001799,3.8333018,3
19280219098513,-1.0863415,9.016156,3.8285162,3
19280221477680,-1.0624132,9.01137,3.8285162,3
19280223856794,-1.0432707,9.001799,3.8380876,3
19280226235961,-1.0289137,8.997013,3.842873,3
19280228615076,-0.971486,9.020942,3.8811584,3
19280230994242,-0.9092726,8.997013,3.9194436,3
19280233373409,-0.8470592,8.973084,3.9290147,3
19280235752523,-0.8279166,9.006584,3.9290147,3
19280238131690,-0.7896315,8.997013,3.9577286,3
19280240510857,-0.72741807,8.968299,3.9481573,3
19280242889971,-0.66041905,8.968299,3.9625144,3
19280245269138,-0.61734825,8.987442,3.952943,3
19280247648305,-0.57427746,9.001799,3.9290147,3
19280250027419,-0.5168497,8.987442,3.9146578,3
19280252406586,-0.4833502,8.973084,3.9290147,3
19280254785753,-0.4642076,8.992228,3.938586,3
19280257164867,-0.4642076,8.9826565,3.9146578,3
19280259544034,-0.46899325,9.006584,3.871587,3
19280261923148,-0.47377887,9.016156,3.842873,3
19280264302315,-0.4977071,9.035298,3.818945,3
19280266681482,-0.52163535,9.025727,3.7854455,3
19280269060596,-0.5694918,9.049655,3.8141594,3
19280271439763,-0.60777694,9.073584,3.8237305,3
19280273818930,-0.6221339,9.059227,3.8093736,3
19280276198044,-0.6412765,9.08794,3.790231,3
19280278577211,-0.6652047,9.092726,3.7758741,3
19280280956378,-0.6556334,9.107083,3.7806597,3
19280283335492,-0.66999036,9.126225,3.7950168,3
19280285714659,-0.6987042,9.126225,3.8285162,3
19280288093773,-0.7322037,9.140582,3.8380876,3
19280290472940,-0.74177504,9.126225,3.8380876,3
19280292852107,-0.7322037,9.116654,3.8380876,3
19280295231221,-0.7178468,9.126225,3.8237305,3
19280297610388,-0.71306115,9.131011,3.8141594,3
19280299989555,-0.7178468,9.107083,3.804588,3
19280302368669,-0.70348984,9.111869,3.818945,3
19280304747836,-0.6795616,9.102298,3.8620157,3
19280307127003,-0.6891329,9.092726,3.8620157,3
19280309506117,-0.66999036,9.092726,3.8668015,3
19280311885284,-0.65084773,9.078369,3.8476589,3
19280314264398,-0.6652047,9.078369,3.8476589,3
19280316643565,-0.66999036,9.059227,3.8524444,3
19280319022732,-0.66999036,9.064013,3.871587,3
19280321401846,-0.6939186,9.073584,3.8955152,3
19280323781013,-0.7369894,9.078369,3.9146578,3
19280326160180,-0.74177504,9.08794,3.9050865,3
19280328539294,-0.7513463,9.059227,3.8907297,3
19280330918461,-0.76570326,9.08794,3.8620157,3
19280333297628,-0.80877405,9.12144,3.8476589,3
19280335676742,-0.83748794,9.12144,3.8524444,3
19280338055909,-0.8853444,9.12144,3.8620157,3
19280340434971,-0.8997013,9.140582,3.871587,3
19280342814190,-0.9379865,9.140582,3.8524444,3
19280345193357,-0.9762716,9.140582,3.8285162,3
19280347572471,-1.0097711,9.140582,3.8093736,3
19280349951586,-1.0241281,9.145369,3.8093736,3
19280352330805,-1.052842,9.135797,3.804588,3
19280354709919,-1.0671989,9.135797,3.818945,3
19280357089086,-1.0624132,9.12144,3.818945,3
19280359468253,-1.0624132,9.102298,3.818945,3
19280361847367,-1.052842,9.092726,3.8380876,3
19280364226534,-1.0097711,9.102298,3.842873,3
19280366605701,-0.9906286,9.08794,3.8476589,3
19280368984815,-0.9284152,9.08794,3.8524444,3
19280371363982,-0.8805587,9.073584,3.8763726,3
19280373743148,-0.8327023,9.068798,3.9146578,3
19280376122263,-0.7848458,9.040084,3.9098723,3
19280378501430,-0.7178468,9.025727,3.9242291,3
19280380880544,-0.65084773,9.016156,3.9194436,3
19280383259711,-0.5886344,9.01137,3.9146578,3
19280385638878,-0.5312066,9.01137,3.8763726,3
19280388017992,-0.47377887,9.006584,3.8907297,3
19280390397159,-0.41635114,9.01137,3.871587,3
19280392776273,-0.3924229,8.992228,3.8668015,3
19280395155440,-0.3589234,9.001799,3.8763726,3
19280397534607,-0.35413775,9.01137,3.842873,3
19280399913721,-0.36370903,9.025727,3.842873,3
19280402292888,-0.4019942,9.006584,3.8237305,3
19280404672055,-0.40677986,9.025727,3.8333018,3
19280407051169,-0.43070808,9.035298,3.8285162,3
19280409430336,-0.4546363,9.016156,3.8380876,3
19280411809503,-0.52163535,9.020942,3.842873,3
19280414188617,-0.57427746,9.025727,3.8333018,3
19280416567784,-0.59342,9.035298,3.818945,3
19280418946951,-0.6556334,9.049655,3.8237305,3
19280421326065,-0.6939186,9.049655,3.8333018,3
19280423705232,-0.7082755,9.068798,3.8476589,3
19280426084346,-0.72741807,9.068798,3.8524444,3
19280428463513,-0.7465607,9.068798,3.8668015,3
19280430842680,-0.76570326,9.059227,3.8668015,3
19280433221794,-0.7752745,9.059227,3.8668015,3
19280435600961,-0.7465607,9.083155,3.8620157,3
19280437980128,-0.7082755,9.078369,3.8572302,3
19280440359242,-0.6843473,9.064013,3.8668015,3
19280442738409,-0.65084773,9.073584,3.8763726,3
19280445117576,-0.63170516,9.116654,3.8763726,3
19280447496690,-0.5838487,9.116654,3.8668015,3
19280449875857,-0.57427746,9.131011,3.871587,3
19280452255023,-0.57906306,9.135797,3.8620157,3
19280454634138,-0.57427746,9.15494,3.8763726,3
19280457013305,-0.57427746,9.12144,3.8811584,3
19280459392419,-0.6029913,9.126225,3.8907297,3
19280461771586,-0.64606214,9.145369,3.8907297,3
19280464150753,-0.6652047,9.131011,3.900301,3
19280466529867,-0.67477596,9.131011,3.900301,3
19280468909034,-0.72263247,9.107083,3.9098723,3
19280471288201,-0.7752745,9.078369,3.9050865,3
19280473667315,-0.8279166,9.092726,3.8907297,3
19280476046482,-0.83748794,9.078369,3.9146578,3
19280478425544,-0.86141616,9.073584,3.9194436,3
19280480804763,-0.9092726,9.126225,3.9242291,3
19280483183930,-0.9284152,9.135797,3.900301,3
19280485563044,-0.9236295,9.12144,3.8955152,3
19280487942211,-0.9284152,9.135797,3.8955152,3
19280490321378,-0.9284152,9.12144,3.8811584,3
19280492700492,-0.89491564,9.15494,3.871587,3
19280495079659,-0.8662018,9.150154,3.8476589,3
19280497458826,-0.8470592,9.15494,3.8476589,3
19280499837940,-0.7896315,9.159725,3.8476589,3
19280502217107,-0.76570326,9.174082,3.8380876,3
19280504596273,-0.7465607,9.164511,3.818945,3
19280506975388,-0.71306115,9.164511,3.8141594,3
19280509354555,-0.6843473,9.159725,3.8333018,3
19280511733669,-0.6795616,9.135797,3.8333018,3
19280514112836,-0.6795616,9.107083,3.8333018,3
19280516492003,-0.65084773,9.126225,3.8333018,3
19280518871117,-0.65084773,9.107083,3.8333018,3
19280521250284,-0.63170516,9.092726,3.804588,3
19280523629451,-0.64606214,9.078369,3.804588,3
19280526008565,-0.65084773,9.068798,3.818945,3
19280528387732,-0.6412765,9.068798,3.8333018,3
19280530766846,-0.63170516,9.078369,3.8380876,3
19280533146013,-0.61734825,9.064013,3.8380876,3
19280535525180,-0.61734825,9.049655,3.8476589,3
19280537904294,-0.6269195,9.049655,3.8380876,3
19280540283461,-0.61734825,9.049655,3.8380876,3
19280542662628,-0.61734825,9.025727,3.804588,3
19280545041742,-0.5838487,9.035298,3.8093736,3
19280547420909,-0.5455636,9.025727,3.8141594,3
19280549800076,-0.5312066,9.020942,3.8141594,3
19280552179190,-0.5168497,9.040084,3.8093736,3
19280554558357,-0.51206404,9.035298,3.804588,3
19280556937471,-0.49292147,9.035298,3.790231,3
19280559316638,-0.5072784,9.016156,3.7998023,3
19280561695805,-0.52163535,8.997013,3.790231,3
19280564074919,-0.53599226,8.977871,3.804588,3
19280566454086,-0.57427746,8.973084,3.7950168,3
19280568833253,-0.61734825,8.973084,3.804588,3
19280571212367,-0.65084773,8.992228,3.804588,3
19280573591534,-0.6891329,8.9826565,3.818945,3
19280575970701,-0.7178468,8.987442,3.804588,3
19280578349815,-0.7465607,8.997013,3.8141594,3
19280580728982,-0.76570326,8.997013,3.8093736,3
19280583108096,-0.79920274,8.997013,3.8285162,3
19280585487263,-0.81834537,9.001799,3.8333018,3
19280587866430,-0.82313097,8.992228,3.8476589,3
19280590245544,-0.81834537,9.001799,3.8237305,3
19280592624711,-0.82313097,9.035298,3.8380876,3
19280595003878,-0.80877405,9.049655,3.842873,3
19280597382992,-0.79920274,9.064013,3.8380876,3
19280599762159,-0.7800602,9.064013,3.8620157,3
19280602141326,-0.7465607,9.0544405,3.871587,3
19280604520440,-0.72741807,9.059227,3.8811584,3
19280606899607,-0.70348984,9.049655,3.8907297,3
19280609278773,-0.6891329,9.044869,3.871587,3
19280611657888,-0.64606214,9.049655,3.8763726,3
19280614037055,-0.6221339,9.044869,3.8811584,3
19280616416169,-0.6221339,9.078369,3.8907297,3
19280618795336,-0.63170516,9.073584,3.8955152,3
19280621174503,-0.6364908,9.068798,3.8955152,3
19280623553617,-0.6364908,9.049655,3.8763726,3
19280625932784,-0.6652047,9.073584,3.8620157,3
19280628311898,-0.6891329,9.083155,3.8620157,3
19280630691065,-0.6987042,9.092726,3.8572302,3
19280633070232,-0.70348984,9.107083,3.8237305,3
19280635449346,-0.7322037,9.111869,3.8333018,3
19280637828513,-0.74177504,9.15494,3.842873,3
19280640207680,-0.75613195,9.174082,3.8333018,3
19280642586794,-0.7513463,9.126225,3.8333018,3
19280644965961,-0.7465607,9.135797,3.842873,3
19280647345128,-0.72263247,9.135797,3.842873,3
19280649724242,-0.6939186,9.150154,3.8572302,3
19280652103409,-0.66999036,9.135797,3.8668015,3
19280654482576,-0.6269195,9.131011,3.8524444,3
19280656861690,-0.55513483,9.126225,3.8620157,3
19280659240857,-0.4977071,9.131011,3.8668015,3
19280661619971,-0.45942193,9.145369,3.8572302,3
19280663999138,-0.41156548,9.102298,3.8620157,3
19280666378305,-0.37328035,9.102298,3.8668015,3
19280668757419,-0.3397808,9.102298,3.871587,3
19280671136586,-0.3062813,9.097511,3.8811584,3
19280673515753,-0.29671,9.126225,3.8811584,3
19280675894867,-0.29192436,9.116654,3.885944,3
19280678274034,-0.32063824,9.092726,3.8763726,3
19280680653201,-0.3493521,9.078369,3.8572302,3
19280683032315,-0.38763726,9.078369,3.8668015,3
19280685411482,-0.42592242,9.078369,3.8524444,3
19280687790596,-0.46899325,9.092726,3.8380876,3
19280690169763,-0.53599226,9.064013,3.842873,3
19280692548930,-0.5886344,9.068798,3.8524444,3
19280694928044,-0.6795616,9.064013,3.8572302,3
19280697307211,-0.71306115,9.073584,3.8763726,3
19280699686378,-0.7704889,9.078369,3.8620157,3
19280702065492,-0.8039884,9.068798,3.8811584,3
19280704444659,-0.8327023,9.064013,3.8811584,3
19280706823826,-0.8662018,9.059227,3.8620157,3
19280709202940,-0.89491564,9.040084,3.8668015,3
19280711582107,-0.8709874,9.025727,3.9050865,3
19280713961221,-0.8470592,9.035298,3.8907297,3
19280716340388,-0.82313097,9.030513,3.8907297,3
19280718719555,-0.79920274,9.01137,3.885944,3
19280721098669,-0.74177504,9.001799,3.8668015,3
19280723477836,-0.6987042,9.040084,3.885944,3
19280725857003,-0.65084773,9.044869,3.8572302,3
19280728236117,-0.5982057,9.0544405,3.8380876,3
19280730615284,-0.5694918,9.0544405,3.8285162,3
19280732994398,-0.5312066,9.064013,3.804588,3
19280735373565,-0.4977071,9.040084,3.790231,3
19280737752732,-0.47856453,9.0544405,3.7854455,3
19280740131846,-0.45942193,9.059227,3.7710886,3
19280742511013,-0.44506502,9.064013,3.7806597,3
19280744890180,-0.44027936,9.068798,3.7758741,3
19280747269294,-0.4354937,9.068798,3.790231,3
19280749648461,-0.43070808,9.068798,3.7854455,3
19280752027628,-0.44506502,9.064013,3.7998023,3
19280754406742,-0.46899325,9.078369,3.8285162,3
19280756785909,-0.4833502,9.078369,3.8380876,3
19280759165023,-0.4881358,9.083155,3.8620157,3
19280761544190,-0.5024927,9.078369,3.842873,3
19280763923357,-0.52163535,9.059227,3.8476589,3
19280766302471,-0.51206404,9.064013,3.8572302,3
19280768681638,-0.5312066,9.097511,3.871587,3
19280771060805,-0.5407779,9.092726,3.8572302,3
19280773439919,-0.56470615,9.083155,3.8380876,3
19280775819086,-0.57906306,9.078369,3.8524444,3
19280778198201,-0.57427746,9.078369,3.8524444,3
19280780577367,-0.6029913,9.08794,3.8572302,3
19280782956534,-0.6221339,9.097511,3.8668015,3
19280785335648,-0.6412765,9.12144,3.8524444,3
19280787714815,-0.64606214,9.116654,3.8572302,3
19280790093982,-0.6556334,9.102298,3.8524444,3
19280792473096,-0.67477596,9.097511,3.8380876,3
19280794852263,-0.70348984,9.111869,3.8620157,3
19280797231430,-0.6987042,9.102298,3.8620157,3
19280799610544,-0.6939186,9.111869,3.8380876,3
19280801989711,-0.6795616,9.083155,3.8572302,3
19280804368826,-0.66041905,9.092726,3.871587,3
19280806747992,-0.66041905,9.083155,3.9098723,3
19280809127159,-0.63170516,9.102298,3.9050865,3
19280811506273,-0.57427746,9.097511,3.885944,3
19280813885440,-0.53599226,9.083155,3.9098723,3
19280816264607,-0.5072784,9.059227,3.9146578,3
19280818643721,-0.4546363,9.073584,3.9194436,3
19280821022888,-0.41635114,9.083155,3.9194436,3
19280823402055,-0.38763726,9.092726,3.9050865,3
19280825781169,-0.3397808,9.107083,3.8955152,3
19280828160336,-0.3397808,9.08794,3.885944,3
19280830539451,-0.33020952,9.068798,3.8907297,3
19280832918617,-0.34456646,9.068798,3.8955152,3
19280835297784,-0.37806597,9.0544405,3.8811584,3
19280837676898,-0.38285163,9.0544405,3.8907297,3
19280840056065,-0.41635114,9.059227,3.8907297,3
19280842435232,-0.44985065,9.030513,3.871587,3
19280844814346,-0.4833502,9.044869,3.8668015,3
19280847193513,-0.53599226,9.0544405,3.8524444,3
19280849572680,-0.5694918,9.035298,3.8763726,3
19280851951794,-0.6029913,9.040084,3.8668015,3
19280854330961,-0.64606214,9.059227,3.885944,3
19280856710076,-0.6891329,9.0544405,3.8620157,3
19280859089242,-0.70348984,9.040084,3.871587,3
19280861468409,-0.70348984,9.049655,3.8524444,3
19280863847523,-0.72741807,9.040084,3.8572302,3
19280866226690,-0.7178468,9.044869,3.8620157,3
19280868605857,-0.71306115,9.044869,3.8524444,3
19280870984971,-0.6843473,9.0544405,3.8572302,3
19280873364138,-0.65084773,9.030513,3.842873,3
19280875743253,-0.6029913,9.030513,3.8141594,3
19280878122419,-0.5694918,9.016156,3.7615173,3
19280880501586,-0.5455636,9.049655,3.737589,3
19280882880701,-0.526421,9.049655,3.7280176,3
19280885259867,-0.5072784,8.997013,3.7088752,3
19280887639034,-0.4881358,9.001799,3.7136607,3
19280890018148,-0.5024927,9.016156,3.6993039,3
19280892397315,-0.4833502,9.035298,3.6897326,3
19280894776378,-0.47856453,9.035298,3.6753755,3
19280897155596,-0.5072784,9.044869,3.6849468,3
19280899534763,-0.53599226,9.068798,3.6993039,3
19280901913878,-0.55513483,9.083155,3.7280176,3
19280904293044,-0.5982057,9.083155,3.751946,3
19280906672211,-0.6125626,9.111869,3.7806597,3
19280909051326,-0.6364908,9.12144,3.8093736,3
19280911430492,-0.66999036,9.111869,3.8524444,3
19280913809659,-0.70348984,9.111869,3.885944,3
19280916188773,-0.7322037,9.131011,3.9098723,3
19280918567940,-0.74177504,9.102298,3.9625144,3
19280920947003,-0.71306115,9.12144,3.991228,3
19280923326221,-0.6987042,9.111869,4.024728,3
19280925705388,-0.6652047,9.08794,4.082155,3
19280928084503,-0.6364908,9.102298,4.101298,3
19280930463669,-0.5886344,9.092726,4.130012,3
19280932842836,-0.526421,9.083155,4.125226,3
19280935221898,-0.4642076,9.08794,4.130012,3
19280937601117,-0.41635114,9.073584,4.15394,3
19280939980284,-0.37806597,9.044869,4.130012,3
19280942359398,-0.34456646,9.044869,4.115655,3
19280944738565,-0.28713873,9.044869,4.0869412,3
19280947117680,-0.26799613,9.040084,4.058227,3
19280949496846,-0.23449662,9.016156,4.0151563,3
19280951876013,-0.22492532,9.006584,3.9768713,3
19280954255128,-0.21535404,9.01137,3.938586,3
19280956634294,-0.2009971,9.020942,3.885944,3
19280959013409,-0.22971097,9.006584,3.8572302,3
19280961392576,-0.2536392,9.006584,3.8093736,3
19280963771742,-0.28235307,9.01137,3.790231,3
19280966150857,-0.32063824,9.020942,3.7471602,3
19280968529971,-0.33499518,9.020942,3.7184465,3
19280970909190,-0.34456646,9.044869,3.6753755,3
19280973288305,-0.37328035,9.049655,3.6370904,3
19280975667471,-0.3924229,9.083155,3.6466618,3
19280978046638,-0.41635114,9.059227,3.6275191,3
19280980425753,-0.42592242,9.044869,3.6179478,3
19280982804867,-0.41156548,9.059227,3.6275191,3
19280985184086,-0.44027936,9.059227,3.6131623,3
19280987563201,-0.4833502,9.049655,3.603591,3
19280989942367,-0.46899325,9.025727,3.5988052,3
19280992321482,-0.5072784,9.059227,3.6323047,3
19280994700648,-0.526421,9.044869,3.6514473,3
19280997079815,-0.5407779,9.040084,3.694518,3
19280999458930,-0.57906306,9.020942,3.723232,3
19281001838096,-0.5982057,9.035298,3.7471602,3
19281004217263,-0.61734825,9.044869,3.7663028,3
19281006596378,-0.6795616,9.030513,3.818945,3
19281008975544,-0.7082755,9.040084,3.8333018,3
19281011354659,-0.7178468,9.044869,3.871587,3
19281013733826,-0.7369894,9.044869,3.9146578,3
19281016112992,-0.7848458,9.049655,3.9673,3
19281018492107,-0.7800602,9.044869,3.9960139,3
19281020871273,-0.76570326,9.073584,4.005585,3
19281023250388,-0.76570326,9.097511,4.0007997,3
19281025629555,-0.7322037,9.102298,4.005585,3
19281028008721,-0.6987042,9.107083,4.0103707,3
19281030387836,-0.6652047,9.092726,4.0151563,3
19281032767003,-0.64606214,9.083155,4.0151563,3
19281035146169,-0.63170516,9.08794,4.005585,3
19281037525284,-0.5982057,9.083155,3.991228,3
19281039904451,-0.5886344,9.064013,3.952943,3
19281042283617,-0.57906306,9.064013,3.938586,3
19281044662732,-0.57427746,9.083155,3.9098723,3
19281047041898,-0.5838487,9.111869,3.871587,3
19281049421065,-0.5694918,9.111869,3.8476589,3
19281051800180,-0.61734825,9.131011,3.8476589,3
19281054179346,-0.6364908,9.140582,3.842873,3
19281056558461,-0.6556334,9.164511,3.8524444,3
19281058937628,-0.6939186,9.183653,3.8141594,3
19281061316794,-0.7369894,9.183653,3.8093736,3
19281063695909,-0.72741807,9.202796,3.7998023,3
19281066075076,-0.72263247,9.2075815,3.7998023,3
19281068454242,-0.72741807,9.226724,3.790231,3
19281070833357,-0.7322037,9.260223,3.804588,3
19281073212523,-0.66999036,9.255438,3.790231,3
19281075591638,-0.6412765,9.260223,3.7998023,3
19281077970805,-0.59342,9.265009,3.8285162,3
19281080349971,-0.53599226,9.241081,3.8380876,3
19281082729086,-0.44027936,9.236296,3.8380876,3
19281085108253,-0.3397808,9.2075815,3.8620157,3
19281087487419,-0.26799613,9.178867,3.8572302,3
19281089866534,-0.19142582,9.15494,3.8668015,3
19281092245701,-0.1052842,9.140582,3.8668015,3
19281094624815,-0.047856454,9.107083,3.8572302,3
19281097003982,0.043070808,9.092726,3.8763726,3
19281099383148,0.086141616,9.140582,3.8955152,3
19281101762263,0.11006984,9.116654,3.9050865,3
19281104141430,0.11485548,9.12144,3.9098723,3
19281106520596,0.11485548,9.097511,3.9194436,3
19281108899711,0.11006984,9.078369,3.9338005,3
19281111278878,0.043070808,9.068798,3.9338005,3
19281113657992,-0.02871387,9.064013,3.9338005,3
19281116037159,-0.09092726,9.068798,3.9194436,3
19281118416326,-0.15792629,9.044869,3.8955152,3
19281120795440,-0.2440679,9.0544405,3.8763726,3
19281123174607,-0.33499518,9.044869,3.8380876,3
19281125553721,-0.41156548,9.025727,3.8093736,3
19281127932888,-0.46899325,9.025727,3.790231,3
19281130312055,-0.526421,9.030513,3.751946,3
19281132691169,-0.56470615,9.001799,3.7040894,3
19281135070336,-0.5886344,9.01137,3.6801612,3
19281137449503,-0.60777694,9.020942,3.67059,3
19281139828617,-0.63170516,9.035298,3.6514473,3
19281142207784,-0.6269195,9.030513,3.656233,3
19281144586951,-0.59342,9.025727,3.6658044,3
19281146966065,-0.56470615,9.044869,3.6897326,3
19281149345232,-0.5407779,9.049655,3.7136607,3
19281151724346,-0.5072784,9.044869,3.7280176,3
19281154103513,-0.46899325,9.064013,3.7615173,3
19281156482680,-0.47377887,9.073584,3.7950168,3
19281158861794,-0.4546363,9.049655,3.842873,3
19281161240961,-0.4354937,9.0544405,3.8572302,3
19281163620128,-0.4211368,9.059227,3.8955152,3
19281165999242,-0.41635114,9.025727,3.9146578,3
19281168378409,-0.41635114,9.01137,3.9098723,3
19281170757576,-0.40677986,9.006584,3.9098723,3
19281173136690,-0.45942193,9.001799,3.9194436,3
19281175515857,-0.4977071,9.020942,3.9146578,3
19281177894971,-0.52163535,9.016156,3.9194436,3
19281180274138,-0.55513483,9.016156,3.9433718,3
19281182653305,-0.5838487,9.016156,3.9433718,3
19281185032419,-0.57906306,9.040084,3.9290147,3
19281187411586,-0.5982057,9.044869,3.9194436,3
19281189790753,-0.65084773,9.064013,3.900301,3
19281192169867,-0.67477596,9.078369,3.8763726,3
19281194549034,-0.66999036,9.08794,3.871587,3
19281196928148,-0.66041905,9.102298,3.8141594,3
19281199307315,-0.6891329,9.135797,3.7854455,3
19281201686482,-0.71306115,9.174082,3.7567315,3
19281204065596,-0.7322037,9.174082,3.7471602,3
19281206444763,-0.72741807,9.164511,3.7328033,3
19281208823930,-0.7513463,9.159725,3.7423747,3
19281211203044,-0.7848458,9.159725,3.7423747,3
19281213582211,-0.8135597,9.159725,3.7615173,3
19281215961378,-0.80877405,9.15494,3.7615173,3
19281218340492,-0.83748794,9.131011,3.7806597,3
19281220719659,-0.8662018,9.12144,3.7854455,3
19281223098721,-0.89013004,9.111869,3.8237305,3
19281225477940,-0.8757731,9.126225,3.842873,3
19281227857107,-0.8805587,9.092726,3.8763726,3
19281230236221,-0.8662018,9.08794,3.9242291,3
19281232615388,-0.86141616,9.068798,3.9290147,3
19281234994555,-0.8135597,9.064013,3.900301,3
19281237373669,-0.7752745,9.073584,3.900301,3
19281239752836,-0.7369894,9.068798,3.9098723,3
19281242131951,-0.6939186,9.073584,3.9146578,3
19281244511117,-0.6364908,9.059227,3.9242291,3
19281246890284,-0.56470615,9.068798,3.9146578,3
19281249269398,-0.526421,9.083155,3.9098723,3
19281251648565,-0.47856453,9.059227,3.9290147,3
19281254027680,-0.4211368,9.049655,3.9338005,3
19281256406846,-0.40677986,9.049655,3.9242291,3
19281258786013,-0.39720857,9.049655,3.938586,3
19281261165128,-0.39720857,9.01137,3.9338005,3
19281263544294,-0.41156548,8.992228,3.900301,3
19281265923461,-0.4211368,8.987442,3.8763726,3
19281268302576,-0.44985065,8.992228,3.8524444,3
19281270681742,-0.5024927,8.987442,3.818945,3
19281273060857,-0.5407779,8.987442,3.7854455,3
19281275440023,-0.6125626,8.9826565,3.7854455,3
19281277819190,-0.6364908,9.016156,3.7758741,3
19281280198305,-0.6987042,9.020942,3.7663028,3
19281282577471,-0.7704889,9.030513,3.7710886,3
19281284956638,-0.80877405,9.025727,3.7663028,3
19281287335753,-0.83748794,9.040084,3.7758741,3
19281289714919,-0.86141616,9.049655,3.7710886,3
19281292094086,-0.8709874,9.068798,3.7854455,3
19281294473201,-0.8709874,9.073584,3.818945,3
19281296852367,-0.8470592,9.078369,3.8285162,3
19281299231482,-0.82313097,9.092726,3.871587,3
19281301610648,-0.81834537,9.102298,3.885944,3
19281303989815,-0.7800602,9.08794,3.9050865,3
19281306368930,-0.71306115,9.083155,3.9481573,3
19281308748096,-0.64606214,9.059227,3.9720855,3
19281311127263,-0.5982057,9.073584,3.9864426,3
19281313506378,-0.5455636,9.078369,4.0103707,3
19281315885544,-0.4977071,9.08794,4.019942,3
19281318264659,-0.45942193,9.097511,3.9864426,3
19281320643826,-0.43070808,9.08794,3.9673,3
19281323022992,-0.43070808,9.073584,3.952943,3
19281325402107,-0.45942193,9.083155,3.9098723,3
19281327781273,-0.4977071,9.097511,3.8907297,3
19281330160440,-0.5455636,9.12144,3.8572302,3
19281332539555,-0.6221339,9.131011,3.8380876,3
19281334918721,-0.6891329,9.140582,3.818945,3
19281337297836,-0.7704889,9.131011,3.804588,3
19281339677003,-0.8662018,9.145369,3.7998023,3
19281342056169,-0.9619147,9.169296,3.790231,3
19281344435284,-1.0193424,9.164511,3.7950168,3
19281346814451,-1.0719845,9.164511,3.804588,3
19281349193617,-1.1006985,9.145369,3.8093736,3
19281351572732,-1.134198,9.150154,3.8380876,3
19281353951898,-1.1150553,9.145369,3.8285162,3
19281356331013,-1.0911272,9.126225,3.8333018,3
19281358710180,-1.0432707,9.111869,3.8380876,3
19281361089346,-0.98584294,9.102298,3.8333018,3
19281363468461,-0.8805587,9.092726,3.8285162,3
19281365847628,-0.7848458,9.092726,3.8380876,3
19281368226794,-0.67477596,9.068798,3.8333018,3
19281370605909,-0.5694918,9.0544405,3.842873,3
19281372985076,-0.5024927,9.025727,3.8476589,3
19281375364190,-0.39720857,9.035298,3.8572302,3
19281377743357,-0.31585258,9.01137,3.8668015,3
19281380122523,-0.23928227,9.016156,3.8811584,3
19281382501638,-0.19142582,9.01137,3.9050865,3
19281384880805,-0.16749759,9.01137,3.9242291,3
19281387259971,-0.13878371,9.001799,3.9481573,3
19281389639086,-0.148355,9.016156,3.9433718,3
19281392018253,-0.16271193,9.006584,3.9433718,3
19281394397367,-0.2009971,8.9826565,3.9290147,3
19281396776534,-0.2536392,8.953942,3.900301,3
19281399155701,-0.32063824,8.953942,3.871587,3
19281401534815,-0.37806597,8.997013,3.8811584,3
19281403913982,-0.46899325,8.992228,3.8668015,3
19281406293148,-0.56470615,8.973084,3.8333018,3
19281408672263,-0.6412765,8.977871,3.818945,3
19281411051430,-0.7178468,8.977871,3.7663028,3
19281413430544,-0.7800602,8.992228,3.7758741,3
19281415809711,-0.80877405,8.968299,3.7471602,3
19281418188878,-0.8422736,8.9826565,3.7710886,3
19281420567992,-0.8709874,9.006584,3.7615173,3
19281422947159,-0.8662018,9.016156,3.7710886,3
19281425326326,-0.8709874,9.020942,3.790231,3
19281427705440,-0.82313097,9.049655,3.7998023,3
19281430084607,-0.79441714,9.0544405,3.818945,3
19281432463721,-0.75613195,9.049655,3.8380876,3
19281434842888,-0.70348984,9.044869,3.8380876,3
19281437222055,-0.6412765,9.049655,3.8524444,3
19281439601169,-0.59342,9.049655,3.8524444,3
19281441980336,-0.53599226,9.073584,3.8620157,3
19281444359503,-0.49292147,9.059227,3.8620157,3
19281446738617,-0.4642076,9.068798,3.8524444,3
19281449117784,-0.4354937,9.040084,3.8380876,3
19281451496898,-0.4211368,9.035298,3.8476589,3
19281453876065,-0.41635114,9.035298,3.842873,3
19281456255232,-0.42592242,9.020942,3.8763726,3
19281458634346,-0.44985065,9.001799,3.8907297,3
19281461013513,-0.44985065,9.001799,3.8955152,3
19281463392680,-0.51206404,9.01137,3.9194436,3
19281465771794,-0.5407779,9.020942,3.952943,3
19281468150961,-0.56470615,9.006584,3.9625144,3
19281470530076,-0.6221339,9.016156,3.9577286,3
19281472909242,-0.65084773,9.01137,3.9625144,3
19281475288409,-0.6843473,9.025727,3.9433718,3
19281477667523,-0.6939186,9.020942,3.9290147,3
19281480046690,-0.70348984,9.044869,3.8811584,3
19281482425857,-0.7178468,9.064013,3.8763726,3
19281484804971,-0.6987042,9.073584,3.8380876,3
19281487184138,-0.66999036,9.08794,3.8237305,3
19281489563253,-0.6364908,9.08794,3.8380876,3
19281491942419,-0.57906306,9.126225,3.8237305,3
19281494321586,-0.5455636,9.145369,3.818945,3
19281496700701,-0.52163535,9.145369,3.8285162,3
19281499079867,-0.47377887,9.169296,3.8285162,3
19281501459034,-0.44506502,9.188439,3.8285162,3
19281503838148,-0.41635114,9.212367,3.8572302,3
19281506217315,-0.3493521,9.212367,3.8811584,3
19281508596430,-0.31106696,9.202796,3.900301,3
19281510975596,-0.27756742,9.212367,3.9146578,3
19281513354711,-0.23928227,9.212367,3.9338005,3
19281515733878,-0.21535404,9.19801,3.9577286,3
19281518113044,-0.17228323,9.169296,3.9577286,3
19281520492159,-0.11006984,9.169296,3.9768713,3
19281522871326,-0.07178468,9.126225,3.9768713,3
19281525250492,-0.033499517,9.126225,3.952943,3
19281527629607,0.0,9.092726,3.9433718,3
19281530008773,0.009571291,9.092726,3.9098723,3
19281532387940,0.043070808,9.111869,3.8955152,3
19281534767055,0.043070808,9.107083,3.8907297,3
19281537146221,0.033499517,9.107083,3.885944,3
19281539525388,0.023928227,9.078369,3.8572302,3
19281541904503,0.0047856453,9.068798,3.818945,3
19281544283669,-0.02871387,9.068798,3.7854455,3
19281546662784,-0.062213387,9.073584,3.7854455,3
19281549041951,-0.11964113,9.073584,3.7423747,3
19281551421117,-0.17706887,9.078369,3.7280176,3
19281553800232,-0.20578274,9.08794,3.7040894,3
19281556179398,-0.2536392,9.102298,3.6849468,3
19281558558513,-0.29671,9.126225,3.6658044,3
19281560937680,-0.34456646,9.145369,3.6370904,3
19281563316846,-0.36370903,9.159725,3.6370904,3
19281565695961,-0.38285163,9.183653,3.656233,3
19281568075128,-0.38763726,9.183653,3.656233,3
19281570454294,-0.43070808,9.164511,3.67059,3
19281572833409,-0.44985065,9.150154,3.6753755,3
19281575212576,-0.43070808,9.126225,3.7040894,3
19281577591742,-0.40677986,9.135797,3.7280176,3
19281579970857,-0.41635114,9.140582,3.7615173,3
19281582350023,-0.41635114,9.107083,3.818945,3
19281584729138,-0.40677986,9.078369,3.8620157,3
19281587108305,-0.3684947,9.064013,3.900301,3
19281589487471,-0.37328035,9.059227,3.938586,3
19281591866586,-0.36370903,9.0544405,3.9433718,3
19281594245753,-0.33499518,9.040084,3.9625144,3
19281596624867,-0.3397808,9.020942,3.9960139,3
19281599004034,-0.35413775,9.044869,4.019942,3
19281601383201,-0.33499518,9.025727,4.0390844,3
19281603762315,-0.33499518,9.030513,4.063013,3
19281606141482,-0.3397808,9.044869,4.072584,3
19281608520648,-0.36370903,9.092726,4.072584,3
19281610899763,-0.38285163,9.107083,4.0773697,3
19281613278930,-0.43070808,9.08794,4.0965123,3
19281615658096,-0.4546363,9.097511,4.0965123,3
19281618037211,-0.47377887,9.092726,4.0869412,3
19281620416378,-0.51206404,9.102298,4.0534415,3
19281622795492,-0.5312066,9.116654,4.034299,3
19281625174659,-0.59342,9.12144,3.9816568,3
19281627553826,-0.60777694,9.126225,3.938586,3
19281629932940,-0.61734825,9.135797,3.9050865,3
19281632312107,-0.6125626,9.15494,3.885944,3
19281634691221,-0.65084773,9.140582,3.8811584,3
19281637070336,-0.67477596,9.126225,3.8668015,3
19281639449555,-0.6891329,9.150154,3.8285162,3
19281641828669,-0.66041905,9.145369,3.7950168,3
19281644207836,-0.6556334,9.159725,3.790231,3
19281646586951,-0.66999036,9.150154,3.7567315,3
19281648966117,-0.64606214,9.15494,3.7471602,3
19281651345284,-0.60777694,9.159725,3.7615173,3
19281653724398,-0.59342,9.178867,3.7710886,3
19281656103565,-0.5694918,9.174082,3.751946,3
19281658482732,-0.526421,9.178867,3.7663028,3
19281660861846,-0.52163535,9.145369,3.7854455,3
19281663241013,-0.4642076,9.150154,3.7806597,3
19281665620128,-0.42592242,9.159725,3.7854455,3
19281667999294,-0.4019942,9.15494,3.804588,3
19281670378461,-0.37806597,9.15494,3.818945,3
19281672757576,-0.3684947,9.150154,3.8141594,3
19281675136742,-0.3493521,9.116654,3.7950168,3
19281677515909,-0.31106696,9.116654,3.7854455,3
19281679895023,-0.33020952,9.102298,3.7950168,3
19281682274190,-0.3062813,9.078369,3.8093736,3
19281684653305,-0.31106696,9.083155,3.804588,3
19281687032471,-0.34456646,9.068798,3.7950168,3
19281689411638,-0.34456646,9.025727,3.7998023,3
19281691790753,-0.39720857,9.01137,3.7950168,3
19281694169919,-0.3924229,9.016156,3.7950168,3
19281696549034,-0.41156548,9.025727,3.7806597,3
19281698928201,-0.44027936,8.987442,3.7567315,3
19281701307367,-0.4881358,9.001799,3.7710886,3
19281703686482,-0.49292147,8.997013,3.790231,3
19281706065648,-0.4881358,9.001799,3.7854455,3
19281708444815,-0.52163535,8.992228,3.7950168,3
19281710823930,-0.526421,8.9826565,3.7998023,3
19281713203096,-0.526421,9.006584,3.7998023,3
19281715582263,-0.4881358,8.997013,3.790231,3
19281717961378,-0.47377887,9.001799,3.7950168,3
19281720340544,-0.4642076,9.016156,3.790231,3
19281722719659,-0.40677986,9.040084,3.804588,3
19281725098826,-0.34456646,9.0544405,3.7998023,3
19281727477992,-0.31585258,9.044869,3.8093736,3
19281729857107,-0.2727818,9.059227,3.818945,3
19281732236273,-0.2440679,9.068798,3.8380876,3
19281734615440,-0.22013968,9.078369,3.842873,3
19281736994555,-0.19142582,9.078369,3.8476589,3
19281739373721,-0.18664017,9.08794,3.8572302,3
19281741752836,-0.18664017,9.092726,3.8572302,3
19281744132003,-0.19142582,9.083155,3.8668015,3
19281746511117,-0.22492532,9.073584,3.871587,3
19281748890284,-0.25842485,9.073584,3.8668015,3
19281751269451,-0.29671,9.073584,3.871587,3
19281753648565,-0.32542387,9.08794,3.9098723,3
19281756027680,-0.38285163,9.059227,3.9146578,3
19281758406898,-0.42592242,9.044869,3.938586,3
19281760786013,-0.44506502,9.0544405,3.952943,3
19281763165180,-0.4881358,9.097511,3.9481573,3
19281765544294,-0.5312066,9.059227,3.9625144,3
19281767923461,-0.5312066,9.083155,3.9481573,3
19281770302628,-0.526421,9.116654,3.952943,3
19281772681742,-0.51206404,9.102298,3.9242291,3
19281775060909,-0.52163535,9.116654,3.900301,3
19281777440076,-0.51206404,9.111869,3.9050865,3
19281779819190,-0.5072784,9.12144,3.8811584,3
19281782198357,-0.5168497,9.135797,3.871587,3
19281784577471,-0.4833502,9.135797,3.8668015,3
19281786956638,-0.44506502,9.145369,3.8524444,3
19281789335805,-0.41635114,9.15494,3.8572302,3
19281791714919,-0.4354937,9.140582,3.8476589,3
19281794094086,-0.41156548,9.12144,3.8333018,3
19281796473253,-0.37328035,9.145369,3.8093736,3
19281798852367,-0.37328035,9.150154,3.804588,3
19281801231534,-0.35413775,9.131011,3.8285162,3
19281803610648,-0.3493521,9.126225,3.8237305,3
19281805989763,-0.33499518,9.102298,3.8141594,3
19281808368982,-0.3397808,9.08794,3.818945,3
19281810748096,-0.3397808,9.111869,3.8141594,3
19281813127263,-0.31585258,9.102298,3.8093736,3
19281815506430,-0.32063824,9.078369,3.790231,3
19281817885544,-0.31585258,9.102298,3.7854455,3
19281820264711,-0.27756742,9.068798,3.7615173,3
19281822643826,-0.25842485,9.064013,3.737589,3
19281825022992,-0.22013968,9.073584,3.737589,3
19281827402159,-0.19621146,9.08794,3.751946,3
19281829781273,-0.16749759,9.064013,3.7471602,3
19281832160440,-0.18185452,9.0544405,3.7280176,3
19281834539555,-0.18664017,9.0544405,3.7280176,3
19281836918721,-0.19142582,9.064013,3.7136607,3
19281839297888,-0.2009971,9.08794,3.723232,3
19281841677003,-0.22492532,9.059227,3.737589,3
19281844056169,-0.22971097,9.049655,3.751946,3
19281846435336,-0.26799613,9.044869,3.7567315,3
19281848814451,-0.30149564,9.064013,3.7950168,3
19281851193617,-0.33020952,9.064013,3.8380876,3
19281853572732,-0.3684947,9.0544405,3.8524444,3
19281855951898,-0.4211368,9.040084,3.871587,3
19281858331065,-0.4546363,9.059227,3.885944,3
19281860710180,-0.45942193,9.049655,3.9050865,3
19281863089346,-0.47856453,9.044869,3.9481573,3
19281865468513,-0.4977071,9.073584,3.9481573,3
19281867847628,-0.49292147,9.068798,3.9481573,3
19281870226794,-0.52163535,9.049655,3.952943,3
19281872605909,-0.5024927,9.020942,3.9625144,3
19281874985076,-0.4977071,9.030513,3.9577286,3
19281877364242,-0.49292147,9.025727,3.952943,3
19281879743357,-0.46899325,9.035298,3.9577286,3
19281882122523,-0.44506502,9.049655,3.9816568,3
19281884501638,-0.4354937,9.064013,3.9673,3
19281886880805,-0.4642076,9.0544405,3.9577286,3
19281889259971,-0.45942193,9.049655,3.9481573,3
19281891639086,-0.4546363,9.040084,3.9290147,3
19281894018253,-0.47377887,9.035298,3.9338005,3
19281896397419,-0.4881358,9.073584,3.9481573,3
19281898776534,-0.5168497,9.064013,3.938586,3
19281901155701,-0.56470615,9.068798,3.9433718,3
19281903534815,-0.5982057,9.064013,3.938586,3
19281905913982,-0.6412765,9.073584,3.938586,3
19281908293148,-0.6795616,9.083155,3.9433718,3
19281910672263,-0.7322037,9.092726,3.9146578,3
19281913051430,-0.7704889,9.140582,3.8955152,3
19281915430544,-0.79441714,9.116654,3.885944,3
19281917809711,-0.82313097,9.116654,3.871587,3
19281920188878,-0.8566305,9.131011,3.8620157,3
19281922567992,-0.8757731,9.145369,3.8380876,3
19281924947159,-0.8757731,9.145369,3.8141594,3
19281927326326,-0.8662018,9.145369,3.804588,3
19281929705440,-0.86141616,9.140582,3.804588,3
19281932084607,-0.8662018,9.140582,3.7950168,3
19281934463721,-0.82313097,9.145369,3.8093736,3
19281936842888,-0.7896315,9.126225,3.804588,3
19281939222055,-0.75613195,9.116654,3.790231,3
19281941601169,-0.6843473,9.116654,3.7758741,3
19281943980336,-0.63170516,9.107083,3.7710886,3
19281946359503,-0.55513483,9.102298,3.7663028,3
19281948738617,-0.5024927,9.08794,3.7854455,3
19281951117784,-0.44506502,9.064013,3.790231,3
19281953496898,-0.37328035,9.059227,3.804588,3
19281955876065,-0.31585258,9.025727,3.7758741,3
19281958255232,-0.26799613,9.035298,3.7615173,3
19281960634346,-0.22492532,9.020942,3.7423747,3
19281963013513,-0.18185452,9.025727,3.6993039,3
19281965392628,-0.17706887,9.001799,3.7088752,3
19281967771794,-0.15314065,8.987442,3.737589,3
19281970150961,-0.16749759,8.9826565,3.790231,3
19281972530076,-0.16271193,8.9826565,3.8237305,3
19281974909242,-0.18185452,8.973084,3.8380876,3
19281977288409,-0.22013968,8.987442,3.8524444,3
19281979667523,-0.2440679,8.997013,3.8572302,3
19281982046690,-0.28235307,8.977871,3.8763726,3
19281984425805,-0.32063824,8.9826565,3.9050865,3
19281986804971,-0.38285163,9.001799,3.9290147,3
19281989184086,-0.4354937,8.9826565,3.9433718,3
19281991563253,-0.4833502,8.987442,3.952943,3
19281993942419,-0.52163535,8.973084,3.9433718,3
19281996321534,-0.5599205,8.987442,3.9433718,3
19281998700701,-0.60777694,8.987442,3.9290147,3
19282001079815,-0.65084773,8.992228,3.9146578,3
19282003458930,-0.6843473,8.973084,3.9242291,3
19282005838148,-0.72263247,8.977871,3.9194436,3
19282008217263,-0.7465607,8.977871,3.9194436,3
19282010596430,-0.74177504,8.968299,3.9194436,3
19282012975596,-0.7369894,8.953942,3.9290147,3
19282015354659,-0.76570326,8.968299,3.9242291,3
19282017733878,-0.7752745,9.001799,3.938586,3
19282020113044,-0.79441714,9.020942,3.9290147,3
19282022492159,-0.7848458,9.059227,3.9673,3
19282024871326,-0.7848458,9.08794,3.9673,3
19282027250492,-0.79920274,9.092726,3.938586,3
19282029629607,-0.7609176,9.078369,3.9338005,3
19282032008773,-0.7178468,9.116654,3.9146578,3
19282034387888,-0.6843473,9.15494,3.8668015,3
19282036767055,-0.6891329,9.145369,3.8524444,3
19282039146221,-0.65084773,9.150154,3.8237305,3
19282041525336,-0.6221339,9.140582,3.804588,3
19282043904503,-0.60777694,9.15494,3.7758741,3
19282046283617,-0.63170516,9.107083,3.7567315,3
19282048662784,-0.63170516,9.116654,3.7471602,3
19282051041951,-0.6269195,9.126225,3.737589,3
19282053421065,-0.64606214,9.12144,3.7088752,3
19282055800232,-0.6652047,9.107083,3.694518,3
19282058179346,-0.66041905,9.12144,3.7040894,3
19282060558513,-0.6891329,9.135797,3.7088752,3
19282062937680,-0.6939186,9.145369,3.7280176,3
19282065316794,-0.6939186,9.145369,3.7663028,3
19282067695961,-0.6987042,9.169296,3.7950168,3
19282070075128,-0.6556334,9.169296,3.8285162,3
19282072454242,-0.61734825,9.169296,3.842873,3
19282074833409,-0.5982057,9.193225,3.8668015,3
19282077212523,-0.52163535,9.183653,3.8955152,3
19282079591690,-0.44506502,9.169296,3.9098723,3
19282081970857,-0.36370903,9.159725,3.9338005,3
19282084349971,-0.28235307,9.164511,3.9577286,3
19282086729138,-0.20578274,9.126225,3.9625144,3
19282089108253,-0.11964113,9.116654,3.9768713,3
19282091487419,-0.043070808,9.097511,3.9864426,3
19282093866586,0.014356935,9.083155,3.9816568,3
19282096245701,0.033499517,9.064013,3.9768713,3
19282098624867,0.043070808,9.064013,3.9673,3
19282101004034,0.06699903,9.025727,3.991228,3
19282103383148,0.038285162,9.020942,3.9960139,3
19282105762315,0.0047856453,9.01137,3.9864426,3
19282108141430,-0.033499517,9.006584,3.9864426,3
19282110520596,-0.11485548,8.992228,4.0007997,3
19282112899763,-0.18664017,9.020942,4.005585,3
19282115278878,-0.2727818,9.025727,4.0007997,3
19282117658044,-0.36370903,9.020942,3.9864426,3
19282120037211,-0.4546363,8.992228,3.938586,3
19282122416326,-0.5407779,9.001799,3.8763726,3
19282124795492,-0.6221339,9.006584,3.8141594,3
19282127174607,-0.6891329,8.997013,3.7471602,3
19282129553773,-0.7082755,9.025727,3.6897326,3
19282131932940,-0.7800602,9.020942,3.656233,3
19282134312055,-0.81834537,9.0544405,3.6323047,3
19282136691221,-0.80877405,9.073584,3.5892339,3
19282139070336,-0.80877405,9.078369,3.5844483,3
19282141449503,-0.80877405,9.049655,3.603591,3
19282143828669,-0.79441714,9.073584,3.6227336,3
19282146207784,-0.7896315,9.092726,3.603591,3
19282148586951,-0.7704889,9.107083,3.6227336,3
19282150966065,-0.7513463,9.111869,3.6466618,3
19282153345180,-0.7178468,9.116654,3.7088752,3
19282155724398,-0.72263247,9.078369,3.7567315,3
19282158103513,-0.6795616,9.068798,3.790231,3
19282160482680,-0.6652047,9.073584,3.8285162,3
19282162861846,-0.6652047,9.073584,3.8572302,3
19282165240961,-0.63170516,9.030513,3.900301,3
19282167620128,-0.59342,9.025727,3.9242291,3
19282169999242,-0.55513483,9.020942,3.9625144,3
19282172378409,-0.5168497,9.001799,3.9816568,3
19282174757576,-0.4881358,9.006584,4.024728,3
19282177136690,-0.44027936,8.992228,4.0390844,3
19282179515857,-0.38285163,9.006584,4.0438704,3
19282181894971,-0.37328035,9.025727,4.034299,3
19282184274138,-0.37328035,9.025727,4.058227,3
19282186653253,-0.35413775,9.068798,4.0534415,3
19282189032419,-0.3589234,9.092726,4.0390844,3
19282191411586,-0.3684947,9.111869,4.0438704,3
19282193790753,-0.3684947,9.126225,4.0151563,3
19282196169867,-0.38763726,9.131011,3.9816568,3
19282198548982,-0.41635114,9.159725,3.9625144,3
19282200928148,-0.4642076,9.212367,3.9338005,3
19282203307315,-0.4977071,9.2075815,3.9338005,3
19282205686482,-0.52163535,9.2075815,3.9338005,3
19282208065596,-0.56470615,9.221938,3.9338005,3
19282210444763,-0.59342,9.23151,3.9242291,3
19282212823878,-0.63170516,9.241081,3.9194436,3
19282215203044,-0.64606214,9.250652,3.9146578,3
19282217582211,-0.65084773,9.226724,3.9146578,3
19282219961326,-0.6939186,9.226724,3.9146578,3
19282222340492,-0.6939186,9.2075815,3.9050865,3
19282224719607,-0.6987042,9.193225,3.8955152,3
19282227098773,-0.6987042,9.174082,3.8811584,3
19282229477940,-0.6652047,9.15494,3.8572302,3
19282231857055,-0.6269195,9.135797,3.842873,3
19282234236221,-0.5838487,9.135797,3.8237305,3
19282236615388,-0.55034924,9.102298,3.818945,3
19282238994503,-0.51206404,9.059227,3.8093736,3
19282241373669,-0.4833502,9.035298,3.7950168,3
19282243752784,-0.44027936,9.030513,3.737589,3
19282246131951,-0.42592242,9.025727,3.6801612,3
19282248511117,-0.43070808,9.025727,3.6323047,3
19282250890232,-0.44985065,9.030513,3.5892339,3
19282253269398,-0.4546363,9.035298,3.5940197,3
19282255648565,-0.52163535,9.040084,3.6131623,3
19282258027680,-0.5407779,9.064013,3.641876,3
19282260406846,-0.5982057,9.030513,3.6801612,3
19282262785961,-0.64606214,9.040084,3.6897326,3
19282265165128,-0.6891329,9.040084,3.7040894,3
19282267544294,-0.7322037,9.030513,3.7471602,3
19282269923409,-0.7704889,9.040084,3.8141594,3
19282272302576,-0.79920274,9.040084,3.885944,3
19282274681690,-0.83748794,9.016156,3.9290147,3
19282277060857,-0.8566305,9.016156,3.9673,3
19282279440023,-0.8279166,8.997013,4.0103707,3
19282281819138,-0.7848458,9.016156,4.005585,3
19282284198305,-0.72741807,9.01137,4.0103707,3
19282286577419,-0.66999036,8.987442,4.0390844,3
19282288956586,-0.60777694,8.973084,4.0390844,3
19282291335753,-0.5599205,8.963513,4.0534415,3
19282293714867,-0.5024927,8.973084,4.0390844,3
19282296094034,-0.44985065,8.973084,4.024728,3
19282298473148,-0.41156548,8.987442,3.9720855,3
19282300852315,-0.36370903,9.01137,3.9768713,3
19282303231482,-0.31106696,9.025727,3.9673,3
19282305610596,-0.27756742,9.049655,3.9768713,3
19282307989763,-0.30149564,9.059227,3.9864426,3
19282310368930,-0.3397808,9.0544405,4.005585,3
19282312748044,-0.35413775,9.073584,3.991228,3
19282315127211,-0.37806597,9.083155,3.9481573,3
19282317506326,-0.42592242,9.068798,3.9242291,3
19282319885492,-0.46899325,9.083155,3.9098723,3
19282322264659,-0.5168497,9.102298,3.9050865,3
19282324643773,-0.5694918,9.107083,3.900301,3
19282327022940,-0.59342,9.107083,3.8907297,3
19282329402055,-0.6125626,9.092726,3.8811584,3
19282331781169,-0.66999036,9.145369,3.8620157,3
19282334160388,-0.6987042,9.135797,3.842873,3
19282336539503,-0.6939186,9.150154,3.8285162,3
19282338918669,-0.6939186,9.135797,3.790231,3
19282341297836,-0.6891329,9.15494,3.7806597,3
19282343676951,-0.7082755,9.169296,3.7663028,3
19282346056117,-0.67477596,9.178867,3.7328033,3
19282348435232,-0.66041905,9.169296,3.723232,3
19282350814398,-0.6412765,9.169296,3.7088752,3
19282353193513,-0.5982057,9.178867,3.6897326,3
19282355572680,-0.5599205,9.169296,3.6801612,3
19282357951846,-0.55034924,9.145369,3.656233,3
19282360330961,-0.5024927,9.15494,3.6466618,3
19282362710128,-0.44027936,9.159725,3.6897326,3
19282365089294,-0.39720857,9.164511,3.6897326,3
19282367468409,-0.36370903,9.159725,3.7136607,3
19282369847576,-0.31585258,9.12144,3.737589,3
19282372226690,-0.2632105,9.111869,3.7663028,3
19282374605857,-0.22492532,9.102298,3.7758741,3
19282376985023,-0.14356937,9.073584,3.7710886,3
19282379364138,-0.09092726,9.049655,3.7950168,3
19282381743305,-0.047856454,9.025727,3.8093736,3
19282384122419,-0.0047856453,9.01137,3.818945,3
19282386501586,0.0,9.001799,3.8141594,3
19282388880753,0.038285162,9.016156,3.8093736,3
19282391259867,0.0526421,9.01137,3.8141594,3
19282393639034,0.043070808,9.001799,3.8093736,3
19282396018201,0.047856454,9.006584,3.8093736,3
19282398397315,0.033499517,9.020942,3.818945,3
19282400776482,0.009571291,9.049655,3.8380876,3
19282403155596,-0.043070808,9.0544405,3.842873,3
19282405534763,-0.10049855,9.08794,3.8620157,3
19282407913930,-0.16271193,9.083155,3.8668015,3
19282410293044,-0.21535404,9.073584,3.8668015,3
19282412672211,-0.28713873,9.08794,3.8955152,3
19282415051326,-0.3493521,9.08794,3.885944,3
19282417430492,-0.42592242,9.078369,3.9098723,3
19282419809659,-0.4642076,9.083155,3.9290147,3
19282422188773,-0.4977071,9.08794,3.9338005,3
19282424567940,-0.55034924,9.064013,3.9577286,3
19282426947055,-0.5694918,9.059227,3.9673,3
19282429326221,-0.5599205,9.035298,3.9577286,3
19282431705388,-0.5886344,9.030513,3.938586,3
19282434084503,-0.57427746,9.049655,3.8955152,3
19282436463669,-0.5455636,9.01137,3.8955152,3
19282438842784,-0.51206404,9.006584,3.8955152,3
19282441221951,-0.4977071,9.016156,3.8955152,3
19282443601065,-0.49292147,9.001799,3.8811584,3
19282445980232,-0.4354937,9.006584,3.8763726,3
19282448359398,-0.4019942,9.030513,3.8620157,3
19282450738565,-0.37806597,9.040084,3.818945,3
19282453117680,-0.4019942,9.040084,3.804588,3
19282455496846,-0.4019942,9.030513,3.804588,3
19282457875961,-0.40677986,9.049655,3.8333018,3
19282460255128,-0.4546363,9.073584,3.8524444,3
19282462634294,-0.46899325,9.078369,3.8476589,3
19282465013409,-0.5072784,9.102298,3.8524444,3
19282467392576,-0.5455636,9.111869,3.8620157,3
19282469771690,-0.6029913,9.102298,3.8668015,3
19282472150857,-0.64606214,9.116654,3.8524444,3
19282474530023,-0.67477596,9.135797,3.8763726,3
19282476909138,-0.7322037,9.140582,3.8620157,3
19282479288305,-0.79920274,9.150154,3.8524444,3
19282481667419,-0.8327023,9.140582,3.842873,3
19282484046534,-0.8757731,9.174082,3.8380876,3
19282486425753,-0.8805587,9.183653,3.8141594,3
19282488804867,-0.8709874,9.183653,3.8093736,3
19282491184034,-0.86141616,9.174082,3.7950168,3
19282493563201,-0.8327023,9.164511,3.7950168,3
19282495942315,-0.7752745,9.164511,3.790231,3
19282498321482,-0.7369894,9.169296,3.7758741,3
19282500700596,-0.6891329,9.164511,3.7854455,3
19282503079763,-0.61734825,9.15494,3.7806597,3
19282505458930,-0.55513483,9.131011,3.7758741,3
19282507838044,-0.47377887,9.131011,3.7710886,3
19282510217211,-0.38763726,9.12144,3.7710886,3
19282512596326,-0.3062813,9.107083,3.7615173,3
19282514975492,-0.2632105,9.08794,3.7854455,3
19282517354659,-0.18664017,9.059227,3.7854455,3
19282519733773,-0.13878371,9.078369,3.7854455,3
19282522112940,-0.13399807,9.068798,3.7663028,3
19282524492055,-0.13399807,9.073584,3.7806597,3
19282526871221,-0.15792629,9.030513,3.7998023,3
19282529250388,-0.19621146,9.040084,3.818945,3
19282531629503,-0.23928227,9.049655,3.8237305,3
19282534008669,-0.28713873,9.059227,3.842873,3
19282536387784,-0.38763726,9.068798,3.8907297,3
19282538766951,-0.47377887,9.064013,3.9242291,3
19282541146117,-0.5599205,9.083155,3.9338005,3
19282543525232,-0.65084773,9.092726,3.9673,3
19282545904398,-0.7369894,9.092726,3.9577286,3
19282548283513,-0.8039884,9.092726,3.9673,3
19282550662680,-0.8566305,9.0544405,3.9577286,3
19282553041846,-0.93320084,9.0544405,3.952943,3
19282555420961,-0.9667004,9.064013,3.938586,3
19282557800128,-0.9379865,9.040084,3.952943,3
19282560179242,-0.93320084,9.030513,3.9481573,3
19282562558409,-0.8853444,9.059227,3.952943,3
19282564937576,-0.8470592,9.035298,3.9433718,3
19282567316690,-0.7848458,9.025727,3.9290147,3
19282569695857,-0.6939186,9.006584,3.9050865,3
19282572075023,-0.60777694,9.016156,3.9050865,3
19282574454138,-0.4977071,9.030513,3.9098723,3
19282576833305,-0.4211368,9.020942,3.9050865,3
19282579212419,-0.32542387,9.035298,3.9098723,3
19282581591586,-0.23449662,9.025727,3.900301,3
19282583970753,-0.19142582,9.016156,3.900301,3
19282586349867,-0.16749759,9.016156,3.8763726,3
19282588729034,-0.15792629,9.016156,3.8620157,3
19282591108148,-0.11964113,9.01137,3.871587,3
19282593487315,-0.13878371,9.01137,3.8763726,3
19282595866482,-0.16271193,9.025727,3.8763726,3
19282598245596,-0.23928227,9.01137,3.8763726,3
19282600624763,-0.31585258,9.016156,3.885944,3
19282603003878,-0.41635114,9.016156,3.8763726,3
19282605383044,-0.52163535,9.040084,3.885944,3
19282607762211,-0.60777694,9.068798,3.8955152,3
19282610141326,-0.71306115,9.068798,3.900301,3
19282612520492,-0.8039884,9.078369,3.9098723,3
19282614899607,-0.89491564,9.097511,3.9146578,3
19282617278773,-0.95712906,9.126225,3.9050865,3
19282619657940,-1.0097711,9.116654,3.9146578,3
19282622037055,-1.0480564,9.131011,3.9050865,3
19282624416221,-1.0863415,9.15494,3.885944,3
19282626795336,-1.119841,9.140582,3.8811584,3
19282629174503,-1.0671989,9.135797,3.8572302,3
19282631553669,-1.038485,9.135797,3.842873,3
19282633932784,-0.9667004,9.126225,3.8524444,3
19282636311951,-0.89013004,9.135797,3.8380876,3
19282638691065,-0.8135597,9.116654,3.8237305,3
19282641070232,-0.7082755,9.102298,3.790231,3
19282643449398,-0.6029913,9.116654,3.7758741,3
19282645828513,-0.4881358,9.107083,3.7854455,3
19282648207680,-0.39720857,9.097511,3.7615173,3
19282650586794,-0.30149564,9.097511,3.7423747,3
19282652965961,-0.22013968,9.073584,3.7280176,3
19282655345128,-0.17228323,9.078369,3.7184465,3
19282657724242,-0.11485548,9.064013,3.67059,3
19282660103409,-0.11006984,9.068798,3.6610186,3
19282662482576,-0.124426775,9.0544405,3.6658044,3
19282664861690,-0.148355,9.049655,3.6801612,3
19282667240857,-0.19142582,9.049655,3.6897326,3
19282669619971,-0.23928227,9.049655,3.7088752,3
19282671999138,-0.33020952,9.044869,3.7136607,3
19282674378253,-0.38763726,9.035298,3.7280176,3
19282676757419,-0.4642076,9.025727,3.7615173,3
19282679136586,-0.5407779,9.030513,3.7998023,3
19282681515701,-0.6029913,9.016156,3.8237305,3
19282683894867,-0.6939186,9.020942,3.8620157,3
19282686274034,-0.7369894,9.025727,3.8907297,3
19282688653148,-0.7752745,9.020942,3.9050865,3
19282691032315,-0.79441714,9.025727,3.900301,3
19282693411430,-0.7896315,9.006584,3.9050865,3
19282695790596,-0.7752745,9.006584,3.9290147,3
19282698169763,-0.7609176,9.025727,3.9625144,3
19282700548878,-0.6891329,9.006584,3.9768713,3
19282702928044,-0.6029913,9.016156,3.9768713,3
19282705307159,-0.52163535,9.049655,3.9720855,3
19282707686326,-0.44506502,9.068798,3.9481573,3
19282710065492,-0.3589234,9.035298,3.952943,3
19282712444607,-0.29671,9.059227,3.9433718,3
19282714823773,-0.19621146,9.064013,3.952943,3
19282717202888,-0.13878371,9.049655,3.991228,3
19282719582055,-0.11006984,9.068798,3.991228,3
19282721961169,-0.076570325,9.107083,3.9960139,3
19282724340284,-0.033499517,9.092726,3.9625144,3
19282726719503,-0.02871387,9.097511,3.9433718,3
19282729098617,-0.023928227,9.107083,3.9338005,3
19282731477784,-0.07178468,9.107083,3.9146578,3
19282733856951,-0.086141616,9.092726,3.8811584,3
19282736236065,-0.09571291,9.08794,3.8668015,3
19282738615232,-0.124426775,9.073584,3.842873,3
19282740994398,-0.16749759,9.064013,3.8285162,3
19282743373513,-0.17706887,9.068798,3.7998023,3
19282745752680,-0.19621146,9.068798,3.8141594,3
19282748131794,-0.2009971,9.092726,3.804588,3
19282750510961,-0.2009971,9.083155,3.8141594,3
19282752890128,-0.20578274,9.116654,3.8141594,3
19282755269242,-0.18664017,9.135797,3.790231,3
19282757648409,-0.20578274,9.145369,3.8237305,3
19282760027523,-0.19621146,9.159725,3.8524444,3
19282762406690,-0.20578274,9.164511,3.885944,3
19282764785805,-0.18185452,9.183653,3.900301,3
19282767164971,-0.17228323,9.164511,3.9194436,3
19282769544138,-0.17706887,9.164511,3.9098723,3
19282771923253,-0.17228323,9.164511,3.9242291,3
19282774302419,-0.148355,9.193225,3.9242291,3
19282776681586,-0.148355,9.140582,3.9098723,3
19282779060701,-0.16271193,9.135797,3.9194436,3
19282781439867,-0.15314065,9.111869,3.938586,3
19282783818982,-0.148355,9.097511,3.938586,3
19282786198148,-0.13878371,9.097511,3.9146578,3
19282788577315,-0.13878371,9.097511,3.9194436,3
19282790956430,-0.12921242,9.111869,3.8907297,3
19282793335596,-0.124426775,9.08794,3.8811584,3
19282795714711,-0.11964113,9.073584,3.8668015,3
19282798093878,-0.09571291,9.078369,3.8668015,3
19282800473044,-0.10049855,9.083155,3.8572302,3
19282802852159,-0.07178468,9.083155,3.842873,3
19282805231326,-0.08135597,9.083155,3.8141594,3
19282807610440,-0.08135597,9.068798,3.7854455,3
19282809989607,-0.086141616,9.064013,3.7758741,3
19282812368773,-0.086141616,9.083155,3.7806597,3
19282814747888,-0.11485548,9.083155,3.7567315,3
19282817127055,-0.124426775,9.08794,3.7328033,3
19282819506169,-0.13878371,9.068798,3.7328033,3
19282821885336,-0.14356937,9.078369,3.7280176,3
19282824264503,-0.15792629,9.078369,3.7423747,3
19282826643617,-0.21535404,9.092726,3.7471602,3
19282829022784,-0.2536392,9.083155,3.7471602,3
19282831401898,-0.2727818,9.064013,3.7567315,3
19282833781065,-0.28235307,9.068798,3.7758741,3
19282836160180,-0.33499518,9.073584,3.7758741,3
19282838539346,-0.3684947,9.073584,3.7950168,3
19282840918513,-0.36370903,9.092726,3.8237305,3
19282843297628,-0.37806597,9.083155,3.8285162,3
19282845676794,-0.37806597,9.111869,3.8285162,3
19282848055961,-0.37328035,9.116654,3.8668015,3
19282850435076,-0.38285163,9.116654,3.871587,3
19282852814242,-0.37806597,9.111869,3.8907297,3
19282855193357,-0.3924229,9.12144,3.9050865,3
19282857572523,-0.38285163,9.126225,3.900301,3
19282859951690,-0.40677986,9.12144,3.9050865,3
19282862330805,-0.4354937,9.097511,3.900301,3
19282864709971,-0.44985065,9.097511,3.9050865,3
19282867089086,-0.45942193,9.08794,3.9146578,3
19282869468253,-0.5072784,9.059227,3.9338005,3
19282871847419,-0.5694918,9.064013,3.9433718,3
19282874226534,-0.6125626,9.073584,3.9290147,3
19282876605648,-0.65084773,9.049655,3.900301,3
19282878984815,-0.71306115,9.059227,3.885944,3
19282881363982,-0.75613195,9.035298,3.9050865,3
19282883743148,-0.81834537,9.0544405,3.8907297,3
19282886122263,-0.83748794,9.0544405,3.871587,3
19282888501430,-0.8853444,9.068798,3.8763726,3
19282890880544,-0.91884387,9.08794,3.871587,3
19282893259711,-0.93320084,9.107083,3.8476589,3
19282895638878,-0.94277215,9.135797,3.818945,3
19282898017992,-0.9762716,9.150154,3.818945,3
19282900397159,-1.0001999,9.15494,3.7950168,3
19282902776273,-0.9954142,9.15494,3.7806597,3
19282905155440,-0.971486,9.174082,3.7663028,3
19282907534607,-0.9284152,9.145369,3.7710886,3
19282909913721,-0.90448695,9.107083,3.7567315,3
19282912292888,-0.8566305,9.131011,3.7710886,3
19282914672003,-0.79920274,9.145369,3.7758741,3
19282917051169,-0.76570326,9.140582,3.7615173,3
19282919430336,-0.74177504,9.140582,3.7758741,3
19282921809398,-0.7465607,9.140582,3.790231,3
19282924188617,-0.6795616,9.131011,3.8093736,3
19282926567680,-0.6412765,9.12144,3.818945,3
19282928946898,-0.60777694,9.107083,3.818945,3
19282931326065,-0.5694918,9.097511,3.8380876,3
19282933705180,-0.56470615,9.083155,3.8476589,3
19282936084346,-0.526421,9.078369,3.8620157,3
19282938463513,-0.51206404,9.083155,3.8572302,3
19282940842628,-0.49292147,9.068798,3.8811584,3
19282943221794,-0.47856453,9.049655,3.8763726,3
19282945600909,-0.4881358,9.040084,3.8811584,3
19282947980076,-0.4881358,9.035298,3.871587,3
19282950359190,-0.46899325,9.030513,3.8668015,3
19282952738357,-0.45942193,9.044869,3.871587,3
19282955117523,-0.47377887,9.049655,3.8476589,3
19282957496638,-0.49292147,9.035298,3.8524444,3
19282959875805,-0.4881358,9.030513,3.8380876,3
19282962254919,-0.4833502,9.025727,3.8333018,3
19282964634086,-0.49292147,9.035298,3.8285162,3
19282967013253,-0.5407779,9.040084,3.8285162,3
19282969392367,-0.55513483,9.044869,3.8237305,3
19282971771534,-0.5886344,9.030513,3.8285162,3
19282974150648,-0.63170516,9.035298,3.8237305,3
19282976529815,-0.6652047,9.025727,3.8333018,3
19282978908982,-0.6843473,9.035298,3.8380876,3
19282981288096,-0.7369894,9.044869,3.8620157,3
19282983667263,-0.7609176,9.040084,3.871587,3
19282986046378,-0.80877405,9.035298,3.842873,3
19282988425544,-0.81834537,9.035298,3.8476589,3
19282990804711,-0.83748794,9.035298,3.8668015,3
19282993183826,-0.85184485,9.035298,3.8763726,3
19282995562992,-0.81834537,9.044869,3.871587,3
19282997942107,-0.8039884,9.044869,3.8763726,3
19283000321273,-0.7704889,9.0544405,3.8763726,3
19283002700440,-0.7322037,9.059227,3.8572302,3
19283005079555,-0.6795616,9.083155,3.8524444,3
19283007458721,-0.67477596,9.097511,3.885944,3
19283009837836,-0.6364908,9.078369,3.9098723,3
19283012217003,-0.5982057,9.068798,3.9290147,3
19283014596169,-0.5455636,9.059227,3.9673,3
19283016975284,-0.4977071,9.078369,3.9816568,3
19283019354451,-0.4881358,9.078369,3.9816568,3
19283021733565,-0.46899325,9.092726,3.9864426,3
19283024112732,-0.4642076,9.083155,3.9816568,3
19283026491898,-0.45942193,9.08794,3.9720855,3
19283028871013,-0.4977071,9.078369,3.9625144,3
19283031250180,-0.5455636,9.097511,3.9577286,3
19283033629294,-0.5694918,9.08794,3.938586,3
19283036008461,-0.60777694,9.097511,3.9050865,3
19283038387628,-0.6221339,9.135797,3.871587,3
19283040766742,-0.67477596,9.12144,3.8476589,3
19283043145909,-0.7082755,9.131011,3.8476589,3
19283045525023,-0.7513463,9.126225,3.842873,3
19283047904190,-0.7752745,9.164511,3.8380876,3
19283050283357,-0.7848458,9.178867,3.8285162,3
19283052662471,-0.8135597,9.15494,3.8476589,3
19283055041638,-0.83748794,9.164511,3.8285162,3
19283057420805,-0.8279166,9.164511,3.8380876,3
19283059799919,-0.80877405,9.150154,3.8333018,3
19283062179086,-0.7704889,9.150154,3.8333018,3
19283064558201,-0.7322037,9.135797,3.8380876,3
19283066937315,-0.7082755,9.116654,3.8237305,3
19283069316482,-0.66041905,9.131011,3.8141594,3
19283071695648,-0.6221339,9.116654,3.8333018,3
19283074074815,-0.57906306,9.097511,3.8380876,3
19283076453930,-0.5168497,9.083155,3.8285162,3
19283078833096,-0.47377887,9.073584,3.818945,3
19283081212211,-0.4546363,9.059227,3.7998023,3
19283083591378,-0.4354937,9.030513,3.804588,3
19283085970544,-0.4211368,9.016156,3.7663028,3
19283088349659,-0.4211368,9.01137,3.7758741,3
19283090728826,-0.42592242,9.006584,3.7710886,3
19283093107940,-0.45942193,9.01137,3.7854455,3
19283095487107,-0.5072784,8.997013,3.7998023,3
19283097866273,-0.5455636,8.987442,3.8237305,3
19283100245388,-0.56470615,9.016156,3.8333018,3
19283102624555,-0.61734825,9.044869,3.842873,3
