t_ns,ax,ay,az,accuracy
31150608180755,0.023928227,9.030513,3.6370904,3
31150610559609,-0.33020952,9.092726,3.6897326,3
31150612938463,-0.59342,9.131011,3.7998023,3
31150615317318,-0.9092726,9.073584,3.885944,3
31150617696172,-1.1964114,9.08794,3.885944,3
31150620075026,-1.402194,9.15494,3.8763726,3
31150622453828,-1.5553347,9.140582,3.8093736,3
31150624832682,-1.6941184,9.111869,3.7710886,3
31150627211536,-1.7371893,9.145369,3.7950168,3
31150629590391,-1.6845472,9.131011,3.8811584,3
31150631969245,-1.5840486,9.064013,3.9242291,3
31150634348099,-1.4213367,9.078369,3.9481573,3
31150636726953,-1.2107682,9.08794,3.885944,3
31150639105807,-0.9619147,9.064013,3.8141594,3
31150641484609,-0.70348984,9.073584,3.7471602,3
31150643863463,-0.40677986,9.102298,3.7663028,3
31150646242318,-0.15792629,9.073584,3.8237305,3
31150648621172,0.02871387,9.044869,3.8380876,3
31150651000026,0.19142582,9.025727,3.8476589,3
31150653378880,0.3397808,9.049655,3.8285162,3
31150655757682,0.37806597,9.059227,3.790231,3
31150658136588,0.37806597,9.064013,3.737589,3
31150660515391,0.28235307,9.073584,3.7423747,3
31150662894245,0.14356937,9.059227,3.7806597,3
31150665273099,-0.043070808,9.049655,3.8380876,3
31150667651953,-0.25842485,9.068798,3.8333018,3
31150670030807,-0.47377887,9.097511,3.7998023,3
31150672409661,-0.72263247,9.092726,3.7758741,3
31150674788516,-0.9092726,9.126225,3.751946,3
31150677167370,-1.1150553,9.126225,3.7615173,3
31150679546224,-1.268196,9.107083,3.804588,3
31150681925026,-1.3830515,9.08794,3.842873,3
31150684303880,-1.4404793,9.116654,3.8285162,3
31150686682734,-1.4739788,9.111869,3.790231,3
31150689061588,-1.4261223,9.092726,3.7567315,3
31150691440443,-1.3399807,9.097511,3.7567315,3
31150693819297,-1.2107682,9.102298,3.7567315,3
31150696198151,-1.0432707,9.092726,3.7710886,3
31150698577005,-0.8757731,9.0544405,3.8093736,3
31150700955807,-0.6987042,9.049655,3.7950168,3
31150703334661,-0.5024927,9.044869,3.7663028,3
31150705713516,-0.32542387,9.064013,3.7280176,3
31150708092370,-0.17706887,9.064013,3.7040894,3
31150710471172,-0.06699903,9.0544405,3.7280176,3
31150712850078,0.023928227,9.025727,3.737589,3
31150715228932,0.023928227,9.040084,3.7328033,3
31150717607786,0.0047856453,9.0544405,3.7471602,3
31150719986588,-0.07178468,9.059227,3.7423747,3
31150722365443,-0.2009971,9.064013,3.7280176,3
31150724744297,-0.3397808,9.073584,3.7328033,3
31150727123151,-0.526421,9.073584,3.723232,3
31150729502005,-0.6939186,9.08794,3.737589,3
31150731880859,-0.86141616,9.073584,3.7471602,3
31150734259713,-1.0145568,9.092726,3.7663028,3
31150736638568,-1.1485549,9.092726,3.790231,3
31150739017370,-1.2442678,9.107083,3.7998023,3
31150741396224,-1.3351951,9.12144,3.790231,3
31150743775078,-1.3543376,9.116654,3.7854455,3
31150746153932,-1.3160524,9.12144,3.7950168,3
31150748532786,-1.2969099,9.131011,3.818945,3
31150750911588,-1.2299109,9.107083,3.8285162,3
31150753290495,-1.105484,9.083155,3.8620157,3
31150755669297,-0.9236295,9.083155,3.8668015,3
31150758048151,-0.81834537,9.0544405,3.8668015,3
31150760427005,-0.67477596,9.064013,3.8668015,3
31150762805859,-0.53599226,9.068798,3.8572302,3
31150765184713,-0.41635114,9.0544405,3.8572302,3
31150767563568,-0.33020952,9.0544405,3.8380876,3
31150769942422,-0.27756742,9.049655,3.8333018,3
31150772321276,-0.27756742,9.044869,3.8141594,3
31150774700130,-0.25842485,9.049655,3.8285162,3
31150777078932,-0.31585258,9.025727,3.8333018,3
31150779457786,-0.3924229,9.0544405,3.8237305,3
31150781836641,-0.51206404,9.064013,3.8285162,3
31150784215495,-0.6125626,9.064013,3.8237305,3
31150786594349,-0.7465607,9.059227,3.8237305,3
31150788973203,-0.86141616,9.059227,3.8237305,3
31150791352057,-0.95712906,9.078369,3.818945,3
31150793730911,-1.0432707,9.068798,3.8285162,3
31150796109713,-1.1102697,9.078369,3.8141594,3
31150798488568,-1.1485549,9.078369,3.804588,3
31150800867422,-1.1533405,9.08794,3.7854455,3
31150803246276,-1.1102697,9.097511,3.7950168,3
31150805625130,-1.0767702,9.107083,3.7806597,3
31150808003984,-1.0289137,9.102298,3.7854455,3
31150810382838,-0.9667004,9.092726,3.7758741,3
31150812761641,-0.8805587,9.083155,3.7758741,3
31150815140495,-0.7848458,9.08794,3.7663028,3
31150817519349,-0.6939186,9.097511,3.7663028,3
31150819898203,-0.6221339,9.083155,3.7663028,3
31150822277057,-0.56470615,9.097511,3.7663028,3
31150824655911,-0.5168497,9.092726,3.7758741,3
31150827034766,-0.4833502,9.092726,3.7663028,3
31150829413620,-0.4833502,9.097511,3.7710886,3
31150831792474,-0.5312066,9.102298,3.7806597,3
31150834171276,-0.56470615,9.131011,3.7854455,3
31150836550130,-0.6412765,9.111869,3.7950168,3
31150838928984,-0.72741807,9.107083,3.7854455,3
31150841307838,-0.79920274,9.102298,3.7854455,3
31150843686693,-0.8566305,9.116654,3.790231,3
31150846065547,-0.9379865,9.107083,3.8141594,3
31150848444401,-1.0193424,9.126225,3.790231,3
31150850823255,-1.038485,9.116654,3.790231,3
31150853202057,-1.0671989,9.131011,3.7998023,3
31150855580911,-1.0863415,9.126225,3.7950168,3
31150857959766,-1.0719845,9.092726,3.804588,3
31150860338620,-1.0480564,9.092726,3.804588,3
31150862717474,-0.9954142,9.078369,3.7998023,3
31150865096328,-0.9284152,9.0544405,3.804588,3
31150867475182,-0.8566305,9.0544405,3.7854455,3
31150869853984,-0.80877405,9.078369,3.7998023,3
31150872232838,-0.7369894,9.040084,3.8093736,3
31150874611693,-0.6795616,9.030513,3.8237305,3
31150876990547,-0.6125626,9.044869,3.7998023,3
31150879369401,-0.55513483,9.059227,3.7950168,3
31150881748255,-0.5312066,9.059227,3.7758741,3
31150884127109,-0.5168497,9.0544405,3.7950168,3
31150886505963,-0.51206404,9.044869,3.8093736,3
31150888884818,-0.53599226,9.044869,3.8285162,3
31150891263620,-0.5694918,9.0544405,3.8141594,3
31150893642474,-0.6029913,9.102298,3.7998023,3
31150896021328,-0.6364908,9.107083,3.7998023,3
31150898400182,-0.6891329,9.107083,3.7758741,3
31150900779036,-0.7322037,9.111869,3.790231,3
31150903157891,-0.7800602,9.111869,3.804588,3
31150905536745,-0.83748794,9.111869,3.8093736,3
31150907915547,-0.8805587,9.08794,3.8141594,3
31150910294401,-0.8997013,9.116654,3.818945,3
31150912673255,-0.91884387,9.12144,3.8093736,3
31150915052109,-0.9236295,9.12144,3.7950168,3
31150917430963,-0.91884387,9.12144,3.7854455,3
31150919809818,-0.8805587,9.102298,3.804588,3
31150922188672,-0.8327023,9.102298,3.804588,3
31150924567526,-0.79441714,9.102298,3.8141594,3
31150926946328,-0.7609176,9.08794,3.790231,3
31150929325182,-0.71306115,9.073584,3.7854455,3
31150931704036,-0.6652047,9.068798,3.7710886,3
31150934082891,-0.64606214,9.059227,3.7854455,3
31150936461745,-0.6221339,9.073584,3.7854455,3
31150938840599,-0.6125626,9.08794,3.7806597,3
31150941219453,-0.5838487,9.073584,3.7758741,3
31150943598307,-0.5694918,9.092726,3.7615173,3
31150945977109,-0.5982057,9.078369,3.7854455,3
31150948355963,-0.61734825,9.044869,3.7806597,3
31150950734818,-0.6364908,9.064013,3.7758741,3
31150953113672,-0.6939186,9.083155,3.7567315,3
31150955492526,-0.7178468,9.097511,3.7710886,3
31150957871380,-0.74177504,9.092726,3.751946,3
31150960250234,-0.7800602,9.097511,3.7567315,3
31150962629088,-0.7896315,9.102298,3.7806597,3
31150965007943,-0.82313097,9.083155,3.7998023,3
31150967386745,-0.8757731,9.083155,3.8141594,3
31150969765599,-0.8662018,9.107083,3.790231,3
31150972144453,-0.8805587,9.116654,3.7854455,3
31150974523307,-0.8757731,9.107083,3.7710886,3
31150976902161,-0.85184485,9.140582,3.790231,3
31150979281016,-0.8039884,9.140582,3.7998023,3
31150981659870,-0.7752745,9.111869,3.804588,3
31150984038724,-0.72263247,9.12144,3.8141594,3
31150986417526,-0.6891329,9.111869,3.8093736,3
31150988796380,-0.67477596,9.102298,3.790231,3
31150991175234,-0.60777694,9.097511,3.7854455,3
31150993554088,-0.6125626,9.078369,3.7615173,3
31150995932943,-0.6125626,9.078369,3.7854455,3
31150998311797,-0.57906306,9.068798,3.7998023,3
31151000690651,-0.5694918,9.068798,3.8093736,3
31151003069505,-0.57427746,9.073584,3.8093736,3
31151005448307,-0.56470615,9.0544405,3.7950168,3
31151007827161,-0.5694918,9.068798,3.7710886,3
31151010205963,-0.5982057,9.078369,3.7854455,3
31151012584870,-0.5982057,9.073584,3.7950168,3
31151014963724,-0.66041905,9.059227,3.790231,3
31151017342578,-0.66041905,9.049655,3.7998023,3
31151019721328,-0.6891329,9.059227,3.8237305,3
31151022100234,-0.70348984,9.064013,3.804588,3
31151024479088,-0.70348984,9.083155,3.8093736,3
31151026857943,-0.71306115,9.08794,3.7998023,3
31151029236797,-0.6987042,9.083155,3.7854455,3
31151031615651,-0.6843473,9.097511,3.7998023,3
31151033994505,-0.66041905,9.092726,3.8141594,3
31151036373359,-0.6412765,9.097511,3.804588,3
31151038752213,-0.6125626,9.102298,3.8093736,3
31151041131016,-0.57427746,9.097511,3.7950168,3
31151043509870,-0.55513483,9.102298,3.7854455,3
31151045888724,-0.5168497,9.092726,3.790231,3
31151048267578,-0.5072784,9.073584,3.7854455,3
31151050646432,-0.5024927,9.097511,3.7710886,3
31151053025286,-0.47377887,9.097511,3.7710886,3
31151055404141,-0.46899325,9.102298,3.7710886,3
31151057782995,-0.46899325,9.111869,3.7615173,3
31151060161797,-0.4642076,9.078369,3.751946,3
31151062540651,-0.47856453,9.083155,3.7663028,3
31151064919505,-0.4881358,9.078369,3.7806597,3
31151067298359,-0.4881358,9.064013,3.7950168,3
31151069677213,-0.5024927,9.064013,3.7806597,3
31151072056068,-0.4977071,9.078369,3.7806597,3
31151074434922,-0.5312066,9.064013,3.7710886,3
31151076813724,-0.5599205,9.064013,3.7663028,3
31151079192578,-0.5599205,9.073584,3.7710886,3
31151081571432,-0.57906306,9.073584,3.7710886,3
31151083950286,-0.5838487,9.073584,3.7806597,3
31151086329141,-0.60777694,9.078369,3.7710886,3
31151088707995,-0.6125626,9.078369,3.7758741,3
31151091086849,-0.6221339,9.083155,3.7854455,3
31151093465703,-0.6029913,9.068798,3.790231,3
31151095844505,-0.6029913,9.083155,3.7806597,3
31151098223359,-0.5886344,9.078369,3.7710886,3
31151100602213,-0.5599205,9.102298,3.751946,3
31151102981068,-0.5455636,9.102298,3.7615173,3
31151105359922,-0.5168497,9.092726,3.7950168,3
31151107738776,-0.5024927,9.078369,3.790231,3
31151110117630,-0.5024927,9.092726,3.7998023,3
31151112496484,-0.4881358,9.111869,3.804588,3
31151114875286,-0.49292147,9.107083,3.7950168,3
31151117254141,-0.4833502,9.102298,3.7758741,3
31151119632995,-0.49292147,9.111869,3.7758741,3
31151122011849,-0.526421,9.116654,3.804588,3
31151124390703,-0.56470615,9.111869,3.804588,3
31151126769557,-0.59342,9.107083,3.804588,3
31151129148411,-0.6029913,9.111869,3.8141594,3
31151131527266,-0.6412765,9.092726,3.818945,3
31151133906068,-0.65084773,9.08794,3.8093736,3
31151136284922,-0.66999036,9.092726,3.7998023,3
31151138663776,-0.6795616,9.092726,3.7950168,3
31151141042630,-0.7082755,9.092726,3.7854455,3
31151143421484,-0.71306115,9.107083,3.8141594,3
31151145800338,-0.7178468,9.083155,3.8237305,3
31151148179193,-0.71306115,9.078369,3.8285162,3
31151150558047,-0.6843473,9.083155,3.8333018,3
31151152936849,-0.65084773,9.064013,3.8237305,3
31151155315703,-0.6412765,9.08794,3.804588,3
31151157694557,-0.6029913,9.092726,3.8093736,3
31151160073411,-0.5694918,9.073584,3.8141594,3
31151162452266,-0.55034924,9.049655,3.8476589,3
31151164831120,-0.52163535,9.064013,3.8476589,3
31151167209974,-0.5168497,9.078369,3.8093736,3
31151169588828,-0.5168497,9.102298,3.804588,3
31151171967630,-0.5168497,9.092726,3.790231,3
31151174346484,-0.49292147,9.064013,3.7950168,3
31151176725338,-0.5455636,9.068798,3.7998023,3
31151179104193,-0.57906306,9.083155,3.8285162,3
31151181483047,-0.56470615,9.064013,3.804588,3
31151183861901,-0.59342,9.092726,3.818945,3
31151186240755,-0.6556334,9.044869,3.7615173,3
31151188619609,-0.67477596,9.049655,3.7950168,3
31151190998411,-0.6412765,9.078369,3.804588,3
31151193377266,-0.6987042,9.08794,3.8333018,3
31151195756120,-0.7609176,9.044869,3.8524444,3
31151198134974,-0.71306115,9.0544405,3.8141594,3
31151200513828,-0.7178468,9.083155,3.790231,3
31151202892682,-0.7465607,9.08794,3.7998023,3
31151205271536,-0.7800602,9.08794,3.7950168,3
31151207650286,-0.7178468,9.078369,3.7758741,3
31151210029193,-0.66999036,9.097511,3.7758741,3
31151212408047,-0.7082755,9.073584,3.7806597,3
31151214786901,-0.71306115,9.068798,3.7806597,3
31151217165755,-0.6795616,9.097511,3.7710886,3
31151219544609,-0.6652047,9.126225,3.7710886,3
31151221923411,-0.64606214,9.102298,3.7710886,3
31151224302318,-0.63170516,9.107083,3.790231,3
31151226681172,-0.6125626,9.140582,3.7854455,3
31151229059974,-0.60777694,9.126225,3.7758741,3
31151231438828,-0.66041905,9.097511,3.7950168,3
31151233817682,-0.6556334,9.097511,3.7854455,3
31151236196536,-0.6556334,9.111869,3.7615173,3
31151238575391,-0.6652047,9.107083,3.7328033,3
31151240954245,-0.7082755,9.102298,3.7423747,3
31151243333099,-0.7369894,9.078369,3.7663028,3
31151245711901,-0.75613195,9.068798,3.7854455,3
31151248090755,-0.76570326,9.073584,3.7710886,3
31151250469609,-0.80877405,9.059227,3.7758741,3
31151252848463,-0.79920274,9.044869,3.7663028,3
31151255227318,-0.79441714,9.0544405,3.7615173,3
31151257606120,-0.8279166,9.049655,3.751946,3
31151259985026,-0.8422736,9.040084,3.7854455,3
31151262363880,-0.81834537,9.073584,3.790231,3
31151264742682,-0.80877405,9.092726,3.7854455,3
31151267121536,-0.82313097,9.068798,3.790231,3
31151269500391,-0.8327023,9.059227,3.7806597,3
31151271879245,-0.8135597,9.083155,3.7806597,3
31151274258099,-0.79920274,9.092726,3.7806597,3
31151276636953,-0.8279166,9.08794,3.790231,3
31151279015807,-0.8327023,9.083155,3.8093736,3
31151281394661,-0.8327023,9.092726,3.818945,3
31151283773463,-0.83748794,9.102298,3.8285162,3
31151286152318,-0.85184485,9.092726,3.8237305,3
31151288531172,-0.8327023,9.073584,3.7950168,3
31151290910026,-0.8327023,9.107083,3.7806597,3
31151293288828,-0.8135597,9.116654,3.8093736,3
31151295667734,-0.82313097,9.08794,3.818945,3
31151298046588,-0.82313097,9.078369,3.8380876,3
31151300425391,-0.7896315,9.107083,3.818945,3
31151302804245,-0.8039884,9.111869,3.804588,3
31151305183099,-0.8039884,9.083155,3.7806597,3
31151307561953,-0.79441714,9.078369,3.7615173,3
31151309940807,-0.7848458,9.073584,3.790231,3
31151312319661,-0.79920274,9.059227,3.8285162,3
31151314698516,-0.80877405,9.068798,3.8333018,3
31151317077370,-0.8135597,9.078369,3.8141594,3
31151319456172,-0.79441714,9.097511,3.7950168,3
31151321835026,-0.8279166,9.078369,3.7663028,3
31151324213880,-0.83748794,9.0544405,3.7806597,3
31151326592734,-0.81834537,9.073584,3.818945,3
31151328971588,-0.81834537,9.078369,3.8572302,3
31151331350443,-0.8327023,9.073584,3.8763726,3
31151333729297,-0.86141616,9.092726,3.8333018,3
31151336108151,-0.83748794,9.092726,3.790231,3
31151338486953,-0.8135597,9.073584,3.7854455,3
31151340865807,-0.80877405,9.068798,3.7806597,3
31151343244661,-0.82313097,9.078369,3.8093736,3
31151345623516,-0.7848458,9.092726,3.8237305,3
31151348002370,-0.79441714,9.097511,3.8380876,3
31151350381224,-0.75613195,9.078369,3.7950168,3
31151352760078,-0.7465607,9.073584,3.751946,3
31151355138932,-0.7082755,9.073584,3.737589,3
31151357517734,-0.6939186,9.064013,3.790231,3
31151359896588,-0.6939186,9.064013,3.8141594,3
31151362275443,-0.6795616,9.068798,3.818945,3
31151364654297,-0.6556334,9.083155,3.8093736,3
31151367033151,-0.67477596,9.092726,3.790231,3
31151369412005,-0.6939186,9.08794,3.7663028,3
31151371790859,-0.6795616,9.092726,3.7663028,3
31151374169661,-0.6795616,9.08794,3.7567315,3
31151376548516,-0.72263247,9.040084,3.7806597,3
31151378927370,-0.72263247,9.064013,3.7806597,3
31151381306224,-0.72263247,9.073584,3.7854455,3
31151383685078,-0.72263247,9.073584,3.790231,3
31151386063932,-0.7800602,9.068798,3.7567315,3
31151388442786,-0.7848458,9.078369,3.7184465,3
31151390821641,-0.7896315,9.08794,3.7088752,3
31151393200443,-0.7752745,9.092726,3.7328033,3
31151395579297,-0.79441714,9.073584,3.804588,3
31151397958151,-0.79920274,9.059227,3.8141594,3
31151400337005,-0.7752745,9.097511,3.7806597,3
31151402715859,-0.7800602,9.111869,3.7423747,3
31151405094713,-0.75613195,9.12144,3.737589,3
31151407473568,-0.74177504,9.111869,3.7615173,3
31151409852370,-0.72263247,9.131011,3.790231,3
31151412231224,-0.74177504,9.111869,3.8333018,3
31151414610078,-0.7369894,9.092726,3.842873,3
31151416988932,-0.6843473,9.097511,3.8285162,3
31151419367786,-0.6556334,9.102298,3.7998023,3
31151421746641,-0.6269195,9.097511,3.7950168,3
31151424125495,-0.63170516,9.092726,3.804588,3
31151426504349,-0.6269195,9.08794,3.8237305,3
31151428883151,-0.6556334,9.083155,3.8476589,3
31151431262005,-0.6412765,9.083155,3.8668015,3
31151433640859,-0.6556334,9.068798,3.8524444,3
31151436019713,-0.6364908,9.068798,3.8285162,3
31151438398568,-0.6364908,9.049655,3.818945,3
31151440777422,-0.6412765,9.035298,3.7998023,3
31151443156276,-0.64606214,9.044869,3.818945,3
31151445535130,-0.63170516,9.035298,3.8476589,3
31151447913932,-0.64606214,9.068798,3.8333018,3
31151450292786,-0.6795616,9.073584,3.8093736,3
31151452671641,-0.67477596,9.059227,3.7998023,3
31151455050495,-0.67477596,9.0544405,3.790231,3
31151457429349,-0.6987042,9.0544405,3.7950168,3
31151459808203,-0.6987042,9.040084,3.818945,3
31151462187057,-0.6843473,9.049655,3.842873,3
31151464565911,-0.6843473,9.049655,3.8285162,3
31151466944713,-0.6843473,9.0544405,3.804588,3
31151469323568,-0.67477596,9.073584,3.804588,3
31151471702370,-0.65084773,9.107083,3.7758741,3
31151474081276,-0.6412765,9.097511,3.7806597,3
31151476460130,-0.6412765,9.08794,3.790231,3
31151478838984,-0.6412765,9.08794,3.804588,3
31151481217838,-0.61734825,9.078369,3.7998023,3
31151483596641,-0.59342,9.078369,3.7758741,3
31151485975495,-0.5982057,9.073584,3.7710886,3
31151488354349,-0.61734825,9.08794,3.7615173,3
31151490733203,-0.6269195,9.083155,3.7758741,3
31151493112057,-0.6364908,9.08794,3.7950168,3
31151495490911,-0.6269195,9.08794,3.804588,3
31151497869766,-0.6221339,9.097511,3.7854455,3
31151500248620,-0.6364908,9.097511,3.7758741,3
31151502627422,-0.65084773,9.092726,3.7710886,3
31151505006276,-0.66041905,9.08794,3.7854455,3
31151507385130,-0.64606214,9.097511,3.7854455,3
31151509763984,-0.6556334,9.08794,3.7806597,3
31151512142838,-0.6652047,9.092726,3.7710886,3
31151514521693,-0.6795616,9.08794,3.7758741,3
31151516900547,-0.67477596,9.078369,3.7758741,3
31151519279349,-0.66999036,9.078369,3.7710886,3
31151521658203,-0.66041905,9.073584,3.7758741,3
31151524037057,-0.6556334,9.083155,3.7854455,3
31151526415911,-0.6412765,9.078369,3.7806597,3
31151528794766,-0.65084773,9.083155,3.790231,3
31151531173620,-0.6652047,9.064013,3.7615173,3
31151533552474,-0.64606214,9.073584,3.7710886,3
31151535931276,-0.64606214,9.08794,3.7758741,3
31151538310130,-0.6364908,9.078369,3.7854455,3
31151540688984,-0.6556334,9.064013,3.7854455,3
31151543067838,-0.6269195,9.064013,3.7710886,3
31151545446693,-0.6269195,9.083155,3.7758741,3
31151547825547,-0.6364908,9.078369,3.804588,3
31151550204401,-0.65084773,9.059227,3.818945,3
31151552583255,-0.65084773,9.064013,3.8333018,3
31151554962109,-0.67477596,9.068798,3.8237305,3
31151557340911,-0.6891329,9.0544405,3.8093736,3
31151559719766,-0.7178468,9.0544405,3.804588,3
31151562098620,-0.71306115,9.049655,3.7854455,3
31151564477474,-0.72741807,8.992228,3.7567315,3
31151566856328,-0.7465607,8.968299,3.7806597,3
31151569235182,-0.7369894,9.006584,3.7854455,3
31151571614036,-0.7609176,9.006584,3.6897326,3
31151573992838,-0.7609176,9.0544405,3.641876,3
31151576371693,-0.7322037,9.19801,3.7088752,3
31151578750547,-0.7800602,9.327223,3.900301,3
31151581129401,-0.76570326,9.169296,3.9098723,3
31151583508255,-0.75613195,9.150154,3.7854455,3
31151585887109,-0.7178468,9.159725,3.5174494,3
31151588265911,-0.7465607,9.107083,3.3355947,3
31151590644818,-0.71306115,9.097511,3.4600215,3
31151593023620,-0.71306115,9.15494,3.8668015,3
31151595402474,-0.7322037,9.111869,4.1491547,3
31151597781328,-0.71306115,9.083155,4.1347976,3
31151600160182,-0.6221339,9.15494,3.7758741,3
31151602539036,-0.5886344,9.212367,3.3212378,3
31151604917891,-0.60777694,9.178867,3.1489546,3
31151607296745,-0.6029913,9.145369,3.3690944,3
31151609675599,-0.6269195,9.111869,3.7806597,3
31151612054401,-0.6939186,9.035298,4.1108694,3
31151614433255,-0.75613195,9.040084,4.082155,3
31151616812109,-0.81834537,9.126225,3.751946,3
31151619190963,-0.8757731,9.164511,3.3834512,3
31151621569818,-0.9236295,9.131011,3.2590244,3
31151623948672,-0.95712906,9.111869,3.4839497,3
31151626327526,-1.0193424,9.073584,3.8668015,3
31151628706328,-1.038485,9.016156,4.1108694,3
31151631085182,-1.0193424,9.01137,4.058227,3
31151633464036,-0.9667004,9.064013,3.7806597,3
31151635842891,-0.89013004,9.083155,3.4983068,3
31151638221745,-0.8327023,9.08794,3.4408789,3
31151640600599,-0.79441714,9.0544405,3.641876,3
31151642979401,-0.7322037,9.006584,3.9481573,3
31151645358255,-0.6939186,8.977871,4.1491547,3
31151647737109,-0.6556334,8.9826565,4.125226,3
31151650115963,-0.6125626,8.997013,3.9481573,3
31151652494818,-0.55034924,9.016156,3.7758741,3
31151654873672,-0.55034924,9.01137,3.7280176,3
31151657252526,-0.55513483,9.001799,3.9050865,3
31151659631380,-0.5982057,8.963513,4.1874394,3
31151662010234,-0.66041905,8.930014,4.4075794,3
31151664389036,-0.70348984,8.949157,4.45065,3
31151666767891,-0.7704889,8.987442,4.3645086,3
31151669146745,-0.8470592,8.992228,4.2017965,3
31151671525599,-0.91405827,9.035298,4.1204405,3
31151673904453,-0.9236295,9.025727,4.173083,3
31151676283255,-0.9523434,8.9826565,4.3070807,3
31151678662161,-0.98584294,8.939586,4.412365,3
31151681041016,-1.0289137,8.968299,4.412365,3
31151683419818,-0.9906286,8.987442,4.2975097,3
31151685798672,-0.94755775,8.992228,4.1108694,3
31151688177526,-0.91884387,9.006584,3.9673,3
31151690556380,-0.8709874,9.01137,3.9098723,3
31151692935234,-0.8135597,9.020942,3.9290147,3
31151695314088,-0.79441714,8.987442,3.9481573,3
31151697692943,-0.7322037,8.992228,3.938586,3
31151700071745,-0.70348984,8.992228,3.8763726,3
31151702450599,-0.6221339,9.020942,3.7136607,3
31151704829453,-0.60777694,9.049655,3.5940197,3
31151707208307,-0.55034924,9.068798,3.5365918,3
31151709587161,-0.5312066,9.111869,3.5174494,3
31151711966016,-0.5168497,9.140582,3.5030923,3
31151714344870,-0.5407779,9.178867,3.4600215,3
31151716723724,-0.5407779,9.202796,3.37388,3
31151719102526,-0.526421,9.255438,3.2877383,3
31151721481380,-0.55034924,9.284152,3.2207394,3
31151723860234,-0.57906306,9.2793665,3.2207394,3
31151726239088,-0.61734825,9.284152,3.2542388,3
31151728617943,-0.6652047,9.298509,3.3164523,3
31151730996797,-0.7513463,9.265009,3.3882368,3
31151733375651,-0.79920274,9.236296,3.4121652,3
31151735754505,-0.8853444,9.298509,3.4025939,3
31151738133307,-0.91405827,9.284152,3.3930225,3
31151740512161,-0.94755775,9.269794,3.4360933,3
31151742890963,-0.95712906,9.241081,3.5030923,3
31151745269870,-0.94755775,9.250652,3.5509489,3
31151747648724,-0.9619147,9.260223,3.5892339,3
31151750027578,-0.9810573,9.226724,3.603591,3
31151752406432,-0.9954142,9.183653,3.6179478,3
31151754785234,-0.95712906,9.15494,3.6323047,3
31151757164088,-0.93320084,9.107083,3.723232,3
31151759542943,-0.9236295,9.040084,3.8476589,3
31151761921797,-0.9379865,9.01137,3.9242291,3
31151764300651,-0.9284152,8.987442,3.952943,3
31151766679505,-0.91405827,8.977871,3.8811584,3
31151769058359,-0.8662018,8.973084,3.8763726,3
31151771437161,-0.8422736,8.915657,3.8811584,3
31151773816016,-0.79920274,8.915657,3.938586,3
31151776194870,-0.7513463,8.891729,4.034299,3
31151778573724,-0.72741807,8.915657,4.072584,3
31151780952578,-0.6939186,8.906086,4.0773697,3
31151783331432,-0.66999036,8.949157,4.0007997,3
31151785710286,-0.65084773,8.953942,3.9338005,3
31151788089141,-0.65084773,8.953942,3.9290147,3
31151790467943,-0.63170516,8.949157,3.9720855,3
31151792846797,-0.6364908,8.953942,3.9864426,3
31151795225651,-0.6556334,8.963513,3.9720855,3
31151797604505,-0.6843473,8.9826565,3.9194436,3
31151799983359,-0.7082755,8.963513,3.9242291,3
31151802362213,-0.71306115,9.006584,3.952943,3
31151804741068,-0.72263247,9.01137,3.9481573,3
31151807119922,-0.7465607,9.035298,3.9338005,3
31151809498724,-0.7752745,9.064013,3.9242291,3
31151811877578,-0.7800602,9.102298,3.9050865,3
31151814256432,-0.7704889,9.135797,3.8811584,3
31151816635286,-0.7369894,9.178867,3.8333018,3
31151819014141,-0.7369894,9.2075815,3.8476589,3
31151821392995,-0.7082755,9.217153,4.0007997,3
31151823771849,-0.6556334,9.15494,4.115655,3
31151826150651,-0.6412765,9.159725,4.125226,3
31151828529505,-0.57906306,9.164511,4.0007997,3
31151830908359,-0.49292147,9.15494,3.900301,3
31151833287213,-0.44506502,9.12144,3.7806597,3
31151835666068,-0.38763726,9.188439,3.7615173,3
31151838044922,-0.36370903,9.2075815,3.804588,3
31151840423776,-0.34456646,9.169296,3.8907297,3
31151842802578,-0.34456646,9.111869,3.991228,3
31151845181432,-0.31585258,9.12144,4.130012,3
31151847560286,-0.28713873,9.030513,4.1108694,3
31151849939141,-0.25842485,9.044869,3.900301,3
31151852317995,-0.30149564,9.102298,3.6801612,3
31151854696849,-0.31106696,9.073584,3.6227336,3
31151857075703,-0.31585258,9.020942,3.7758741,3
31151859454557,-0.3684947,8.973084,3.952943,3
31151861833359,-0.41156548,8.9826565,4.058227,3
31151864212213,-0.45942193,8.973084,3.991228,3
31151866591068,-0.526421,8.925228,3.790231,3
31151868969922,-0.5694918,8.958728,3.546163,3
31151871348776,-0.6221339,9.040084,3.4360933,3
31151873727630,-0.66041905,9.020942,3.5605202,3
31151876106484,-0.72741807,8.977871,3.7423747,3
31151878485286,-0.82313097,9.040084,3.8763726,3
31151880864141,-0.8135597,9.035298,3.8141594,3
31151883242995,-0.82313097,9.068798,3.7136607,3
31151885621849,-0.83748794,9.049655,3.5892339,3
31151888000703,-0.7848458,9.068798,3.5318062,3
31151890379557,-0.75613195,9.145369,3.5318062,3
31151892758411,-0.6987042,9.140582,3.5030923,3
31151895137266,-0.70348984,9.23151,3.5700915,3
31151897516068,-0.6412765,9.178867,3.6658044,3
31151899894922,-0.5312066,9.15494,3.656233,3
31151902273776,-0.51206404,9.23151,3.603591,3
31151904652630,-0.45942193,9.245867,3.574877,3
31151907031484,-0.41635114,9.217153,3.5844483,3
31151909410338,-0.41156548,9.212367,3.5605202,3
31151911789193,-0.4211368,9.265009,3.603591,3
31151914167995,-0.41156548,9.193225,3.6801612,3
31151916546849,-0.4546363,9.150154,3.7998023,3
31151918925703,-0.45942193,9.150154,3.8093736,3
31151921304557,-0.49292147,9.202796,3.7806597,3
31151923683411,-0.5599205,9.145369,3.7758741,3
31151926062266,-0.5407779,9.078369,3.656233,3
31151928441120,-0.6939186,9.169296,3.6466618,3
31151930819922,-0.71306115,9.073584,3.7758741,3
31151933198776,-0.7178468,8.953942,3.9481573,3
31151935577630,-0.79441714,9.049655,4.101298,3
31151937956484,-0.8039884,9.025727,4.019942,3
31151940335338,-0.7896315,9.025727,3.8524444,3
31151942714193,-0.83748794,9.073584,3.6466618,3
31151945093047,-0.8135597,9.169296,3.5700915,3
31151947471901,-0.82313097,9.083155,3.6370904,3
31151949850703,-0.7752745,9.025727,3.842873,3
31151952229557,-0.8135597,9.025727,4.106084,3
31151954608411,-0.72263247,8.925228,4.2448673,3
31151956987266,-0.66999036,8.9013,4.125226,3
31151959366120,-0.6221339,8.9826565,3.8333018,3
31151961744974,-0.57427746,9.01137,3.6466618,3
31151964123828,-0.55513483,8.973084,3.694518,3
31151966502630,-0.5455636,8.973084,3.8907297,3
31151968881484,-0.57906306,9.01137,4.082155,3
31151971260286,-0.5982057,8.968299,4.115655,3
31151973639193,-0.6364908,8.949157,4.0438704,3
31151976018047,-0.6843473,8.992228,3.9864426,3
31151978396901,-0.7369894,8.992228,3.885944,3
31151980775755,-0.7800602,9.035298,3.7615173,3
31151983154609,-0.8662018,9.08794,3.7471602,3
31151985533411,-0.89013004,9.078369,3.938586,3
31151987912266,-0.8997013,9.01137,4.063013,3
31151990291120,-0.8709874,9.078369,3.9768713,3
31151992669974,-0.8757731,9.178867,3.7663028,3
31151995048828,-0.81834537,9.135797,3.5892339,3
31151997427682,-0.79920274,9.111869,3.6801612,3
31151999806536,-0.7513463,9.126225,3.8955152,3
31152002185338,-0.65084773,9.073584,3.8811584,3
31152004564193,-0.64606214,9.135797,3.818945,3
31152006943047,-0.57906306,9.083155,3.8333018,3
31152009321901,-0.55034924,9.001799,3.9481573,3
31152011700755,-0.5407779,8.963513,4.0103707,3
31152014079609,-0.5312066,9.064013,3.9864426,3
31152016458411,-0.47856453,9.016156,3.7184465,3
31152018837266,-0.5168497,9.0544405,3.4839497,3
31152021216120,-0.55034924,9.15494,3.4073794,3
31152023594974,-0.5982057,9.140582,3.5940197,3
31152025973828,-0.6556334,9.08794,3.7328033,3
31152028352682,-0.74177504,9.135797,3.8093736,3
31152030731536,-0.76570326,9.140582,3.751946,3
31152033110391,-0.83748794,9.126225,3.5509489,3
31152035489193,-0.8662018,9.159725,3.3547373,3
31152037868047,-0.8757731,9.202796,3.3355947,3
31152040246901,-0.86141616,9.174082,3.4791641,3
31152042625755,-0.8709874,9.126225,3.7040894,3
31152045004609,-0.8566305,9.092726,3.8668015,3
31152047383463,-0.8422736,9.107083,3.8620157,3
31152049762318,-0.7752745,9.078369,3.6801612,3
31152052141172,-0.74177504,9.131011,3.546163,3
31152054519974,-0.70348984,9.140582,3.5126636,3
31152056898828,-0.7082755,9.107083,3.656233,3
31152059277682,-0.72263247,9.068798,3.8476589,3
31152061656536,-0.7178468,9.068798,3.9720855,3
31152064035391,-0.76570326,9.025727,3.9242291,3
31152066414193,-0.82313097,9.059227,3.7710886,3
31152068793099,-0.89013004,9.059227,3.6466618,3
31152071171953,-0.9906286,9.035298,3.6466618,3
31152073550755,-1.119841,9.01137,3.723232,3
31152075929609,-1.1964114,9.030513,3.8811584,3
31152078308463,-1.2634103,9.016156,3.952943,3
31152080687318,-1.3591232,9.040084,3.9242291,3
31152083066172,-1.402194,9.049655,3.8141594,3
31152085445026,-1.4404793,9.064013,3.751946,3
31152087823828,-1.4596218,9.08794,3.7567315,3
31152090202682,-1.4452649,9.08794,3.900301,3
31152092581536,-1.3830515,9.073584,4.0390844,3
31152094960338,-1.3112668,9.068798,4.0534415,3
31152097339245,-1.2299109,9.092726,3.952943,3
31152099718099,-1.1389836,9.092726,3.8237305,3
31152102096953,-1.0241281,9.073584,3.7088752,3
31152104475807,-0.9236295,9.107083,3.67059,3
31152106854609,-0.8470592,9.08794,3.7471602,3
31152109233463,-0.7752745,9.0544405,3.8524444,3
31152111612318,-0.74177504,9.059227,3.900301,3
31152113991172,-0.72263247,9.083155,3.8285162,3
31152116370026,-0.72741807,9.08794,3.7088752,3
31152118748880,-0.76570326,9.111869,3.5557344,3
31152121127734,-0.8757731,9.116654,3.5653057,3
31152123506588,-0.9523434,9.068798,3.6849468,3
31152125885391,-1.1006985,9.016156,3.8237305,3
31152128264245,-1.2442678,9.040084,3.8955152,3
31152130643099,-1.3734802,9.097511,3.8668015,3
31152133021953,-1.5122639,9.068798,3.7040894,3
31152135400807,-1.6510476,9.102298,3.6514473,3
31152137779661,-1.7371893,9.116654,3.6514473,3
31152140158516,-1.8329022,9.08794,3.7615173,3
31152142537318,-1.8855443,9.083155,3.8763726,3
31152144916172,-1.9142581,9.111869,3.9433718,3
31152147295026,-1.8999012,9.126225,3.9050865,3
31152149673880,-1.8376877,9.131011,3.7950168,3
31152152052734,-1.7371893,9.135797,3.7184465,3
31152154431588,-1.6319051,9.12144,3.7328033,3
31152156810443,-1.4931214,9.092726,3.790231,3
31152159189245,-1.3830515,9.083155,3.900301,3
31152161568099,-1.2490535,9.049655,3.9481573,3
31152163946953,-1.1389836,9.0544405,3.900301,3
31152166325807,-1.0336994,9.0544405,3.7710886,3
31152168704661,-0.94755775,9.073584,3.7184465,3
31152171083516,-0.89491564,9.064013,3.7328033,3
31152173462370,-0.89491564,9.049655,3.804588,3
31152175841172,-0.91884387,9.035298,3.8811584,3
31152178220026,-0.9906286,9.016156,3.8907297,3
31152180598880,-1.0624132,9.020942,3.842873,3
31152182977734,-1.2011969,9.059227,3.804588,3
31152185356588,-1.3064811,9.08794,3.751946,3
31152187735443,-1.4356936,9.097511,3.7615173,3
31152190114297,-1.5888343,9.083155,3.7854455,3
31152192493099,-1.6845472,9.073584,3.8333018,3
31152194871953,-1.7754744,9.08794,3.8907297,3
31152197250807,-1.8424734,9.083155,3.8811584,3
31152199629661,-1.8664017,9.107083,3.818945,3
31152202008516,-1.8903298,9.116654,3.7710886,3
31152204387370,-1.847259,9.107083,3.7567315,3
31152206766224,-1.7802601,9.092726,3.804588,3
31152209145026,-1.6749759,9.102298,3.842873,3
31152211523880,-1.564906,9.068798,3.8237305,3
31152213902734,-1.4261223,9.059227,3.7758741,3
31152216281588,-1.2634103,9.064013,3.737589,3
31152218660443,-1.1389836,9.059227,3.7280176,3
31152221039297,-1.0049855,9.044869,3.7040894,3
31152223418151,-0.89491564,9.0544405,3.7423747,3
31152225797005,-0.8039884,9.068798,3.7471602,3
31152228175807,-0.76570326,9.064013,3.7088752,3
31152230554661,-0.7369894,9.049655,3.67059,3
31152232933516,-0.7465607,9.064013,3.656233,3
31152235312370,-0.7704889,9.059227,3.6658044,3
31152237691224,-0.8422736,9.044869,3.6993039,3
31152240070078,-0.9284152,9.08794,3.7280176,3
31152242448932,-1.0289137,9.078369,3.7184465,3
31152244827734,-1.1629118,9.064013,3.7088752,3
31152247206588,-1.2729816,9.064013,3.656233,3
31152249585443,-1.3686945,9.059227,3.6993039,3
31152251964297,-1.4548361,9.059227,3.7136607,3
31152254343151,-1.5218352,9.0544405,3.7136607,3
31152256722005,-1.5266209,9.078369,3.7280176,3
31152259100859,-1.5314065,9.08794,3.7423747,3
31152261479713,-1.4883357,9.111869,3.737589,3
31152263858516,-1.416551,9.140582,3.7423747,3
31152266237370,-1.3160524,9.126225,3.7423747,3
31152268616224,-1.1820544,9.135797,3.723232,3
31152270995078,-1.0671989,9.126225,3.7280176,3
31152273373932,-0.9379865,9.111869,3.737589,3
31152275752786,-0.8135597,9.097511,3.737589,3
31152278131641,-0.6795616,9.111869,3.7280176,3
31152280510443,-0.5694918,9.12144,3.7423747,3
31152282889297,-0.4833502,9.102298,3.7471602,3
31152285268151,-0.43070808,9.078369,3.7663028,3
31152287647005,-0.41635114,9.102298,3.7854455,3
31152290025859,-0.4211368,9.08794,3.7758741,3
31152292404713,-0.44985065,9.068798,3.7854455,3
31152294783568,-0.5168497,9.035298,3.7950168,3
31152297162370,-0.5838487,9.025727,3.8237305,3
31152299541224,-0.6795616,9.025727,3.8237305,3
31152301920078,-0.82313097,9.044869,3.8141594,3
31152304298932,-0.9284152,9.040084,3.8141594,3
31152306677786,-0.9906286,9.035298,3.818945,3
31152309056641,-1.0719845,9.044869,3.8237305,3
31152311435495,-1.134198,9.035298,3.8285162,3
31152313814245,-1.1629118,9.040084,3.8285162,3
31152316193151,-1.1916257,9.044869,3.8333018,3
31152318572005,-1.1437693,9.049655,3.8237305,3
31152320950859,-1.0911272,9.068798,3.8093736,3
31152323329713,-1.0145568,9.083155,3.7950168,3
31152325708568,-0.93320084,9.059227,3.790231,3
31152328087422,-0.8039884,9.0544405,3.790231,3
31152330466224,-0.67477596,9.068798,3.818945,3
31152332845078,-0.55513483,9.068798,3.842873,3
31152335223932,-0.4211368,9.049655,3.8572302,3
31152337602786,-0.3493521,9.044869,3.8380876,3
31152339981641,-0.2727818,9.068798,3.8093736,3
31152342360495,-0.2632105,9.102298,3.7854455,3
31152344739349,-0.23928227,9.102298,3.7615173,3
31152347118151,-0.27756742,9.083155,3.751946,3
31152349497005,-0.30149564,9.092726,3.7567315,3
31152351875859,-0.39720857,9.116654,3.7710886,3
31152354254713,-0.47856453,9.097511,3.7567315,3
31152356633568,-0.5982057,9.078369,3.7328033,3
31152359012422,-0.6891329,9.107083,3.7184465,3
31152361391276,-0.7752745,9.116654,3.7328033,3
31152363770078,-0.8566305,9.107083,3.7471602,3
31152366148880,-0.9284152,9.092726,3.790231,3
31152368527786,-0.94755775,9.092726,3.818945,3
31152370906641,-0.971486,9.078369,3.8380876,3
31152373285495,-1.0049855,9.064013,3.842873,3
31152375664349,-0.9619147,9.073584,3.8333018,3
31152378043203,-0.91884387,9.092726,3.8333018,3
31152380422057,-0.8662018,9.083155,3.842873,3
31152382800859,-0.79441714,9.030513,3.885944,3
31152385179713,-0.7369894,9.073584,3.8668015,3
31152387558568,-0.66041905,9.059227,3.8476589,3
31152389937422,-0.57906306,9.044869,3.818945,3
31152392316276,-0.5072784,9.049655,3.8285162,3
31152394695130,-0.46899325,9.059227,3.8333018,3
31152397073984,-0.40677986,9.040084,3.8524444,3
31152399452786,-0.38285163,9.030513,3.871587,3
31152401831641,-0.3924229,9.035298,3.871587,3
31152404210495,-0.4354937,9.040084,3.818945,3
31152406589349,-0.4833502,9.040084,3.7998023,3
31152408968203,-0.55034924,9.049655,3.7854455,3
31152411347057,-0.61734825,9.064013,3.8093736,3
31152413725911,-0.72263247,9.08794,3.8285162,3
31152416104766,-0.8135597,9.107083,3.8668015,3
31152418483568,-0.8853444,9.102298,3.8572302,3
31152420862422,-0.9762716,9.111869,3.8333018,3
31152423241276,-1.0049855,9.12144,3.790231,3
31152425620130,-1.0097711,9.135797,3.790231,3
31152427998984,-1.0049855,9.107083,3.8093736,3
31152430377838,-0.971486,9.107083,3.8237305,3
31152432756641,-0.8997013,9.097511,3.8093736,3
31152435135443,-0.85184485,9.116654,3.7758741,3
31152437514349,-0.74177504,9.111869,3.737589,3
31152439893203,-0.63170516,9.131011,3.694518,3
31152442272057,-0.5312066,9.126225,3.6801612,3
31152444650911,-0.4354937,9.107083,3.67059,3
31152447029713,-0.3684947,9.102298,3.6993039,3
31152449408620,-0.30149564,9.097511,3.7280176,3
31152451787422,-0.2536392,9.097511,3.723232,3
31152454166276,-0.23928227,9.097511,3.6897326,3
31152456545130,-0.22971097,9.111869,3.6514473,3
31152458923984,-0.23449662,9.102298,3.6514473,3
31152461302838,-0.26799613,9.097511,3.6849468,3
31152463681693,-0.33020952,9.111869,3.7280176,3
31152466060547,-0.38763726,9.08794,3.751946,3
31152468439349,-0.44985065,9.073584,3.7567315,3
31152470818203,-0.526421,9.068798,3.7280176,3
31152473197057,-0.56470615,9.08794,3.723232,3
31152475575911,-0.6125626,9.073584,3.723232,3
31152477954766,-0.66999036,9.08794,3.7328033,3
31152480333620,-0.6939186,9.078369,3.737589,3
31152482712474,-0.70348984,9.059227,3.7471602,3
31152485091276,-0.6939186,9.068798,3.7471602,3
31152487470130,-0.64606214,9.073584,3.7567315,3
31152489848984,-0.60777694,9.107083,3.751946,3
31152492227838,-0.5455636,9.097511,3.7710886,3
31152494606693,-0.47856453,9.083155,3.7854455,3
31152496985547,-0.37806597,9.092726,3.818945,3
31152499364401,-0.28235307,9.092726,3.8237305,3
31152501743203,-0.18185452,9.083155,3.8285162,3
31152504122057,-0.10049855,9.097511,3.842873,3
31152506500911,-0.062213387,9.068798,3.8333018,3
31152508879766,-0.02871387,9.107083,3.8380876,3
31152511258620,-0.023928227,9.111869,3.8333018,3
31152513637474,0.0,9.116654,3.8572302,3
31152516016328,0.0047856453,9.097511,3.8572302,3
31152518395182,-0.019142581,9.097511,3.8476589,3
31152520773984,-0.062213387,9.111869,3.8907297,3
31152523152838,-0.11964113,9.097511,3.8955152,3
31152525531693,-0.18185452,9.078369,3.8811584,3
31152527910547,-0.2440679,9.078369,3.885944,3
31152530289401,-0.28713873,9.092726,3.8907297,3
31152532668255,-0.36370903,9.073584,3.8907297,3
31152535047005,-0.41635114,9.049655,3.8955152,3
31152537425911,-0.44027936,9.035298,3.900301,3
31152539804766,-0.47377887,9.016156,3.8955152,3
31152542183620,-0.49292147,9.025727,3.8763726,3
31152544562474,-0.5072784,9.030513,3.8668015,3
31152546941328,-0.5072784,9.01137,3.842873,3
31152549320182,-0.4977071,9.030513,3.8237305,3
31152551698984,-0.47377887,9.040084,3.818945,3
31152554077838,-0.4642076,9.049655,3.8141594,3
31152556456693,-0.42592242,9.078369,3.790231,3
31152558835547,-0.38763726,9.102298,3.7950168,3
31152561214401,-0.37806597,9.102298,3.7998023,3
31152563593255,-0.33499518,9.083155,3.7950168,3
31152565972109,-0.33020952,9.102298,3.7854455,3
31152568350911,-0.29671,9.102298,3.7854455,3
31152570729766,-0.2632105,9.12144,3.7663028,3
31152573108620,-0.23928227,9.126225,3.751946,3
31152575487474,-0.24885355,9.126225,3.751946,3
31152577866328,-0.25842485,9.111869,3.7663028,3
31152580245182,-0.25842485,9.135797,3.7663028,3
31152582624036,-0.2727818,9.140582,3.7471602,3
31152585002891,-0.28235307,9.150154,3.7328033,3
31152587381693,-0.31106696,9.159725,3.7136607,3
31152589760547,-0.32063824,9.169296,3.723232,3
31152592139401,-0.33499518,9.164511,3.7423747,3
31152594518255,-0.3589234,9.150154,3.751946,3
31152596897109,-0.3684947,9.12144,3.7615173,3
31152599275963,-0.3924229,9.116654,3.7663028,3
31152601654818,-0.39720857,9.092726,3.7854455,3
31152604033620,-0.44506502,9.12144,3.7806597,3
31152606412474,-0.47856453,9.111869,3.7806597,3
31152608791432,-0.4977071,9.068798,3.7806597,3
31152611170182,-0.52163535,9.078369,3.804588,3
31152613549036,-0.5312066,9.064013,3.790231,3
31152615927891,-0.5312066,9.0544405,3.790231,3
31152618306745,-0.55034924,9.068798,3.7663028,3
31152620685547,-0.57427746,9.059227,3.7710886,3
31152623064401,-0.57906306,9.020942,3.7567315,3
31152625443255,-0.5599205,9.035298,3.7806597,3
31152627822109,-0.5455636,9.0544405,3.7615173,3
31152630200963,-0.49292147,9.064013,3.7615173,3
31152632579818,-0.45942193,9.08794,3.7615173,3
31152634958672,-0.41156548,9.08794,3.7567315,3
31152637337474,-0.36370903,9.092726,3.7663028,3
31152639716328,-0.31106696,9.097511,3.7998023,3
31152642095182,-0.2727818,9.097511,3.8380876,3
31152644474036,-0.2105684,9.08794,3.842873,3
31152646852891,-0.15792629,9.102298,3.842873,3
31152649231745,-0.11485548,9.107083,3.8333018,3
31152651610599,-0.11964113,9.08794,3.818945,3
31152653989401,-0.124426775,9.102298,3.818945,3
31152656368255,-0.1052842,9.135797,3.8237305,3
31152658747057,-0.11006984,9.135797,3.8333018,3
31152661125911,-0.15792629,9.111869,3.8285162,3
31152663504818,-0.22013968,9.12144,3.8285162,3
31152665883672,-0.28235307,9.131011,3.8380876,3
31152668262526,-0.35413775,9.135797,3.8380876,3
31152670641380,-0.3924229,9.140582,3.804588,3
31152673020182,-0.47856453,9.135797,3.7998023,3
31152675399036,-0.55034924,9.131011,3.818945,3
31152677777891,-0.60777694,9.131011,3.842873,3
31152680156745,-0.67477596,9.107083,3.8572302,3
31152682535599,-0.6987042,9.083155,3.8380876,3
31152684914453,-0.72741807,9.073584,3.8285162,3
31152687293255,-0.7369894,9.059227,3.8141594,3
31152689672109,-0.7369894,9.078369,3.8380876,3
31152692050963,-0.7369894,9.049655,3.8380876,3
31152694429818,-0.72263247,9.025727,3.8237305,3
31152696808672,-0.6412765,9.044869,3.818945,3
31152699187526,-0.5694918,9.040084,3.8093736,3
31152701566380,-0.5072784,9.01137,3.7998023,3
31152703945182,-0.45942193,9.006584,3.7806597,3
31152706324036,-0.4211368,8.992228,3.7758741,3
31152708702891,-0.3493521,9.006584,3.7758741,3
31152711081745,-0.29192436,9.020942,3.7615173,3
31152713460599,-0.25842485,9.035298,3.7567315,3
31152715839453,-0.2440679,9.035298,3.7471602,3
31152718218307,-0.21535404,9.078369,3.7423747,3
31152720597161,-0.2632105,9.08794,3.7615173,3
31152722975963,-0.27756742,9.107083,3.7710886,3
31152725354818,-0.29192436,9.097511,3.7806597,3
31152727733672,-0.3397808,9.126225,3.7950168,3
31152730112526,-0.41635114,9.135797,3.8093736,3
31152732491380,-0.4881358,9.135797,3.7950168,3
31152734870234,-0.55513483,9.159725,3.7758741,3
31152737249088,-0.6221339,9.174082,3.7758741,3
31152739627891,-0.6795616,9.193225,3.7806597,3
31152742006745,-0.7465607,9.2075815,3.7758741,3
31152744385599,-0.7609176,9.183653,3.7710886,3
31152746764453,-0.7896315,9.183653,3.7806597,3
31152749143307,-0.82313097,9.169296,3.7854455,3
31152751522161,-0.81834537,9.19801,3.790231,3
31152753901016,-0.79920274,9.174082,3.7806597,3
31152756279818,-0.7513463,9.131011,3.790231,3
31152758658672,-0.6987042,9.12144,3.7998023,3
31152761037526,-0.66041905,9.116654,3.7998023,3
31152763416380,-0.60777694,9.078369,3.804588,3
31152765795234,-0.5455636,9.064013,3.804588,3
31152768174088,-0.47856453,9.044869,3.8141594,3
31152770552891,-0.44027936,9.020942,3.7950168,3
31152772931745,-0.44027936,9.040084,3.7806597,3
31152775310599,-0.43070808,9.030513,3.7854455,3
31152777689453,-0.39720857,9.020942,3.790231,3
31152780068307,-0.4019942,9.025727,3.7950168,3
31152782447161,-0.42592242,9.006584,3.7998023,3
31152784826016,-0.44506502,9.020942,3.790231,3
31152787204870,-0.4833502,9.025727,3.7998023,3
31152789583672,-0.5072784,9.030513,3.7998023,3
31152791962526,-0.55513483,9.0544405,3.8141594,3
31152794341380,-0.6221339,9.049655,3.8237305,3
31152796720182,-0.63170516,9.0544405,3.842873,3
31152799099088,-0.6652047,9.092726,3.842873,3
31152801477943,-0.70348984,9.107083,3.8476589,3
31152803856797,-0.6939186,9.102298,3.8333018,3
31152806235547,-0.70348984,9.131011,3.842873,3
31152808614453,-0.7178468,9.145369,3.8380876,3
31152810993307,-0.6987042,9.140582,3.8524444,3
31152813372161,-0.6843473,9.126225,3.8237305,3
31152815751016,-0.6556334,9.140582,3.8380876,3
31152818129870,-0.6412765,9.15494,3.8380876,3
31152820508724,-0.60777694,9.15494,3.8093736,3
31152822887526,-0.57427746,9.135797,3.7998023,3
31152825266380,-0.53599226,9.131011,3.790231,3
31152827645234,-0.5024927,9.126225,3.7806597,3
31152830024088,-0.47377887,9.131011,3.790231,3
31152832402943,-0.4642076,9.102298,3.7950168,3
31152834781797,-0.4354937,9.073584,3.7758741,3
31152837160651,-0.44027936,9.073584,3.790231,3
31152839539453,-0.44506502,9.064013,3.7854455,3
31152841918307,-0.4642076,9.0544405,3.7663028,3
31152844297161,-0.4881358,9.064013,3.7615173,3
31152846676016,-0.53599226,9.035298,3.7758741,3
31152849054870,-0.56470615,9.025727,3.7710886,3
31152851433724,-0.6029913,9.025727,3.7663028,3
31152853812526,-0.63170516,9.044869,3.7567315,3
31152856191380,-0.6556334,9.0544405,3.7615173,3
31152858570234,-0.6891329,9.030513,3.7567315,3
31152860949088,-0.7178468,9.035298,3.7328033,3
31152863327943,-0.72741807,9.073584,3.7328033,3
31152865706797,-0.7082755,9.068798,3.737589,3
31152868085651,-0.7178468,9.097511,3.7471602,3
31152870464453,-0.6891329,9.116654,3.751946,3
31152872843307,-0.66999036,9.12144,3.751946,3
31152875222161,-0.6412765,9.126225,3.7423747,3
31152877601016,-0.60777694,9.150154,3.7423747,3
31152879979870,-0.57427746,9.135797,3.7710886,3
31152882358724,-0.53599226,9.135797,3.8141594,3
31152884737526,-0.51206404,9.140582,3.7950168,3
31152887116432,-0.51206404,9.164511,3.804588,3
31152889495234,-0.5072784,9.145369,3.8093736,3
31152891874088,-0.51206404,9.15494,3.7758741,3
31152894252943,-0.5407779,9.150154,3.7710886,3
31152896631797,-0.53599226,9.140582,3.7663028,3
31152899010651,-0.55513483,9.135797,3.7998023,3
31152901389505,-0.57906306,9.116654,3.804588,3
31152903768359,-0.6269195,9.111869,3.818945,3
31152906147161,-0.6364908,9.116654,3.8237305,3
31152908526016,-0.6652047,9.111869,3.804588,3
31152910904870,-0.66041905,9.08794,3.804588,3
31152913283724,-0.6987042,9.078369,3.7998023,3
31152915662578,-0.70348984,9.0544405,3.8093736,3
31152918041432,-0.72263247,9.059227,3.8237305,3
31152920420286,-0.7082755,9.035298,3.8141594,3
31152922799088,-0.70348984,9.035298,3.7998023,3
31152925177943,-0.65084773,9.044869,3.7998023,3
31152927556797,-0.6221339,9.016156,3.7950168,3
31152929935651,-0.5886344,9.030513,3.7758741,3
31152932314505,-0.57906306,9.016156,3.804588,3
31152934693359,-0.57906306,9.035298,3.8093736,3
31152937072213,-0.56470615,9.040084,3.8285162,3
31152939451016,-0.5312066,9.040084,3.8237305,3
31152941829870,-0.49292147,9.073584,3.8141594,3
31152944208724,-0.46899325,9.08794,3.8093736,3
31152946587578,-0.4642076,9.126225,3.8141594,3
31152948966432,-0.4881358,9.135797,3.7998023,3
31152951345286,-0.47856453,9.111869,3.804588,3
31152953724141,-0.5024927,9.126225,3.8141594,3
31152956102943,-0.5024927,9.131011,3.8333018,3
31152958481797,-0.53599226,9.12144,3.8141594,3
31152960860651,-0.56470615,9.140582,3.8141594,3
31152963239505,-0.59342,9.169296,3.818945,3
31152965618359,-0.61734825,9.164511,3.8285162,3
31152967997213,-0.6125626,9.140582,3.8237305,3
31152970376068,-0.6221339,9.135797,3.8285162,3
31152972754870,-0.6269195,9.140582,3.8237305,3
31152975133724,-0.6125626,9.111869,3.8141594,3
31152977512578,-0.6029913,9.097511,3.790231,3
31152979891432,-0.59342,9.08794,3.790231,3
31152982270286,-0.5694918,9.073584,3.7806597,3
31152984649141,-0.5599205,9.044869,3.790231,3
31152987027995,-0.5312066,9.068798,3.7806597,3
31152989406797,-0.5312066,9.064013,3.790231,3
31152991785651,-0.5168497,9.0544405,3.7950168,3
31152994164505,-0.47856453,9.040084,3.7950168,3
31152996543359,-0.49292147,9.040084,3.804588,3
31152998922213,-0.5072784,9.025727,3.804588,3
31153001301068,-0.4833502,9.044869,3.804588,3
31153003679922,-0.4881358,9.0544405,3.804588,3
31153006058724,-0.49292147,9.035298,3.7998023,3
31153008437578,-0.53599226,9.068798,3.7806597,3
31153010816432,-0.55513483,9.073584,3.7950168,3
31153013195286,-0.5694918,9.078369,3.8093736,3
31153015574141,-0.59342,9.078369,3.7998023,3
31153017952995,-0.59342,9.092726,3.790231,3
31153020331849,-0.60777694,9.092726,3.7950168,3
31153022710651,-0.6364908,9.107083,3.804588,3
31153025089505,-0.6221339,9.111869,3.790231,3
31153027468359,-0.6269195,9.102298,3.7854455,3
31153029847213,-0.63170516,9.111869,3.7854455,3
31153032226068,-0.57906306,9.131011,3.7854455,3
31153034604922,-0.5694918,9.12144,3.7854455,3
31153036983776,-0.5838487,9.116654,3.7998023,3
31153039362578,-0.55513483,9.126225,3.790231,3
31153041741432,-0.5407779,9.12144,3.7758741,3
31153044120286,-0.526421,9.126225,3.7710886,3
31153046499141,-0.4833502,9.116654,3.7758741,3
31153048877943,-0.43070808,9.107083,3.7615173,3
31153051256849,-0.4354937,9.116654,3.7758741,3
31153053635651,-0.4354937,9.102298,3.790231,3
31153056014505,-0.43070808,9.068798,3.7998023,3
31153058393359,-0.4354937,9.064013,3.8093736,3
31153060772213,-0.4546363,9.068798,3.818945,3
31153063151068,-0.46899325,9.073584,3.8093736,3
31153065529922,-0.46899325,9.068798,3.804588,3
31153067908724,-0.47856453,9.08794,3.7950168,3
31153070287630,-0.47856453,9.059227,3.7854455,3
31153072666432,-0.4833502,9.068798,3.7710886,3
31153075045286,-0.4833502,9.064013,3.7567315,3
31153077424141,-0.4642076,9.073584,3.7471602,3
31153079802995,-0.4642076,9.078369,3.7615173,3
31153082181849,-0.4546363,9.068798,3.7615173,3
31153084560703,-0.4642076,9.08794,3.7710886,3
31153086939557,-0.44506502,9.064013,3.790231,3
31153089318359,-0.4354937,9.068798,3.7854455,3
31153091697213,-0.4211368,9.092726,3.7950168,3
31153094076068,-0.41635114,9.111869,3.8237305,3
31153096454922,-0.41635114,9.116654,3.8285162,3
31153098833776,-0.41156548,9.102298,3.8333018,3
31153101212630,-0.41156548,9.097511,3.842873,3
31153103591432,-0.4546363,9.107083,3.8333018,3
31153105970286,-0.46899325,9.131011,3.842873,3
31153108349141,-0.45942193,9.131011,3.8333018,3
31153110727995,-0.47377887,9.135797,3.842873,3
31153113106849,-0.47377887,9.111869,3.8237305,3
31153115485703,-0.51206404,9.102298,3.842873,3
31153117864557,-0.55034924,9.12144,3.8476589,3
31153120243359,-0.57427746,9.107083,3.8333018,3
31153122622213,-0.57427746,9.102298,3.8285162,3
31153125001068,-0.56470615,9.102298,3.8093736,3
31153127379922,-0.56470615,9.092726,3.7998023,3
31153129758776,-0.55513483,9.102298,3.790231,3
31153132137578,-0.55513483,9.08794,3.804588,3
31153134516484,-0.53599226,9.073584,3.8285162,3
31153136895286,-0.4977071,9.040084,3.8333018,3
31153139274141,-0.4833502,9.030513,3.818945,3
31153141652995,-0.4546363,9.025727,3.804588,3
31153144031849,-0.4354937,9.044869,3.8141594,3
31153146410703,-0.4211368,9.044869,3.8237305,3
31153148789557,-0.39720857,9.035298,3.8093736,3
31153151168411,-0.38285163,9.073584,3.818945,3
31153153547213,-0.37328035,9.059227,3.8285162,3
31153155926068,-0.37328035,9.08794,3.818945,3
31153158304922,-0.37328035,9.078369,3.790231,3
31153160683776,-0.38285163,9.068798,3.7806597,3
31153163062630,-0.39720857,9.083155,3.7806597,3
31153165441484,-0.4211368,9.092726,3.7998023,3
31153167820338,-0.44027936,9.092726,3.8093736,3
31153170199141,-0.4977071,9.097511,3.818945,3
31153172577995,-0.5024927,9.107083,3.804588,3
31153174956849,-0.5312066,9.107083,3.7663028,3
31153177335703,-0.5694918,9.107083,3.7615173,3
31153179714557,-0.5886344,9.116654,3.7567315,3
31153182093411,-0.5886344,9.116654,3.7710886,3
31153184472266,-0.5694918,9.135797,3.7806597,3
31153186851068,-0.55513483,9.135797,3.7758741,3
31153189229922,-0.5312066,9.126225,3.7758741,3
31153191608776,-0.5312066,9.12144,3.7710886,3
31153193987630,-0.5072784,9.107083,3.7710886,3
31153196366484,-0.49292147,9.073584,3.7758741,3
31153198745338,-0.4881358,9.102298,3.7950168,3
31153201124193,-0.4546363,9.107083,3.7854455,3
31153203502995,-0.43070808,9.097511,3.7758741,3
31153205881849,-0.4019942,9.083155,3.7710886,3
31153208260703,-0.40677986,9.083155,3.7710886,3
31153210639557,-0.39720857,9.107083,3.7758741,3
31153213018411,-0.4019942,9.092726,3.7854455,3
31153215397266,-0.41156548,9.078369,3.7615173,3
31153217776120,-0.42592242,9.078369,3.7710886,3
31153220154922,-0.41635114,9.08794,3.7615173,3
31153222533776,-0.4546363,9.064013,3.7615173,3
31153224912630,-0.47377887,9.08794,3.7663028,3
31153227291484,-0.46899325,9.097511,3.7758741,3
31153229670338,-0.4833502,9.073584,3.7806597,3
31153232049193,-0.4881358,9.0544405,3.790231,3
31153234428047,-0.4881358,9.064013,3.804588,3
31153236806849,-0.5024927,9.078369,3.804588,3
31153239185703,-0.4833502,9.092726,3.7950168,3
31153241564557,-0.4881358,9.083155,3.8141594,3
31153243943411,-0.5072784,9.083155,3.8093736,3
31153246322266,-0.51206404,9.08794,3.8093736,3
31153248701120,-0.47856453,9.08794,3.8141594,3
31153251079922,-0.47377887,9.092726,3.818945,3
31153253458776,-0.49292147,9.107083,3.8141594,3
31153255837630,-0.5024927,9.097511,3.8141594,3
31153258216484,-0.49292147,9.111869,3.8093736,3
31153260595338,-0.5024927,9.107083,3.818945,3
31153262974193,-0.49292147,9.08794,3.818945,3
31153265353047,-0.51206404,9.107083,3.818945,3
31153267731901,-0.5168497,9.092726,3.8333018,3
31153270110703,-0.53599226,9.08794,3.842873,3
31153272489557,-0.53599226,9.097511,3.8333018,3
31153274868411,-0.51206404,9.08794,3.8380876,3
31153277247266,-0.51206404,9.097511,3.8524444,3
31153279626120,-0.52163535,9.08794,3.8380876,3
31153282004974,-0.5072784,9.08794,3.8285162,3
31153284383828,-0.5168497,9.078369,3.8285162,3
31153286762630,-0.526421,9.073584,3.842873,3
31153289141484,-0.5168497,9.073584,3.8380876,3
31153291520338,-0.5168497,9.08794,3.8285162,3
31153293899193,-0.4977071,9.078369,3.8333018,3
31153296278047,-0.4881358,9.08794,3.7998023,3
31153298656901,-0.47377887,9.097511,3.8141594,3
31153301035755,-0.49292147,9.097511,3.7998023,3
31153303414557,-0.526421,9.097511,3.804588,3
31153305793411,-0.5024927,9.083155,3.8141594,3
31153308172266,-0.5312066,9.068798,3.804588,3
31153310551120,-0.5312066,9.078369,3.804588,3
31153312929974,-0.5407779,9.092726,3.8141594,3
31153315308828,-0.5407779,9.068798,3.7950168,3
31153317687682,-0.5312066,9.078369,3.8093736,3
31153320066484,-0.5407779,9.08794,3.8141594,3
31153322445338,-0.55513483,9.107083,3.804588,3
31153324824193,-0.5599205,9.107083,3.804588,3
31153327203047,-0.57427746,9.111869,3.8285162,3
31153329581901,-0.57906306,9.102298,3.818945,3
31153331960755,-0.55513483,9.107083,3.7950168,3
31153334339557,-0.56470615,9.102298,3.7998023,3
31153336718411,-0.57906306,9.12144,3.804588,3
31153339097266,-0.55034924,9.116654,3.7998023,3
31153341476120,-0.5072784,9.102298,3.804588,3
31153343854974,-0.4977071,9.092726,3.804588,3
31153346233828,-0.5072784,9.08794,3.8141594,3
31153348612682,-0.5024927,9.068798,3.790231,3
31153350991484,-0.44506502,9.083155,3.7854455,3
31153353370338,-0.44506502,9.073584,3.7758741,3
31153355749193,-0.44506502,9.08794,3.7854455,3
31153358128047,-0.44506502,9.083155,3.7806597,3
31153360506901,-0.4642076,9.092726,3.7758741,3
31153362885755,-0.45942193,9.08794,3.7710886,3
31153365264609,-0.4546363,9.092726,3.7567315,3
31153367643463,-0.47856453,9.078369,3.751946,3
31153370022266,-0.5312066,9.068798,3.7567315,3
31153372401120,-0.55034924,9.083155,3.7663028,3
31153374779974,-0.5838487,9.083155,3.7950168,3
31153377158828,-0.6269195,9.08794,3.7998023,3
31153379537682,-0.63170516,9.092726,3.7950168,3
31153381916536,-0.65084773,9.08794,3.818945,3
31153384295338,-0.66999036,9.064013,3.8237305,3
31153386674193,-0.6891329,9.059227,3.8093736,3
31153389053047,-0.67477596,9.073584,3.804588,3
31153391431901,-0.67477596,9.102298,3.818945,3
31153393810755,-0.66999036,9.092726,3.8141594,3
31153396189609,-0.6843473,9.083155,3.804588,3
31153398568463,-0.6795616,9.08794,3.818945,3
31153400947266,-0.67477596,9.092726,3.818945,3
31153403326120,-0.66999036,9.097511,3.804588,3
31153405704974,-0.63170516,9.097511,3.7950168,3
31153408083828,-0.61734825,9.08794,3.7998023,3
31153410462682,-0.5694918,9.068798,3.7998023,3
31153412841536,-0.55513483,9.08794,3.7950168,3
31153415220391,-0.53599226,9.092726,3.7854455,3
31153417599193,-0.53599226,9.097511,3.7758741,3
31153419978047,-0.5168497,9.092726,3.751946,3
31153422356901,-0.5312066,9.097511,3.751946,3
31153424735755,-0.5407779,9.107083,3.7663028,3
31153427114609,-0.56470615,9.116654,3.7950168,3
31153429493463,-0.5886344,9.092726,3.7950168,3
31153431872318,-0.59342,9.102298,3.804588,3
31153434251120,-0.6364908,9.107083,3.8093736,3
31153436629974,-0.6556334,9.083155,3.790231,3
31153439008828,-0.6891329,9.083155,3.804588,3
31153441387682,-0.71306115,9.097511,3.8093736,3
31153443766536,-0.7369894,9.092726,3.8141594,3
31153446145391,-0.7322037,9.107083,3.818945,3
31153448524245,-0.7369894,9.083155,3.8141594,3
31153450903047,-0.76570326,9.092726,3.818945,3
31153453281901,-0.7752745,9.068798,3.818945,3
31153455660755,-0.74177504,9.064013,3.818945,3
31153458039609,-0.74177504,9.068798,3.7998023,3
31153460418463,-0.7082755,9.08794,3.8380876,3
31153462797318,-0.66999036,9.073584,3.818945,3
31153465176172,-0.64606214,9.064013,3.7806597,3
31153467554974,-0.61734825,9.0544405,3.7950168,3
31153469933828,-0.57906306,9.068798,3.804588,3
31153472312682,-0.56470615,9.073584,3.7998023,3
31153474691536,-0.5455636,9.064013,3.7758741,3
31153477070391,-0.5168497,9.059227,3.7854455,3
31153479449245,-0.5072784,9.073584,3.790231,3
31153481828099,-0.4881358,9.083155,3.790231,3
31153484206901,-0.4977071,9.078369,3.790231,3
31153486585755,-0.5024927,9.073584,3.7758741,3
31153488964609,-0.526421,9.102298,3.7854455,3
31153491343463,-0.5312066,9.116654,3.7950168,3
31153493722318,-0.56470615,9.145369,3.7998023,3
31153496101172,-0.6125626,9.126225,3.8285162,3
31153498480026,-0.65084773,9.145369,3.8476589,3
31153500858828,-0.70348984,9.135797,3.8476589,3
31153503237682,-0.74177504,9.145369,3.8380876,3
31153505616536,-0.7609176,9.131011,3.842873,3
31153507995391,-0.7704889,9.140582,3.8285162,3
31153510374245,-0.7704889,9.140582,3.8093736,3
31153512753099,-0.7752745,9.126225,3.7998023,3
31153515131953,-0.7704889,9.107083,3.8093736,3
31153517510755,-0.76570326,9.111869,3.7950168,3
31153519889609,-0.71306115,9.111869,3.804588,3
31153522268463,-0.6843473,9.126225,3.7998023,3
31153524647318,-0.67477596,9.111869,3.7758741,3
31153527026172,-0.6412765,9.08794,3.7950168,3
31153529405026,-0.60777694,9.068798,3.7950168,3
31153531783880,-0.5694918,9.035298,3.7998023,3
31153534162682,-0.55034924,9.040084,3.804588,3
31153536541536,-0.52163535,9.040084,3.7950168,3
31153538920391,-0.51206404,9.044869,3.7854455,3
31153541299245,-0.5072784,9.044869,3.790231,3
31153543678099,-0.5024927,9.0544405,3.7806597,3
31153546056953,-0.52163535,9.049655,3.7758741,3
31153548435755,-0.55034924,9.049655,3.790231,3
31153550814609,-0.5599205,9.059227,3.7950168,3
31153553193463,-0.57427746,9.083155,3.790231,3
31153555572318,-0.6125626,9.092726,3.804588,3
31153557951172,-0.64606214,9.102298,3.8141594,3
31153560330026,-0.6795616,9.102298,3.8141594,3
31153562708880,-0.6843473,9.111869,3.8141594,3
31153565087734,-0.70348984,9.116654,3.7998023,3
31153567466536,-0.6939186,9.111869,3.790231,3
31153569845391,-0.6891329,9.116654,3.7998023,3
31153572224245,-0.6843473,9.107083,3.804588,3
31153574603099,-0.65084773,9.111869,3.7998023,3
31153576981953,-0.6412765,9.107083,3.790231,3
31153579360807,-0.5982057,9.111869,3.7998023,3
31153581739609,-0.59342,9.116654,3.7758741,3
31153584118463,-0.55034924,9.111869,3.7615173,3
31153586497318,-0.5168497,9.111869,3.751946,3
31153588876172,-0.5024927,9.111869,3.751946,3
31153591255026,-0.47856453,9.135797,3.7567315,3
31153593633880,-0.5024927,9.102298,3.7758741,3
31153596012734,-0.49292147,9.097511,3.7758741,3
31153598391536,-0.4881358,9.073584,3.7806597,3
31153600770391,-0.4977071,9.068798,3.7854455,3
31153603149245,-0.5168497,9.078369,3.7663028,3
31153605528099,-0.5168497,9.064013,3.7663028,3
31153607906953,-0.5407779,9.083155,3.7615173,3
31153610285807,-0.55034924,9.092726,3.7758741,3
31153612664661,-0.5694918,9.083155,3.7806597,3
31153615043463,-0.5599205,9.078369,3.7806597,3
31153617422318,-0.57427746,9.083155,3.790231,3
31153619801172,-0.57427746,9.102298,3.7710886,3
31153622180026,-0.59342,9.078369,3.7663028,3
31153624558880,-0.5599205,9.068798,3.7758741,3
31153626937734,-0.5312066,9.08794,3.7998023,3
31153629316536,-0.52163535,9.102298,3.8141594,3
31153631695391,-0.49292147,9.092726,3.8093736,3
31153634074245,-0.47377887,9.102298,3.8333018,3
31153636453099,-0.44027936,9.102298,3.8141594,3
31153638831953,-0.43070808,9.092726,3.804588,3
31153641210807,-0.43070808,9.097511,3.8093736,3
31153643589661,-0.42592242,9.097511,3.8093736,3
31153645968463,-0.4019942,9.107083,3.8237305,3
31153648347318,-0.3924229,9.083155,3.8093736,3
31153650726172,-0.39720857,9.08794,3.7950168,3
31153653105026,-0.4019942,9.08794,3.8141594,3
31153655483880,-0.41635114,9.102298,3.8237305,3
31153657862734,-0.40677986,9.097511,3.8093736,3
31153660241588,-0.40677986,9.083155,3.8093736,3
31153662620443,-0.4211368,9.078369,3.818945,3
31153664999245,-0.44027936,9.092726,3.804588,3
31153667378099,-0.44506502,9.073584,3.818945,3
31153669756953,-0.4546363,9.073584,3.8093736,3
31153672135807,-0.4642076,9.078369,3.8141594,3
31153674514661,-0.4881358,9.068798,3.8093736,3
31153676893516,-0.5072784,9.092726,3.7950168,3
31153679272370,-0.5024927,9.097511,3.7950168,3
31153681651172,-0.4977071,9.092726,3.8333018,3
31153684030026,-0.47377887,9.102298,3.8333018,3
31153686408880,-0.49292147,9.107083,3.8333018,3
31153688787734,-0.4833502,9.116654,3.8093736,3
31153691166588,-0.4642076,9.102298,3.790231,3
31153693545443,-0.4546363,9.12144,3.790231,3
31153695924297,-0.44027936,9.092726,3.7854455,3
31153698303099,-0.4211368,9.092726,3.8141594,3
31153700681953,-0.41635114,9.083155,3.8380876,3
31153703060807,-0.4354937,9.092726,3.8763726,3
31153705439661,-0.41156548,9.073584,3.8811584,3
31153707818516,-0.40677986,9.059227,3.8620157,3
31153710197370,-0.4211368,9.064013,3.8811584,3
31153712576224,-0.42592242,9.0544405,3.8524444,3
31153714955026,-0.43070808,9.0544405,3.8524444,3
31153717333880,-0.4642076,9.073584,3.8620157,3
31153719712734,-0.46899325,9.0544405,3.8476589,3
31153722091536,-0.46899325,9.083155,3.8237305,3
31153724470443,-0.4833502,9.068798,3.7806597,3
31153726849297,-0.47377887,9.068798,3.751946,3
31153729228099,-0.4881358,9.083155,3.7280176,3
31153731606953,-0.4642076,9.111869,3.7567315,3
31153733985807,-0.4546363,9.111869,3.7663028,3
31153736364661,-0.4354937,9.08794,3.7663028,3
31153738743516,-0.44506502,9.073584,3.7423747,3
31153741122370,-0.4546363,9.073584,3.7423747,3
31153743501224,-0.41635114,9.107083,3.7471602,3
31153745880026,-0.43070808,9.116654,3.7663028,3
31153748258880,-0.44506502,9.102298,3.7854455,3
31153750637734,-0.4354937,9.097511,3.7998023,3
31153753016588,-0.46899325,9.102298,3.790231,3
31153755395443,-0.4977071,9.12144,3.7854455,3
31153757774297,-0.5312066,9.135797,3.7806597,3
31153760153151,-0.5694918,9.131011,3.7854455,3
31153762531953,-0.5982057,9.116654,3.790231,3
31153764910807,-0.6269195,9.12144,3.804588,3
31153767289661,-0.66041905,9.135797,3.8093736,3
31153769668516,-0.6939186,9.111869,3.818945,3
31153772047370,-0.66041905,9.097511,3.8093736,3
31153774426224,-0.6652047,9.107083,3.8093736,3
31153776805078,-0.6652047,9.08794,3.7998023,3
31153779183880,-0.6843473,9.078369,3.7854455,3
31153781562734,-0.66999036,9.059227,3.8093736,3
31153783941588,-0.63170516,9.059227,3.7998023,3
31153786320443,-0.59342,9.044869,3.7998023,3
31153788699297,-0.57427746,9.078369,3.7998023,3
31153791078151,-0.526421,9.064013,3.7758741,3
31153793456953,-0.4977071,9.0544405,3.7710886,3
31153795835859,-0.47377887,9.044869,3.7758741,3
31153798214661,-0.4354937,9.059227,3.7998023,3
31153800593516,-0.42592242,9.059227,3.7998023,3
31153802972370,-0.41635114,9.068798,3.804588,3
31153805351224,-0.43070808,9.083155,3.7854455,3
31153807730078,-0.44506502,9.068798,3.7806597,3
31153810108932,-0.4977071,9.083155,3.7998023,3
31153812487734,-0.5168497,9.08794,3.7950168,3
31153814866588,-0.5455636,9.08794,3.804588,3
31153817245443,-0.57906306,9.102298,3.7998023,3
31153819624297,-0.6269195,9.12144,3.8380876,3
31153822003151,-0.6412765,9.107083,3.8285162,3
31153824382005,-0.6843473,9.131011,3.804588,3
31153826760859,-0.70348984,9.131011,3.7806597,3
31153829139661,-0.72741807,9.164511,3.804588,3
31153831518516,-0.71306115,9.174082,3.818945,3
31153833897370,-0.7178468,9.188439,3.8572302,3
31153836276224,-0.72263247,9.150154,3.8380876,3
31153838655078,-0.7082755,9.150154,3.8333018,3
31153841033932,-0.6795616,9.131011,3.8093736,3
31153843412734,-0.65084773,9.12144,3.7854455,3
31153845791641,-0.61734825,9.107083,3.7615173,3
31153848170443,-0.6029913,9.08794,3.7854455,3
31153850549245,-0.57906306,9.092726,3.818945,3
31153852928151,-0.5455636,9.078369,3.8476589,3
31153855307005,-0.5312066,9.064013,3.8285162,3
31153857685859,-0.5407779,9.044869,3.7998023,3
31153860064713,-0.56470615,9.059227,3.7758741,3
31153862443516,-0.57427746,9.044869,3.7615173,3
31153864822370,-0.5599205,9.030513,3.7998023,3
31153867201224,-0.57906306,9.030513,3.8285162,3
31153869580078,-0.5886344,9.020942,3.8380876,3
31153871958932,-0.64606214,9.016156,3.8333018,3
31153874337786,-0.6939186,9.044869,3.8237305,3
31153876716641,-0.72263247,9.059227,3.8141594,3
31153879095443,-0.7322037,9.059227,3.7854455,3
31153881474297,-0.7513463,9.049655,3.804588,3
31153883853151,-0.7513463,9.044869,3.8093736,3
31153886232005,-0.7513463,9.044869,3.8333018,3
31153888610859,-0.74177504,9.078369,3.8333018,3
31153890989713,-0.74177504,9.107083,3.818945,3
31153893368516,-0.72741807,9.126225,3.7710886,3
31153895747370,-0.6987042,9.126225,3.737589,3
31153898126224,-0.6412765,9.159725,3.7423747,3
31153900505078,-0.6029913,9.145369,3.7758741,3
31153902883932,-0.6029913,9.145369,3.8093736,3
31153905262786,-0.5838487,9.140582,3.818945,3
31153907641641,-0.56470615,9.131011,3.8237305,3
31153910020495,-0.526421,9.135797,3.8093736,3
31153912399297,-0.5024927,9.116654,3.7854455,3
31153914778151,-0.5168497,9.126225,3.790231,3
31153917157005,-0.5694918,9.116654,3.7854455,3
31153919535859,-0.55513483,9.12144,3.7998023,3
31153921914713,-0.56470615,9.092726,3.804588,3
31153924293568,-0.6364908,9.092726,3.7998023,3
31153926672370,-0.6556334,9.102298,3.7806597,3
31153929051224,-0.6939186,9.068798,3.7471602,3
31153931430078,-0.72263247,9.092726,3.7471602,3
31153933808880,-0.74177504,9.102298,3.737589,3
31153936187786,-0.7800602,9.08794,3.7663028,3
31153938566641,-0.7752745,9.073584,3.8141594,3
31153940945495,-0.7752745,9.073584,3.818945,3
31153943324297,-0.8039884,9.044869,3.804588,3
31153945703151,-0.7848458,9.040084,3.7615173,3
31153948082005,-0.7800602,9.025727,3.7758741,3
31153950460859,-0.7609176,9.030513,3.790231,3
31153952839713,-0.7322037,9.059227,3.8141594,3
31153955218568,-0.67477596,9.044869,3.804588,3
31153957597422,-0.6412765,9.064013,3.8093736,3
31153959976276,-0.61734825,9.073584,3.7950168,3
31153962355078,-0.57427746,9.078369,3.7806597,3
31153964733932,-0.53599226,9.097511,3.7854455,3
31153967112786,-0.526421,9.097511,3.7758741,3
31153969491641,-0.5312066,9.102298,3.7663028,3
31153971870495,-0.55513483,9.111869,3.7950168,3
31153974249349,-0.5886344,9.107083,3.7950168,3
31153976628203,-0.60777694,9.12144,3.790231,3
31153979007005,-0.63170516,9.116654,3.7758741,3
31153981385859,-0.66041905,9.107083,3.7758741,3
31153983764713,-0.6795616,9.131011,3.7806597,3
31153986143568,-0.72263247,9.102298,3.790231,3
31153988522422,-0.7513463,9.111869,3.7998023,3
31153990901276,-0.7848458,9.12144,3.7663028,3
31153993280078,-0.7848458,9.135797,3.7567315,3
31153995658932,-0.7752745,9.126225,3.7663028,3
31153998037786,-0.75613195,9.116654,3.7567315,3
31154000416641,-0.74177504,9.126225,3.7471602,3
31154002795495,-0.70348984,9.12144,3.7710886,3
31154005174349,-0.6891329,9.111869,3.7806597,3
31154007553203,-0.66041905,9.092726,3.7806597,3
31154009932005,-0.6221339,9.08794,3.7758741,3
31154012310859,-0.59342,9.078369,3.7663028,3
31154014689713,-0.55513483,9.064013,3.7663028,3
31154017068568,-0.5407779,9.040084,3.7950168,3
31154019447422,-0.5312066,9.035298,3.7998023,3
31154021826276,-0.5407779,9.040084,3.7998023,3
31154024205130,-0.55513483,9.020942,3.7998023,3
31154026583932,-0.55034924,9.030513,3.7758741,3
31154028962786,-0.57906306,9.0544405,3.7758741,3
31154031341641,-0.60777694,9.059227,3.7710886,3
31154033720495,-0.65084773,9.078369,3.7710886,3
31154036099349,-0.66999036,9.097511,3.7854455,3
31154038478203,-0.7178468,9.111869,3.818945,3
31154040857057,-0.7704889,9.073584,3.8237305,3
31154043235859,-0.7848458,9.08794,3.790231,3
31154045614713,-0.8327023,9.116654,3.7663028,3
31154047993568,-0.83748794,9.116654,3.8093736,3
31154050372422,-0.83748794,9.097511,3.8620157,3
31154052751276,-0.8470592,9.092726,3.8811584,3
31154055130130,-0.86141616,9.08794,3.8811584,3
31154057508984,-0.85184485,9.126225,3.8380876,3
31154059887786,-0.82313097,9.15494,3.804588,3
31154062266641,-0.79441714,9.12144,3.7950168,3
31154064645495,-0.7752745,9.135797,3.8141594,3
31154067024349,-0.7322037,9.116654,3.8380876,3
31154069403203,-0.6891329,9.116654,3.8237305,3
31154071782057,-0.6652047,9.116654,3.7806597,3
31154074160911,-0.6652047,9.131011,3.7471602,3
31154076539661,-0.6412765,9.126225,3.7423747,3
31154078918568,-0.59342,9.097511,3.7567315,3
31154081297422,-0.57906306,9.073584,3.7854455,3
31154083676276,-0.56470615,9.068798,3.8333018,3
31154086055130,-0.55513483,9.08794,3.8237305,3
31154088433984,-0.5599205,9.068798,3.7998023,3
31154090812838,-0.56470615,9.073584,3.751946,3
31154093191641,-0.5599205,9.059227,3.7471602,3
31154095570495,-0.5599205,9.064013,3.7663028,3
31154097949349,-0.57427746,9.064013,3.7854455,3
31154100328203,-0.60777694,9.064013,3.804588,3
31154102707005,-0.64606214,9.064013,3.7998023,3
31154105085911,-0.6795616,9.064013,3.790231,3
31154107464713,-0.67477596,9.073584,3.7758741,3
31154109843568,-0.6795616,9.073584,3.7710886,3
31154112222422,-0.70348984,9.078369,3.7710886,3
31154114601276,-0.6795616,9.064013,3.7950168,3
31154116980078,-0.6843473,9.059227,3.8093736,3
31154119358984,-0.6652047,9.078369,3.8237305,3
31154121737838,-0.6269195,9.064013,3.8141594,3
31154124116693,-0.5838487,9.083155,3.8093736,3
31154126495495,-0.55513483,9.083155,3.804588,3
31154128874349,-0.53599226,9.078369,3.7710886,3
31154131253203,-0.52163535,9.097511,3.7663028,3
31154133632057,-0.5072784,9.116654,3.7710886,3
31154136010911,-0.4642076,9.131011,3.790231,3
31154138389766,-0.44027936,9.102298,3.804588,3
31154140768568,-0.4354937,9.097511,3.7854455,3
31154143147422,-0.44985065,9.092726,3.7854455,3
31154145526276,-0.47377887,9.116654,3.790231,3
31154147905130,-0.4642076,9.131011,3.7998023,3
31154150283984,-0.47377887,9.102298,3.8093736,3
31154152662838,-0.49292147,9.107083,3.8093736,3
31154155041693,-0.5168497,9.116654,3.8237305,3
31154157420495,-0.56470615,9.111869,3.8285162,3
31154159799349,-0.56470615,9.12144,3.818945,3
31154162178203,-0.5982057,9.111869,3.8380876,3
31154164557005,-0.61734825,9.102298,3.8333018,3
31154166935911,-0.6269195,9.08794,3.8333018,3
31154169314766,-0.64606214,9.08794,3.8476589,3
31154171693620,-0.64606214,9.08794,3.8380876,3
31154174072474,-0.6412765,9.092726,3.8285162,3
31154176451276,-0.63170516,9.044869,3.8333018,3
31154178830130,-0.6029913,9.044869,3.8141594,3
31154181208984,-0.5886344,9.044869,3.8237305,3
31154183587838,-0.57427746,9.0544405,3.7998023,3
31154185966693,-0.5312066,9.044869,3.790231,3
31154188345547,-0.46899325,9.040084,3.7950168,3
31154190724349,-0.44985065,9.0544405,3.7423747,3
31154193103203,-0.40677986,9.040084,3.7328033,3
31154195482057,-0.37806597,9.040084,3.7758741,3
31154197860911,-0.3684947,9.049655,3.804588,3
31154200239766,-0.34456646,9.0544405,3.818945,3
31154202618620,-0.31585258,9.049655,3.8237305,3
31154204997474,-0.34456646,9.064013,3.818945,3
31154207376276,-0.3493521,9.078369,3.7758741,3
31154209755130,-0.33020952,9.102298,3.7471602,3
31154212133984,-0.33020952,9.111869,3.7423747,3
31154214512838,-0.33499518,9.12144,3.7567315,3
31154216891693,-0.3493521,9.145369,3.790231,3
31154219270547,-0.3684947,9.135797,3.804588,3
31154221649401,-0.37806597,9.150154,3.7998023,3
31154224028203,-0.41635114,9.15494,3.7806597,3
31154226407057,-0.46899325,9.15494,3.7806597,3
31154228785911,-0.5024927,9.150154,3.7710886,3
31154231164766,-0.526421,9.164511,3.7854455,3
31154233543620,-0.5455636,9.164511,3.7950168,3
31154235922474,-0.5694918,9.116654,3.804588,3
31154238301328,-0.57427746,9.126225,3.804588,3
31154240680130,-0.5982057,9.116654,3.7758741,3
31154243058932,-0.60777694,9.111869,3.7998023,3
31154245437838,-0.6029913,9.078369,3.818945,3
31154247816693,-0.5886344,9.064013,3.8141594,3
31154250195495,-0.57427746,9.0544405,3.8333018,3
31154252574401,-0.55034924,9.0544405,3.8285162,3
31154254953255,-0.5168497,9.049655,3.8141594,3
31154257332057,-0.49292147,9.044869,3.790231,3
31154259710911,-0.4642076,9.044869,3.7998023,3
31154262089766,-0.43070808,9.025727,3.7710886,3
31154264468620,-0.43070808,9.035298,3.7854455,3
31154266847474,-0.4211368,9.035298,3.790231,3
31154269226328,-0.39720857,9.020942,3.7950168,3
31154271605182,-0.3924229,9.025727,3.7950168,3
31154273983984,-0.40677986,9.020942,3.7854455,3
31154276362838,-0.4019942,9.049655,3.7854455,3
31154278741693,-0.38763726,9.078369,3.7663028,3
31154281120547,-0.4019942,9.107083,3.7998023,3
31154283499401,-0.4354937,9.111869,3.804588,3
31154285878255,-0.44027936,9.131011,3.818945,3
31154288257109,-0.47377887,9.131011,3.8285162,3
31154290635911,-0.4881358,9.135797,3.8237305,3
31154293014766,-0.5024927,9.116654,3.8093736,3
31154295393620,-0.5407779,9.159725,3.818945,3
31154297772474,-0.55034924,9.150154,3.8141594,3
31154300151328,-0.5838487,9.150154,3.804588,3
31154302530182,-0.5838487,9.111869,3.804588,3
31154304909036,-0.57427746,9.116654,3.7998023,3
31154307287838,-0.5694918,9.135797,3.7806597,3
31154309666693,-0.56470615,9.111869,3.7710886,3
31154312045547,-0.55034924,9.126225,3.7615173,3
31154314424401,-0.5312066,9.092726,3.7663028,3
31154316803255,-0.526421,9.092726,3.7710886,3
31154319182109,-0.5168497,9.097511,3.7710886,3
31154321560911,-0.49292147,9.092726,3.7806597,3
31154323939818,-0.4833502,9.078369,3.7663028,3
31154326318620,-0.46899325,9.068798,3.7854455,3
31154328697474,-0.4642076,9.059227,3.790231,3
31154331076328,-0.44985065,9.049655,3.7950168,3
31154333455182,-0.42592242,9.059227,3.7998023,3
31154335834036,-0.44027936,9.044869,3.790231,3
31154338212891,-0.46899325,9.059227,3.7806597,3
31154340591693,-0.5024927,9.0544405,3.7806597,3
31154342970547,-0.5312066,9.068798,3.7758741,3
31154345349401,-0.57427746,9.073584,3.7854455,3
31154347728255,-0.6029913,9.073584,3.8141594,3
31154350107109,-0.61734825,9.068798,3.818945,3
31154352485963,-0.6412765,9.068798,3.8285162,3
31154354864766,-0.6652047,9.092726,3.8285162,3
31154357243620,-0.70348984,9.092726,3.8141594,3
31154359622474,-0.6939186,9.12144,3.804588,3
31154362001328,-0.6843473,9.107083,3.7998023,3
31154364380182,-0.6556334,9.116654,3.7998023,3
31154366759036,-0.6364908,9.126225,3.8237305,3
31154369137891,-0.63170516,9.126225,3.8285162,3
31154371516693,-0.59342,9.140582,3.818945,3
31154373895547,-0.56470615,9.131011,3.7998023,3
31154376274401,-0.5455636,9.126225,3.7758741,3
31154378653255,-0.5024927,9.107083,3.7615173,3
31154381032109,-0.46899325,9.102298,3.7758741,3
31154383410963,-0.4546363,9.097511,3.7854455,3
31154385789818,-0.47856453,9.102298,3.7950168,3
31154388168672,-0.4642076,9.097511,3.7710886,3
31154390547474,-0.4546363,9.078369,3.7615173,3
31154392926328,-0.4642076,9.097511,3.7567315,3
31154395305182,-0.4977071,9.092726,3.7615173,3
31154397684036,-0.53599226,9.078369,3.7758741,3
31154400062891,-0.5838487,9.102298,3.7998023,3
31154402441745,-0.6125626,9.078369,3.7998023,3
31154404820599,-0.6843473,9.08794,3.7950168,3
31154407199401,-0.71306115,9.068798,3.7950168,3
31154409578255,-0.7322037,9.083155,3.7854455,3
31154411957109,-0.7369894,9.08794,3.7615173,3
31154414335963,-0.74177504,9.073584,3.7758741,3
31154416714818,-0.7513463,9.059227,3.8141594,3
31154419093672,-0.7178468,9.059227,3.818945,3
31154421472526,-0.6987042,9.068798,3.8141594,3
31154423851328,-0.66999036,9.078369,3.8093736,3
31154426230182,-0.61734825,9.078369,3.7998023,3
31154428609036,-0.57427746,9.083155,3.7950168,3
31154430987891,-0.5407779,9.068798,3.7950168,3
31154433366693,-0.4642076,9.064013,3.790231,3
31154435745599,-0.42592242,9.073584,3.8237305,3
31154438124453,-0.3924229,9.068798,3.8237305,3
31154440503255,-0.36370903,9.083155,3.804588,3
31154442882109,-0.36370903,9.097511,3.790231,3
31154445260963,-0.3924229,9.092726,3.7663028,3
31154447639818,-0.39720857,9.078369,3.7471602,3
31154450018672,-0.41156548,9.083155,3.751946,3
31154452397526,-0.44027936,9.111869,3.7567315,3
31154454776380,-0.4642076,9.131011,3.7758741,3
31154457155182,-0.51206404,9.145369,3.7806597,3
31154459534036,-0.5599205,9.140582,3.804588,3
31154461912891,-0.5838487,9.111869,3.804588,3
31154464291745,-0.6221339,9.107083,3.804588,3
31154466670599,-0.66999036,9.107083,3.8141594,3
31154469049453,-0.6939186,9.097511,3.8093736,3
31154471428307,-0.72741807,9.107083,3.8285162,3
31154473807109,-0.72741807,9.116654,3.8333018,3
31154476185963,-0.72741807,9.08794,3.818945,3
31154478564818,-0.72263247,9.08794,3.818945,3
31154480943672,-0.7178468,9.078369,3.8333018,3
31154483322526,-0.70348984,9.064013,3.8333018,3
31154485701380,-0.6652047,9.064013,3.8285162,3
31154488080234,-0.6364908,9.049655,3.8093736,3
31154490459036,-0.5982057,9.064013,3.790231,3
31154492837891,-0.57427746,9.059227,3.7758741,3
31154495216745,-0.55513483,9.049655,3.7710886,3
31154497595599,-0.5407779,9.068798,3.7710886,3
31154499974453,-0.5168497,9.083155,3.7854455,3
31154502353203,-0.4833502,9.073584,3.790231,3
31154504732161,-0.4881358,9.083155,3.7998023,3
31154507110963,-0.4833502,9.083155,3.7758741,3
31154509489818,-0.49292147,9.068798,3.7758741,3
31154511868672,-0.5024927,9.092726,3.7758741,3
31154514247526,-0.49292147,9.097511,3.7663028,3
31154516626380,-0.52163535,9.078369,3.7758741,3
31154519005234,-0.55513483,9.102298,3.7854455,3
31154521384088,-0.5982057,9.107083,3.7854455,3
31154523762943,-0.6125626,9.111869,3.7854455,3
31154526141745,-0.6364908,9.140582,3.7710886,3
31154528520599,-0.65084773,9.150154,3.7950168,3
31154530899453,-0.66041905,9.159725,3.7998023,3
31154533278307,-0.66041905,9.169296,3.7710886,3
31154535657161,-0.6412765,9.140582,3.790231,3
31154538036016,-0.64606214,9.140582,3.7758741,3
31154540414818,-0.6364908,9.135797,3.7567315,3
31154542793620,-0.59342,9.131011,3.7854455,3
31154545172526,-0.57906306,9.111869,3.790231,3
31154547551380,-0.55513483,9.116654,3.7950168,3
31154549930234,-0.5407779,9.116654,3.7950168,3
31154552309088,-0.52163535,9.073584,3.7998023,3
31154554687943,-0.47856453,9.064013,3.7950168,3
31154557066745,-0.49292147,9.068798,3.7854455,3
31154559445599,-0.5072784,9.078369,3.7998023,3
31154561824453,-0.52163535,9.0544405,3.7998023,3
31154564203307,-0.5455636,9.044869,3.7998023,3
31154566582161,-0.55513483,9.044869,3.8093736,3
31154568961016,-0.5694918,9.0544405,3.7950168,3
31154571339870,-0.55513483,9.035298,3.7806597,3
31154573718672,-0.57906306,9.049655,3.7758741,3
31154576097526,-0.59342,9.0544405,3.7663028,3
31154578476380,-0.6029913,9.064013,3.7854455,3
31154580855234,-0.6221339,9.064013,3.8093736,3
31154583234088,-0.65084773,9.073584,3.8141594,3
31154585612943,-0.6364908,9.083155,3.7854455,3
31154587991797,-0.61734825,9.08794,3.7854455,3
31154590370599,-0.61734825,9.097511,3.7950168,3
31154592749401,-0.59342,9.078369,3.8237305,3
31154595128307,-0.57427746,9.08794,3.8668015,3
31154597507161,-0.55513483,9.08794,3.871587,3
31154599886016,-0.55034924,9.12144,3.871587,3
31154602264870,-0.53599226,9.135797,3.8380876,3
31154604643724,-0.526421,9.111869,3.7806597,3
31154607022526,-0.5072784,9.140582,3.7710886,3
31154609401380,-0.5168497,9.150154,3.7854455,3
31154611780234,-0.53599226,9.126225,3.8141594,3
31154614159088,-0.55034924,9.12144,3.8476589,3
31154616537943,-0.5694918,9.135797,3.8141594,3
31154618916797,-0.57906306,9.135797,3.7950168,3
31154621295599,-0.5694918,9.116654,3.7615173,3
31154623674453,-0.57427746,9.08794,3.7710886,3
31154626053307,-0.56470615,9.092726,3.7758741,3
31154628432161,-0.55513483,9.102298,3.7950168,3
31154630811016,-0.5455636,9.083155,3.818945,3
31154633189870,-0.56470615,9.068798,3.842873,3
31154635568724,-0.5694918,9.059227,3.8285162,3
31154637947578,-0.56470615,9.059227,3.8093736,3
31154640326380,-0.55513483,9.0544405,3.804588,3
31154642705234,-0.57427746,9.044869,3.7998023,3
31154645084088,-0.52163535,9.0544405,3.790231,3
31154647462943,-0.5168497,9.059227,3.790231,3
31154649841797,-0.5168497,9.030513,3.7806597,3
31154652220651,-0.52163535,9.0544405,3.7854455,3
31154654599505,-0.5024927,9.059227,3.7758741,3
31154656978307,-0.5024927,9.064013,3.7615173,3
31154659357161,-0.51206404,9.092726,3.7710886,3
31154661736016,-0.5072784,9.083155,3.7758741,3
31154664114870,-0.5024927,9.092726,3.7806597,3
31154666493724,-0.5024927,9.08794,3.7758741,3
31154668872578,-0.5168497,9.111869,3.7854455,3
31154671251432,-0.52163535,9.111869,3.790231,3
31154673630286,-0.5312066,9.092726,3.7998023,3
31154676009088,-0.53599226,9.097511,3.8141594,3
31154678387943,-0.5312066,9.116654,3.804588,3
31154680766797,-0.5599205,9.150154,3.7998023,3
31154683145651,-0.56470615,9.150154,3.7950168,3
31154685524505,-0.5694918,9.145369,3.7806597,3
31154687903359,-0.57906306,9.135797,3.7854455,3
31154690282161,-0.5838487,9.135797,3.7758741,3
31154692661016,-0.5982057,9.140582,3.790231,3
31154695039870,-0.6029913,9.140582,3.790231,3
31154697418724,-0.6269195,9.12144,3.7758741,3
31154699797578,-0.6364908,9.126225,3.7854455,3
31154702176432,-0.60777694,9.116654,3.790231,3
31154704555286,-0.64606214,9.097511,3.7758741,3
31154706934088,-0.66041905,9.08794,3.7854455,3
31154709312943,-0.67477596,9.068798,3.7806597,3
31154711691797,-0.6412765,9.044869,3.7998023,3
31154714070651,-0.64606214,9.049655,3.818945,3
31154716449505,-0.65084773,9.064013,3.8093736,3
31154718828307,-0.65084773,9.040084,3.7806597,3
31154721207213,-0.6412765,9.059227,3.7758741,3
31154723586016,-0.6364908,9.068798,3.7710886,3
31154725964870,-0.6364908,9.083155,3.7854455,3
31154728343724,-0.64606214,9.044869,3.7998023,3
31154730722578,-0.6364908,9.0544405,3.790231,3
31154733101432,-0.6412765,9.064013,3.804588,3
31154735480286,-0.6221339,9.102298,3.818945,3
31154737859141,-0.6125626,9.078369,3.8237305,3
31154740237995,-0.5982057,9.097511,3.8285162,3
31154742616797,-0.57906306,9.08794,3.8141594,3
31154744995651,-0.55513483,9.102298,3.804588,3
31154747374505,-0.5407779,9.116654,3.804588,3
31154749753359,-0.5312066,9.107083,3.8237305,3
31154752132213,-0.5407779,9.131011,3.8141594,3
31154754511068,-0.526421,9.116654,3.8141594,3
31154756889922,-0.5168497,9.097511,3.818945,3
31154759268724,-0.4977071,9.102298,3.8333018,3
31154761647578,-0.4977071,9.12144,3.7998023,3
31154764026432,-0.51206404,9.097511,3.804588,3
31154766405286,-0.526421,9.107083,3.7806597,3
31154768784141,-0.53599226,9.12144,3.7998023,3
31154771162995,-0.52163535,9.111869,3.790231,3
31154773541745,-0.5694918,9.102298,3.7950168,3
31154775920651,-0.57427746,9.083155,3.8093736,3
31154778299505,-0.57427746,9.08794,3.818945,3
31154780678359,-0.5886344,9.083155,3.8141594,3
31154783057213,-0.5982057,9.073584,3.7998023,3
31154785436068,-0.57906306,9.073584,3.804588,3
31154787814922,-0.57906306,9.08794,3.7950168,3
31154790193776,-0.57906306,9.097511,3.7998023,3
31154792572578,-0.526421,9.068798,3.7854455,3
31154794951432,-0.52163535,9.092726,3.7758741,3
31154797330286,-0.526421,9.078369,3.7998023,3
31154799709141,-0.51206404,9.08794,3.7854455,3
31154802087995,-0.5072784,9.068798,3.7663028,3
31154804466849,-0.4833502,9.0544405,3.7710886,3
31154806845703,-0.4642076,9.073584,3.7663028,3
31154809224505,-0.44506502,9.083155,3.7758741,3
31154811603359,-0.45942193,9.092726,3.7806597,3
31154813982213,-0.46899325,9.083155,3.7854455,3
31154816361068,-0.4833502,9.073584,3.790231,3
31154818739922,-0.49292147,9.078369,3.7758741,3
31154821118776,-0.52163535,9.102298,3.7710886,3
31154823497630,-0.5407779,9.083155,3.7615173,3
31154825876432,-0.57427746,9.102298,3.7710886,3
31154828255286,-0.5838487,9.097511,3.790231,3
31154830634141,-0.5886344,9.111869,3.790231,3
31154833012995,-0.61734825,9.131011,3.7806597,3
31154835391849,-0.6364908,9.131011,3.7710886,3
31154837770703,-0.63170516,9.116654,3.7758741,3
31154840149557,-0.6364908,9.116654,3.7854455,3
31154842528359,-0.63170516,9.126225,3.7663028,3
31154844907213,-0.63170516,9.097511,3.7710886,3
31154847286068,-0.59342,9.08794,3.7615173,3
31154849664922,-0.55513483,9.116654,3.7758741,3
31154852043776,-0.5312066,9.107083,3.7758741,3
31154854422630,-0.5168497,9.107083,3.7854455,3
31154856801484,-0.47856453,9.092726,3.7806597,3
31154859180286,-0.47377887,9.092726,3.7663028,3
31154861559141,-0.47856453,9.092726,3.751946,3
31154863937995,-0.44506502,9.083155,3.7615173,3
31154866316849,-0.44985065,9.111869,3.7710886,3
31154868695703,-0.46899325,9.08794,3.7758741,3
31154871074557,-0.46899325,9.078369,3.7854455,3
31154873453411,-0.5024927,9.092726,3.790231,3
31154875832213,-0.5312066,9.08794,3.790231,3
31154878211068,-0.5694918,9.078369,3.7806597,3
31154880589922,-0.6029913,9.083155,3.7998023,3
31154882968776,-0.6125626,9.078369,3.7998023,3
31154885347630,-0.6412765,9.073584,3.8141594,3
31154887726484,-0.6652047,9.073584,3.8333018,3
31154890105338,-0.6843473,9.059227,3.8093736,3
31154892484141,-0.70348984,9.078369,3.8141594,3
31154894862995,-0.71306115,9.083155,3.8141594,3
31154897241849,-0.6987042,9.08794,3.818945,3
31154899620703,-0.6891329,9.116654,3.8237305,3
31154901999557,-0.67477596,9.107083,3.8285162,3
31154904378411,-0.66999036,9.102298,3.8141594,3
31154906757266,-0.66041905,9.092726,3.8285162,3
31154909136068,-0.6125626,9.08794,3.8237305,3
31154911514922,-0.57906306,9.068798,3.818945,3
31154913893776,-0.56470615,9.083155,3.8237305,3
31154916272630,-0.5312066,9.097511,3.818945,3
31154918651484,-0.5168497,9.083155,3.8141594,3
31154921030338,-0.5072784,9.092726,3.818945,3
31154923409193,-0.4881358,9.078369,3.8141594,3
31154925788047,-0.46899325,9.068798,3.790231,3
31154928166849,-0.44027936,9.073584,3.7854455,3
31154930545703,-0.44506502,9.097511,3.7854455,3
31154932924557,-0.45942193,9.092726,3.790231,3
31154935303411,-0.4642076,9.092726,3.790231,3
31154937682213,-0.46899325,9.08794,3.7806597,3
31154940061120,-0.5168497,9.083155,3.7663028,3
31154942439922,-0.5168497,9.0544405,3.7854455,3
31154944818776,-0.5072784,9.08794,3.7663028,3
31154947197630,-0.51206404,9.092726,3.7663028,3
31154949576484,-0.5168497,9.078369,3.7710886,3
31154951955338,-0.53599226,9.078369,3.7710886,3
31154954334193,-0.57906306,9.126225,3.7998023,3
31154956713047,-0.57427746,9.12144,3.8141594,3
31154959091901,-0.57427746,9.107083,3.8093736,3
31154961470755,-0.61734825,9.107083,3.7854455,3
31154963849557,-0.6125626,9.097511,3.7950168,3
31154966228411,-0.6125626,9.116654,3.7758741,3
31154968607266,-0.6221339,9.131011,3.790231,3
31154970986120,-0.6029913,9.135797,3.7950168,3
31154973364974,-0.5982057,9.102298,3.7950168,3
31154975743776,-0.57427746,9.097511,3.8093736,3
31154978122630,-0.5599205,9.102298,3.7950168,3
31154980501484,-0.5455636,9.083155,3.7998023,3
31154982880338,-0.53599226,9.064013,3.7998023,3
31154985259193,-0.52163535,9.083155,3.8093736,3
31154987638047,-0.5168497,9.0544405,3.8333018,3
31154990016901,-0.49292147,9.08794,3.8333018,3
31154992395755,-0.4881358,9.064013,3.818945,3
31154994774557,-0.4833502,9.068798,3.7998023,3
31154997153411,-0.47377887,9.049655,3.8141594,3
31154999532266,-0.46899325,9.044869,3.8141594,3
31155001911120,-0.44506502,9.0544405,3.8093736,3
31155004289974,-0.4546363,9.064013,3.7998023,3
31155006668828,-0.4642076,9.08794,3.804588,3
31155009047682,-0.4833502,9.078369,3.7998023,3
31155011426484,-0.47377887,9.078369,3.7998023,3
31155013805338,-0.47856453,9.078369,3.7998023,3
31155016184193,-0.4881358,9.073584,3.7998023,3
31155018563047,-0.49292147,9.078369,3.7950168,3
31155020941901,-0.47377887,9.083155,3.7950168,3
31155023320755,-0.47377887,9.097511,3.7998023,3
31155025699609,-0.5072784,9.08794,3.804588,3
31155028078463,-0.5072784,9.08794,3.8141594,3
31155030457213,-0.5168497,9.116654,3.8237305,3
31155032836120,-0.5072784,9.111869,3.8141594,3
31155035214974,-0.51206404,9.097511,3.7950168,3
31155037593828,-0.51206404,9.102298,3.7854455,3
31155039972682,-0.4977071,9.111869,3.818945,3
31155042351536,-0.47377887,9.107083,3.8141594,3
31155044730391,-0.46899325,9.097511,3.7950168,3
31155047109193,-0.4642076,9.111869,3.8093736,3
31155049488047,-0.47856453,9.102298,3.8093736,3
31155051866901,-0.46899325,9.111869,3.7950168,3
31155054245755,-0.47377887,9.102298,3.804588,3
31155056624609,-0.4642076,9.08794,3.7950168,3
31155059003463,-0.47856453,9.102298,3.7806597,3
31155061382266,-0.4833502,9.092726,3.7806597,3
31155063761172,-0.51206404,9.083155,3.790231,3
31155066139974,-0.5168497,9.08794,3.7806597,3
31155068518828,-0.526421,9.08794,3.7854455,3
31155070897682,-0.51206404,9.08794,3.8093736,3
31155073276536,-0.53599226,9.083155,3.7950168,3
31155075655391,-0.5407779,9.068798,3.7806597,3
31155078034193,-0.5455636,9.064013,3.7854455,3
31155080413047,-0.5599205,9.073584,3.790231,3
31155082791901,-0.5694918,9.068798,3.8141594,3
31155085170755,-0.5455636,9.068798,3.8333018,3
31155087549609,-0.55513483,9.073584,3.8333018,3
31155089928463,-0.5694918,9.059227,3.8237305,3
31155092307318,-0.55034924,9.059227,3.7950168,3
31155094686172,-0.5407779,9.059227,3.7710886,3
31155097064974,-0.53599226,9.073584,3.7615173,3
31155099443828,-0.52163535,9.116654,3.790231,3
31155101822682,-0.526421,9.111869,3.7998023,3
31155104201536,-0.52163535,9.107083,3.804588,3
31155106580391,-0.5312066,9.107083,3.7998023,3
31155108959245,-0.53599226,9.107083,3.7854455,3
31155111338099,-0.5407779,9.107083,3.7663028,3
31155113716901,-0.55513483,9.126225,3.7567315,3
31155116095755,-0.55513483,9.135797,3.7615173,3
31155118474609,-0.57427746,9.12144,3.790231,3
31155120853463,-0.57427746,9.116654,3.790231,3
31155123232318,-0.59342,9.092726,3.7998023,3
31155125611172,-0.60777694,9.102298,3.8141594,3
31155127990026,-0.6125626,9.107083,3.818945,3
31155130368880,-0.61734825,9.116654,3.8141594,3
31155132747682,-0.6364908,9.107083,3.7854455,3
31155135126536,-0.6221339,9.097511,3.7806597,3
31155137505391,-0.6029913,9.083155,3.7950168,3
31155139884193,-0.6125626,9.116654,3.7998023,3
31155142262995,-0.5982057,9.097511,3.7998023,3
31155144641953,-0.57906306,9.097511,3.7854455,3
31155147020807,-0.5455636,9.092726,3.7806597,3
31155149399609,-0.52163535,9.092726,3.7806597,3
31155151778463,-0.5024927,9.102298,3.7710886,3
31155154157318,-0.4881358,9.078369,3.7758741,3
31155156536172,-0.4642076,9.064013,3.8093736,3
31155158915026,-0.45942193,9.083155,3.7950168,3
31155161293880,-0.44506502,9.059227,3.790231,3
31155163672734,-0.47377887,9.064013,3.7950168,3
31155166051536,-0.47856453,9.073584,3.7615173,3
31155168430391,-0.5072784,9.078369,3.7663028,3
31155170809245,-0.526421,9.068798,3.7710886,3
31155173188099,-0.5407779,9.083155,3.7806597,3
31155175566953,-0.57906306,9.097511,3.7854455,3
31155177945807,-0.6221339,9.116654,3.7758741,3
31155180324766,-0.67477596,9.12144,3.7758741,3
31155182703463,-0.72263247,9.140582,3.7710886,3
31155185082318,-0.7369894,9.131011,3.790231,3
31155187461172,-0.75613195,9.145369,3.8141594,3
31155189840026,-0.7609176,9.140582,3.8237305,3
31155192218880,-0.7465607,9.131011,3.8141594,3
31155194597734,-0.71306115,9.140582,3.818945,3
31155196976588,-0.6795616,9.12144,3.804588,3
31155199355443,-0.6412765,9.131011,3.804588,3
31155201734245,-0.59342,9.097511,3.8093736,3
31155204113099,-0.55513483,9.102298,3.8093736,3
31155206491953,-0.4977071,9.102298,3.804588,3
31155208870807,-0.44985065,9.08794,3.790231,3
31155211249661,-0.39720857,9.092726,3.7950168,3
31155213628516,-0.35413775,9.097511,3.7950168,3
31155216007370,-0.34456646,9.083155,3.790231,3
31155218386172,-0.33020952,9.073584,3.7758741,3
31155220765026,-0.33020952,9.078369,3.7806597,3
31155223143880,-0.3397808,9.059227,3.790231,3
31155225522734,-0.39720857,9.064013,3.8141594,3
31155227901588,-0.41156548,9.064013,3.7998023,3
31155230280443,-0.46899325,9.08794,3.8141594,3
31155232659297,-0.53599226,9.083155,3.8093736,3
31155235038099,-0.6125626,9.116654,3.7998023,3
31155237416953,-0.66999036,9.102298,3.8093736,3
31155239795807,-0.72741807,9.092726,3.7998023,3
31155242174661,-0.7896315,9.107083,3.8093736,3
31155244553516,-0.8135597,9.135797,3.8093736,3
31155246932370,-0.80877405,9.131011,3.804588,3
31155249311172,-0.82313097,9.111869,3.818945,3
31155251690078,-0.7896315,9.107083,3.8141594,3
31155254068880,-0.7896315,9.111869,3.8237305,3
31155256447734,-0.7465607,9.116654,3.8141594,3
31155258826588,-0.6795616,9.140582,3.8237305,3
31155261205443,-0.63170516,9.107083,3.8237305,3
31155263584297,-0.5694918,9.111869,3.8141594,3
31155265963151,-0.526421,9.111869,3.7950168,3
31155268342005,-0.47856453,9.107083,3.7950168,3
31155270720807,-0.44027936,9.102298,3.7854455,3
31155273099661,-0.4211368,9.107083,3.7710886,3
31155275478516,-0.41635114,9.092726,3.7758741,3
31155277857370,-0.38763726,9.083155,3.7950168,3
31155280236224,-0.37806597,9.092726,3.7950168,3
31155282615078,-0.38763726,9.073584,3.7950168,3
31155284993880,-0.42592242,9.068798,3.7710886,3
31155287372734,-0.4546363,9.073584,3.751946,3
31155289751588,-0.4881358,9.08794,3.751946,3
31155292130443,-0.53599226,9.068798,3.7758741,3
31155294509297,-0.59342,9.064013,3.7710886,3
31155296888151,-0.6269195,9.078369,3.7615173,3
31155299267005,-0.6412765,9.102298,3.7710886,3
31155301645807,-0.6891329,9.102298,3.7806597,3
31155304024661,-0.72741807,9.102298,3.7806597,3
31155306403516,-0.7178468,9.097511,3.7758741,3
31155308782370,-0.71306115,9.097511,3.7950168,3
31155311161224,-0.6939186,9.116654,3.7950168,3
31155313540078,-0.66041905,9.116654,3.818945,3
31155315918932,-0.64606214,9.111869,3.8285162,3
31155318297786,-0.60777694,9.107083,3.818945,3
31155320676588,-0.53599226,9.083155,3.8093736,3
31155323055443,-0.4977071,9.111869,3.8141594,3
31155325434297,-0.4642076,9.107083,3.804588,3
31155327813151,-0.41156548,9.102298,3.8093736,3
31155330192005,-0.38285163,9.092726,3.790231,3
31155332570807,-0.33499518,9.092726,3.8141594,3
31155334949713,-0.31106696,9.107083,3.8237305,3
31155337328568,-0.29671,9.073584,3.7998023,3
31155339707370,-0.28713873,9.092726,3.7854455,3
31155342086224,-0.29671,9.097511,3.790231,3
31155344465078,-0.33020952,9.083155,3.7950168,3
31155346843932,-0.38763726,9.083155,3.8093736,3
31155349222786,-0.4354937,9.068798,3.8141594,3
31155351601641,-0.47377887,9.078369,3.818945,3
31155353980443,-0.5024927,9.102298,3.8237305,3
31155356359297,-0.52163535,9.078369,3.804588,3
31155358738151,-0.55513483,9.078369,3.7950168,3
31155361117005,-0.57427746,9.064013,3.7806597,3
31155363495859,-0.5982057,9.08794,3.7710886,3
31155365874713,-0.59342,9.068798,3.7615173,3
31155368253568,-0.5886344,9.064013,3.7854455,3
31155370632370,-0.57427746,9.068798,3.790231,3
31155373011224,-0.5455636,9.083155,3.790231,3
31155375390078,-0.5407779,9.073584,3.7615173,3
31155377768932,-0.53599226,9.08794,3.7806597,3
31155380147786,-0.4833502,9.097511,3.790231,3
31155382526641,-0.44985065,9.092726,3.7950168,3
31155384905495,-0.42592242,9.102298,3.7950168,3
31155387284349,-0.41635114,9.12144,3.7998023,3
31155389663151,-0.41156548,9.116654,3.804588,3
31155392042005,-0.41635114,9.116654,3.804588,3
31155394420859,-0.43070808,9.12144,3.804588,3
31155396799713,-0.44985065,9.135797,3.804588,3
31155399178568,-0.44506502,9.12144,3.790231,3
31155401557422,-0.44985065,9.083155,3.7806597,3
31155403936276,-0.4881358,9.073584,3.7998023,3
31155406315078,-0.5072784,9.097511,3.7854455,3
31155408693932,-0.5168497,9.08794,3.7567315,3
31155411072786,-0.51206404,9.08794,3.7710886,3
31155413451641,-0.5168497,9.111869,3.7854455,3
31155415830495,-0.526421,9.107083,3.7710886,3
31155418209349,-0.55513483,9.08794,3.7806597,3
31155420588203,-0.526421,9.08794,3.804588,3
31155422967005,-0.5024927,9.073584,3.7998023,3
31155425345859,-0.47377887,9.073584,3.804588,3
31155427724713,-0.47377887,9.073584,3.7806597,3
31155430103568,-0.44027936,9.083155,3.7758741,3
31155432482422,-0.4211368,9.059227,3.7758741,3
31155434861276,-0.41635114,9.049655,3.7663028,3
31155437240130,-0.4354937,9.073584,3.7710886,3
31155439618880,-0.4354937,9.08794,3.7615173,3
31155441997786,-0.42592242,9.092726,3.7567315,3
31155444376641,-0.4019942,9.097511,3.7615173,3
31155446755495,-0.4211368,9.097511,3.7567315,3
31155449134349,-0.4642076,9.097511,3.7615173,3
31155451513203,-0.47856453,9.078369,3.7567315,3
31155453892057,-0.4977071,9.107083,3.7710886,3
31155456270911,-0.49292147,9.107083,3.7806597,3
31155458649713,-0.46899325,9.126225,3.7950168,3
31155461028568,-0.47856453,9.145369,3.7950168,3
31155463407422,-0.4833502,9.12144,3.8093736,3
31155465786276,-0.47856453,9.131011,3.804588,3
31155468165130,-0.44985065,9.111869,3.7950168,3
31155470543984,-0.45942193,9.08794,3.804588,3
31155472922786,-0.47856453,9.097511,3.7950168,3
31155475301641,-0.47377887,9.102298,3.7950168,3
31155477680495,-0.4642076,9.102298,3.790231,3
31155480059349,-0.4546363,9.111869,3.7950168,3
31155482438203,-0.47377887,9.083155,3.8141594,3
31155484817057,-0.47377887,9.083155,3.8093736,3
31155487195911,-0.4642076,9.092726,3.818945,3
31155489574766,-0.45942193,9.08794,3.8141594,3
31155491953620,-0.44985065,9.083155,3.7854455,3
31155494332422,-0.44985065,9.078369,3.790231,3
31155496711276,-0.44506502,9.083155,3.7950168,3
31155499090130,-0.43070808,9.092726,3.8093736,3
31155501468984,-0.44027936,9.0544405,3.7950168,3
31155503847838,-0.44985065,9.068798,3.7950168,3
31155506226693,-0.44506502,9.073584,3.7998023,3
31155508605547,-0.44027936,9.078369,3.790231,3
31155510984401,-0.43070808,9.064013,3.7710886,3
31155513363203,-0.4354937,9.059227,3.7854455,3
31155515742005,-0.43070808,9.068798,3.7998023,3
31155518120911,-0.43070808,9.092726,3.7998023,3
31155520499766,-0.44985065,9.107083,3.804588,3
31155522878620,-0.46899325,9.145369,3.8093736,3
31155525257474,-0.44985065,9.126225,3.804588,3
31155527636276,-0.4354937,9.126225,3.8285162,3
31155530015130,-0.4211368,9.135797,3.8237305,3
31155532393984,-0.4211368,9.126225,3.804588,3
31155534772838,-0.4019942,9.126225,3.7998023,3
31155537151693,-0.3924229,9.131011,3.8093736,3
31155539530547,-0.38763726,9.126225,3.8141594,3
31155541909401,-0.36370903,9.135797,3.8093736,3
31155544288255,-0.3684947,9.126225,3.8141594,3
31155546667057,-0.4019942,9.116654,3.818945,3
31155549045911,-0.41635114,9.107083,3.804588,3
31155551424766,-0.44027936,9.116654,3.7950168,3
31155553803620,-0.44506502,9.102298,3.804588,3
31155556182474,-0.4546363,9.102298,3.818945,3
31155558561328,-0.4642076,9.092726,3.8333018,3
31155560940130,-0.5024927,9.068798,3.818945,3
31155563318984,-0.5168497,9.097511,3.8093736,3
31155565697838,-0.49292147,9.092726,3.818945,3
31155568076693,-0.4833502,9.078369,3.8237305,3
31155570455547,-0.4881358,9.08794,3.818945,3
31155572834401,-0.4881358,9.059227,3.804588,3
31155575213255,-0.4833502,9.059227,3.8141594,3
31155577592109,-0.47856453,9.068798,3.8093736,3
31155579970911,-0.44027936,9.068798,3.8141594,3
31155582349766,-0.43070808,9.078369,3.8093736,3
31155584728620,-0.40677986,9.064013,3.8093736,3
31155587107474,-0.40677986,9.083155,3.7998023,3
31155589486328,-0.37806597,9.092726,3.790231,3
31155591865182,-0.37806597,9.097511,3.804588,3
31155594244036,-0.36370903,9.083155,3.804588,3
31155596622838,-0.3684947,9.0544405,3.7806597,3
31155599001693,-0.34456646,9.092726,3.8093736,3
31155601380547,-0.3589234,9.092726,3.804588,3
31155603759401,-0.4019942,9.083155,3.7758741,3
31155606138255,-0.41635114,9.078369,3.7615173,3
31155608517109,-0.44027936,9.102298,3.7806597,3
31155610895963,-0.44027936,9.12144,3.7758741,3
31155613274818,-0.46899325,9.126225,3.7854455,3
31155615653620,-0.46899325,9.126225,3.790231,3
31155618032474,-0.49292147,9.116654,3.790231,3
31155620411328,-0.5024927,9.12144,3.7950168,3
31155622790182,-0.5072784,9.116654,3.790231,3
31155625169036,-0.5024927,9.135797,3.7950168,3
31155627547891,-0.5168497,9.15494,3.7950168,3
31155629926745,-0.5312066,9.126225,3.7950168,3
31155632305547,-0.52163535,9.116654,3.8093736,3
31155634684401,-0.5312066,9.12144,3.8141594,3
31155637063255,-0.5072784,9.097511,3.7998023,3
31155639442109,-0.47377887,9.102298,3.8093736,3
31155641820963,-0.46899325,9.107083,3.804588,3
31155644199818,-0.44985065,9.08794,3.8093736,3
31155646578672,-0.45942193,9.068798,3.8093736,3
31155648957474,-0.44027936,9.064013,3.8285162,3
31155651336328,-0.39720857,9.068798,3.7950168,3
31155653715182,-0.37806597,9.068798,3.790231,3
31155656094036,-0.3589234,9.068798,3.790231,3
31155658472891,-0.36370903,9.064013,3.790231,3
31155660851745,-0.37806597,9.059227,3.7806597,3
31155663230599,-0.3924229,9.068798,3.7998023,3
31155665609453,-0.4019942,9.073584,3.7854455,3
31155667988255,-0.41156548,9.08794,3.7854455,3
31155670367109,-0.4211368,9.092726,3.7950168,3
31155672745963,-0.44985065,9.083155,3.8093736,3
31155675124818,-0.45942193,9.102298,3.8141594,3
31155677503672,-0.4546363,9.102298,3.7950168,3
31155679882526,-0.4546363,9.116654,3.7806597,3
31155682261380,-0.45942193,9.116654,3.7998023,3
31155684640182,-0.4833502,9.107083,3.7998023,3
31155687019036,-0.4977071,9.092726,3.8093736,3
31155689397891,-0.46899325,9.116654,3.804588,3
31155691776745,-0.44985065,9.126225,3.7950168,3
31155694155599,-0.41635114,9.131011,3.7806597,3
31155696534453,-0.40677986,9.159725,3.7758741,3
31155698913307,-0.4019942,9.145369,3.7806597,3
31155701292109,-0.3924229,9.140582,3.7806597,3
31155703670963,-0.38285163,9.116654,3.790231,3
31155706049818,-0.36370903,9.116654,3.7806597,3
31155708428672,-0.3397808,9.12144,3.7663028,3
31155710807526,-0.3493521,9.097511,3.7710886,3
31155713186380,-0.3493521,9.097511,3.7854455,3
31155715565234,-0.3397808,9.073584,3.7758741,3
31155717944088,-0.34456646,9.078369,3.7806597,3
31155720322891,-0.37328035,9.064013,3.7758741,3
31155722701745,-0.38285163,9.073584,3.804588,3
31155725080599,-0.3924229,9.068798,3.8093736,3
31155727459453,-0.43070808,9.0544405,3.7950168,3
31155729838307,-0.45942193,9.078369,3.7806597,3
31155732217161,-0.47856453,9.078369,3.7615173,3
31155734596016,-0.5168497,9.083155,3.7710886,3
31155736974818,-0.49292147,9.08794,3.818945,3
31155739353672,-0.5168497,9.049655,3.8285162,3
31155741732526,-0.51206404,9.078369,3.8141594,3
31155744111380,-0.5072784,9.08794,3.7854455,3
31155746490234,-0.52163535,9.092726,3.7758741,3
31155748869088,-0.5024927,9.064013,3.7471602,3
31155751247943,-0.4977071,9.08794,3.8093736,3
31155753626797,-0.44506502,9.0544405,3.842873,3
31155756005599,-0.4354937,9.068798,3.8333018,3
31155758384453,-0.41156548,9.116654,3.804588,3
31155760763307,-0.3684947,9.126225,3.7806597,3
31155763142161,-0.3589234,9.102298,3.7423747,3
31155765521016,-0.3589234,9.111869,3.7806597,3
31155767899870,-0.3493521,9.102298,3.804588,3
31155770278724,-0.31106696,9.102298,3.8620157,3
31155772657526,-0.3062813,9.064013,3.8237305,3
31155775036380,-0.31106696,9.126225,3.8093736,3
31155777415234,-0.3062813,9.126225,3.7567315,3
31155779794088,-0.3397808,9.131011,3.7328033,3
31155782172943,-0.3924229,9.135797,3.7806597,3
31155784551797,-0.37328035,9.12144,3.8285162,3
31155786930651,-0.41156548,9.116654,3.8524444,3
31155789309453,-0.45942193,9.12144,3.8093736,3
31155791688307,-0.4642076,9.126225,3.8141594,3
31155794067161,-0.45942193,9.08794,3.7758741,3
31155796446016,-0.4881358,9.073584,3.7663028,3
31155798824870,-0.52163535,9.092726,3.7950168,3
31155801203724,-0.5072784,9.073584,3.8285162,3
31155803582578,-0.51206404,9.064013,3.8572302,3
31155805961380,-0.51206404,9.08794,3.871587,3
31155808340234,-0.46899325,9.107083,3.8476589,3
31155810719088,-0.44985065,9.08794,3.7950168,3
31155813097943,-0.44985065,9.083155,3.7615173,3
31155815476797,-0.45942193,9.064013,3.8093736,3
31155817855651,-0.4354937,9.040084,3.8285162,3
31155820234505,-0.41156548,9.064013,3.8380876,3
31155822613359,-0.39720857,9.073584,3.8572302,3
31155824992161,-0.3589234,9.064013,3.8237305,3
31155827371016,-0.3493521,9.092726,3.7854455,3
31155829749870,-0.34456646,9.078369,3.7950168,3
31155832128724,-0.32063824,9.092726,3.7998023,3
31155834507578,-0.3397808,9.102298,3.7950168,3
31155836886432,-0.32063824,9.102298,3.8237305,3
31155839265286,-0.3493521,9.126225,3.842873,3
31155841644088,-0.38763726,9.116654,3.8285162,3
31155844022943,-0.41156548,9.111869,3.790231,3
31155846401797,-0.39720857,9.150154,3.7854455,3
31155848780651,-0.43070808,9.150154,3.7950168,3
31155851159505,-0.4642076,9.135797,3.804588,3
31155853538359,-0.45942193,9.131011,3.8476589,3
31155855917213,-0.4642076,9.126225,3.8380876,3
31155858296068,-0.44985065,9.12144,3.8093736,3
31155860674922,-0.45942193,9.131011,3.7998023,3
31155863053724,-0.4642076,9.145369,3.790231,3
31155865432578,-0.4354937,9.135797,3.790231,3
31155867811432,-0.44506502,9.107083,3.7998023,3
31155870190286,-0.42592242,9.073584,3.8285162,3
31155872569141,-0.41156548,9.073584,3.8333018,3
31155874947995,-0.38285163,9.078369,3.8285162,3
31155877326797,-0.3684947,9.102298,3.8093736,3
31155879705651,-0.3684947,9.102298,3.790231,3
31155882084505,-0.3397808,9.073584,3.7950168,3
31155884463359,-0.35413775,9.078369,3.7854455,3
31155886842213,-0.3397808,9.073584,3.7950168,3
31155889221068,-0.34456646,9.049655,3.7998023,3
31155891599922,-0.34456646,9.049655,3.7998023,3
31155893978776,-0.35413775,9.068798,3.790231,3
31155896357578,-0.3589234,9.078369,3.7854455,3
31155898736432,-0.37806597,9.059227,3.7854455,3
31155901115286,-0.39720857,9.083155,3.790231,3
31155903494141,-0.4019942,9.092726,3.7950168,3
31155905872995,-0.4019942,9.092726,3.7950168,3
31155908251849,-0.42592242,9.102298,3.7950168,3
31155910630703,-0.42592242,9.092726,3.7806597,3
31155913009505,-0.44506502,9.116654,3.7710886,3
31155915388359,-0.4354937,9.097511,3.7854455,3
31155917767161,-0.41156548,9.126225,3.7950168,3
31155920146068,-0.39720857,9.116654,3.8141594,3
31155922524922,-0.3924229,9.126225,3.8141594,3
31155924903776,-0.3924229,9.107083,3.8141594,3
31155927282630,-0.38763726,9.111869,3.790231,3
31155929661380,-0.33020952,9.140582,3.7758741,3
31155932040286,-0.31585258,9.131011,3.804588,3
31155934419141,-0.31106696,9.116654,3.804588,3
31155936797995,-0.27756742,9.126225,3.8093736,3
31155939176849,-0.28713873,9.107083,3.7950168,3
31155941555703,-0.29192436,9.073584,3.7854455,3
31155943934557,-0.31106696,9.097511,3.7998023,3
31155946313359,-0.30149564,9.102298,3.7710886,3
31155948692213,-0.3062813,9.102298,3.7710886,3
31155951071068,-0.32063824,9.107083,3.7854455,3
31155953449922,-0.33499518,9.083155,3.7950168,3
31155955828776,-0.38285163,9.068798,3.804588,3
31155958207630,-0.3924229,9.068798,3.8093736,3
31155960586484,-0.38285163,9.078369,3.8093736,3
31155962965338,-0.41635114,9.068798,3.804588,3
31155965344141,-0.44985065,9.073584,3.8093736,3
31155967722995,-0.45942193,9.078369,3.8237305,3
31155970101849,-0.44506502,9.083155,3.8476589,3
31155972480703,-0.44027936,9.083155,3.8285162,3
31155974859557,-0.42592242,9.107083,3.8237305,3
31155977238411,-0.42592242,9.083155,3.7854455,3
31155979617266,-0.43070808,9.073584,3.7998023,3
31155981996120,-0.40677986,9.073584,3.818945,3
31155984374922,-0.3684947,9.0544405,3.842873,3
31155986753776,-0.3397808,9.078369,3.8333018,3
31155989132630,-0.32063824,9.083155,3.7998023,3
31155991511484,-0.29671,9.12144,3.7806597,3
31155993890338,-0.29192436,9.126225,3.7758741,3
31155996269193,-0.29192436,9.150154,3.8141594,3
31155998648047,-0.31585258,9.131011,3.8333018,3
31156001026849,-0.31106696,9.131011,3.8380876,3
31156003405703,-0.29671,9.107083,3.8141594,3
31156005784557,-0.3062813,9.111869,3.8141594,3
31156008163359,-0.32542387,9.111869,3.818945,3
31156010542266,-0.31585258,9.111869,3.8141594,3
31156012921120,-0.36370903,9.111869,3.8333018,3
31156015299974,-0.37328035,9.102298,3.818945,3
31156017678776,-0.4019942,9.12144,3.7998023,3
31156020057630,-0.41635114,9.126225,3.804588,3
31156022436484,-0.4019942,9.107083,3.818945,3
31156024815338,-0.4354937,9.092726,3.818945,3
31156027194193,-0.46899325,9.083155,3.7950168,3
31156029573047,-0.47377887,9.078369,3.7950168,3
31156031951901,-0.4642076,9.078369,3.7806597,3
31156034330755,-0.42592242,9.083155,3.751946,3
31156036709557,-0.41635114,9.102298,3.7758741,3
31156039088411,-0.40677986,9.092726,3.7854455,3
31156041467266,-0.35413775,9.083155,3.7806597,3
31156043846120,-0.34456646,9.078369,3.7854455,3
31156046224974,-0.3493521,9.107083,3.7806597,3
31156048603828,-0.32542387,9.08794,3.7567315,3
31156050982682,-0.3062813,9.102298,3.7567315,3
31156053361484,-0.28713873,9.092726,3.751946,3
31156055740338,-0.28235307,9.097511,3.751946,3
31156058119193,-0.29192436,9.097511,3.7567315,3
31156060498047,-0.29192436,9.111869,3.7758741,3
31156062876901,-0.29671,9.102298,3.804588,3
31156065255755,-0.33499518,9.107083,3.8093736,3
31156067634609,-0.3397808,9.126225,3.7950168,3
31156070013463,-0.37806597,9.145369,3.7854455,3
31156072392266,-0.3684947,9.135797,3.7854455,3
31156074771120,-0.3924229,9.131011,3.790231,3
31156077149974,-0.4211368,9.126225,3.8093736,3
31156079528828,-0.44506502,9.102298,3.818945,3
31156081907630,-0.4546363,9.107083,3.818945,3
31156084286536,-0.4354937,9.116654,3.818945,3
31156086665338,-0.44506502,9.12144,3.8237305,3
31156089044193,-0.43070808,9.126225,3.8237305,3
31156091423047,-0.4211368,9.092726,3.8237305,3
31156093801901,-0.37806597,9.083155,3.8380876,3
31156096180755,-0.37328035,9.097511,3.8572302,3
31156098559609,-0.34456646,9.068798,3.8285162,3
31156100938463,-0.33020952,9.092726,3.8285162,3
31156103317318,-0.32542387,9.073584,3.8237305,3
31156105696120,-0.30149564,9.073584,3.8333018,3
31156108074922,-0.29192436,9.073584,3.8141594,3
31156110453828,-0.29671,9.064013,3.8093736,3
31156112832682,-0.31106696,9.064013,3.8093736,3
31156115211536,-0.2727818,9.0544405,3.8093736,3
31156117590391,-0.30149564,9.049655,3.7998023,3
31156119969245,-0.29671,9.0544405,3.8141594,3
31156122348099,-0.33020952,9.059227,3.7950168,3
31156124726901,-0.3589234,9.064013,3.8093736,3
31156127105755,-0.35413775,9.068798,3.8141594,3
31156129484609,-0.36370903,9.08794,3.8141594,3
31156131863411,-0.39720857,9.116654,3.8141594,3
31156134242318,-0.4354937,9.092726,3.7950168,3
31156136621172,-0.45942193,9.097511,3.7950168,3
31156139000026,-0.4546363,9.111869,3.8141594,3
31156141378828,-0.44985065,9.140582,3.8524444,3
31156143757682,-0.46899325,9.092726,3.818945,3
31156146136536,-0.4642076,9.116654,3.818945,3
31156148515338,-0.44027936,9.131011,3.8524444,3
31156150894245,-0.4546363,9.12144,3.8380876,3
31156153273099,-0.45942193,9.12144,3.804588,3
31156155651953,-0.4211368,9.126225,3.790231,3
31156158030807,-0.39720857,9.126225,3.7567315,3
31156160409609,-0.42592242,9.12144,3.7854455,3
31156162788463,-0.41635114,9.116654,3.8333018,3
31156165167318,-0.41156548,9.116654,3.8476589,3
31156167546172,-0.41635114,9.08794,3.7758741,3
31156169925026,-0.41156548,9.0544405,3.751946,3
31156172303880,-0.3924229,9.083155,3.7328033,3
31156174682734,-0.41635114,9.097511,3.7567315,3
31156177061536,-0.4354937,9.092726,3.7998023,3
31156179440391,-0.4546363,9.073584,3.818945,3
31156181819245,-0.46899325,9.102298,3.790231,3
31156184198099,-0.44506502,9.131011,3.7710886,3
31156186576953,-0.46899325,9.111869,3.751946,3
31156188955807,-0.4881358,9.135797,3.7471602,3
31156191334661,-0.51206404,9.102298,3.7758741,3
31156193713516,-0.5312066,9.111869,3.8333018,3
31156196092318,-0.51206404,9.116654,3.8380876,3
31156198471172,-0.5024927,9.107083,3.8093736,3
31156200850026,-0.47856453,9.097511,3.790231,3
31156203228880,-0.45942193,9.078369,3.7806597,3
31156205607734,-0.47856453,9.102298,3.7663028,3
31156207986536,-0.46899325,9.126225,3.7854455,3
31156210365443,-0.46899325,9.111869,3.8333018,3
31156212744245,-0.4546363,9.116654,3.8524444,3
31156215123099,-0.43070808,9.126225,3.818945,3
31156217501953,-0.41635114,9.111869,3.7950168,3
31156219880807,-0.41635114,9.092726,3.7710886,3
31156222259661,-0.37806597,9.078369,3.7806597,3
31156224638516,-0.3493521,9.08794,3.804588,3
31156227017370,-0.31585258,9.102298,3.818945,3
31156229396224,-0.3397808,9.097511,3.8285162,3
31156231775026,-0.32542387,9.083155,3.8285162,3
31156234153880,-0.35413775,9.078369,3.8141594,3
31156236532734,-0.35413775,9.08794,3.7854455,3
31156238911588,-0.34456646,9.102298,3.7854455,3
31156241290443,-0.38763726,9.08794,3.804588,3
31156243669297,-0.38763726,9.08794,3.804588,3
31156246048151,-0.40677986,9.08794,3.7998023,3
31156248426953,-0.42592242,9.102298,3.7998023,3
31156250805807,-0.44506502,9.097511,3.7854455,3
31156253184661,-0.45942193,9.083155,3.7806597,3
31156255563516,-0.4642076,9.107083,3.790231,3
31156257942370,-0.44985065,9.116654,3.818945,3
31156260321224,-0.47377887,9.102298,3.8333018,3
31156262700078,-0.4833502,9.083155,3.8333018,3
31156265078880,-0.4833502,9.092726,3.8237305,3
31156267457734,-0.4977071,9.08794,3.7998023,3
31156269836588,-0.47377887,9.097511,3.8093736,3
31156272215443,-0.44027936,9.12144,3.8141594,3
31156274594297,-0.4211368,9.126225,3.8141594,3
31156276973151,-0.41156548,9.116654,3.8141594,3
31156279352005,-0.4211368,9.097511,3.8237305,3
31156281730807,-0.4211368,9.111869,3.8093736,3
31156284109661,-0.39720857,9.126225,3.7806597,3
31156286488516,-0.3493521,9.111869,3.7854455,3
31156288867370,-0.36370903,9.08794,3.7998023,3
31156291246224,-0.3589234,9.097511,3.8141594,3
31156293625078,-0.36370903,9.092726,3.8093736,3
31156296003932,-0.35413775,9.083155,3.8093736,3
31156298382786,-0.33499518,9.097511,3.804588,3
31156300761641,-0.35413775,9.102298,3.7950168,3
31156303140443,-0.3493521,9.068798,3.7854455,3
31156305519297,-0.3589234,9.078369,3.790231,3
31156307898151,-0.38763726,9.078369,3.8141594,3
31156310277005,-0.37328035,9.059227,3.804588,3
31156312655859,-0.38763726,9.068798,3.8285162,3
31156315034713,-0.40677986,9.040084,3.8333018,3
31156317413568,-0.4211368,9.0544405,3.790231,3
31156319792370,-0.44506502,9.073584,3.7806597,3
31156322171224,-0.47377887,9.073584,3.7854455,3
31156324550078,-0.47856453,9.08794,3.7615173,3
31156326928932,-0.4881358,9.097511,3.7710886,3
31156329307786,-0.5024927,9.102298,3.7806597,3
31156331686641,-0.47856453,9.126225,3.7663028,3
31156334065495,-0.4833502,9.126225,3.7806597,3
31156336444297,-0.46899325,9.131011,3.7806597,3
31156338823151,-0.45942193,9.140582,3.7998023,3
31156341202005,-0.4211368,9.12144,3.8141594,3
31156343580859,-0.4211368,9.102298,3.790231,3
31156345959713,-0.38763726,9.12144,3.804588,3
31156348338568,-0.35413775,9.111869,3.8093736,3
31156350717422,-0.34456646,9.126225,3.8141594,3
31156353096276,-0.33020952,9.126225,3.8093736,3
31156355475078,-0.31106696,9.111869,3.7950168,3
31156357853932,-0.31585258,9.135797,3.7758741,3
31156360232786,-0.30149564,9.12144,3.7806597,3
31156362611641,-0.32063824,9.116654,3.7806597,3
31156364990495,-0.33499518,9.097511,3.7998023,3
31156367369349,-0.3397808,9.102298,3.7950168,3
31156369748203,-0.37806597,9.092726,3.7998023,3
31156372127005,-0.39720857,9.078369,3.804588,3
31156374505859,-0.42592242,9.083155,3.818945,3
31156376884713,-0.44985065,9.064013,3.7998023,3
31156379263568,-0.4546363,9.064013,3.8141594,3
31156381642422,-0.47377887,9.083155,3.7998023,3
31156384021276,-0.52163535,9.064013,3.804588,3
31156386400130,-0.5407779,9.073584,3.7806597,3
31156388778984,-0.5455636,9.068798,3.790231,3
31156391157786,-0.53599226,9.073584,3.7663028,3
31156393536641,-0.5312066,9.078369,3.7758741,3
31156395915495,-0.53599226,9.12144,3.7854455,3
31156398294349,-0.53599226,9.126225,3.7998023,3
31156400673203,-0.51206404,9.107083,3.7950168,3
31156403052057,-0.4642076,9.111869,3.7854455,3
31156405430911,-0.42592242,9.150154,3.7854455,3
31156407809713,-0.41156548,9.135797,3.804588,3
31156410188568,-0.41156548,9.140582,3.8093736,3
31156412567422,-0.37806597,9.131011,3.8093736,3
31156414946276,-0.37328035,9.116654,3.8285162,3
31156417325130,-0.37328035,9.111869,3.8380876,3
31156419703984,-0.37328035,9.092726,3.8668015,3
31156422082838,-0.3924229,9.097511,3.842873,3
31156424461641,-0.40677986,9.078369,3.842873,3
31156426840443,-0.44985065,9.083155,3.8141594,3
31156429219349,-0.4546363,9.073584,3.7663028,3
31156431598203,-0.4833502,9.083155,3.7280176,3
31156433977057,-0.4977071,9.078369,3.737589,3
31156436355911,-0.52163535,9.102298,3.7615173,3
31156438734766,-0.56470615,9.116654,3.7710886,3
31156441113620,-0.5982057,9.111869,3.7710886,3
31156443492474,-0.5982057,9.097511,3.7758741,3
31156445871276,-0.5982057,9.097511,3.7328033,3
31156448250130,-0.6125626,9.116654,3.737589,3
31156450628984,-0.6125626,9.107083,3.7806597,3
31156453007786,-0.57427746,9.08794,3.8093736,3
31156455386693,-0.5599205,9.097511,3.8237305,3
31156457765547,-0.55034924,9.111869,3.8524444,3
31156460144401,-0.5168497,9.092726,3.8380876,3
31156462523203,-0.4977071,9.097511,3.8476589,3
31156464902057,-0.4833502,9.073584,3.842873,3
31156467280911,-0.46899325,9.083155,3.842873,3
31156469659766,-0.4642076,9.078369,3.842873,3
31156472038620,-0.44985065,9.078369,3.8333018,3
31156474417474,-0.44506502,9.08794,3.804588,3
31156476796328,-0.44506502,9.083155,3.7806597,3
31156479175182,-0.4354937,9.097511,3.7806597,3
31156481553984,-0.4354937,9.092726,3.7567315,3
31156483932838,-0.45942193,9.08794,3.7663028,3
31156486311693,-0.47377887,9.102298,3.7758741,3
31156488690547,-0.5168497,9.102298,3.7710886,3
31156491069401,-0.526421,9.102298,3.7758741,3
31156493448255,-0.55513483,9.102298,3.7950168,3
31156495827109,-0.57906306,9.102298,3.804588,3
31156498205911,-0.5886344,9.116654,3.8093736,3
31156500584766,-0.6125626,9.107083,3.8093736,3
31156502963620,-0.63170516,9.102298,3.818945,3
31156505342474,-0.6364908,9.092726,3.8237305,3
31156507721328,-0.63170516,9.107083,3.8237305,3
31156510100182,-0.6412765,9.107083,3.842873,3
31156512479036,-0.6125626,9.126225,3.8476589,3
31156514857891,-0.59342,9.126225,3.8285162,3
31156517236693,-0.5838487,9.102298,3.804588,3
31156519615547,-0.5455636,9.111869,3.7998023,3
31156521994401,-0.5024927,9.097511,3.7806597,3
31156524373255,-0.4642076,9.102298,3.7998023,3
31156526752109,-0.4211368,9.092726,3.790231,3
31156529130963,-0.4211368,9.111869,3.7806597,3
31156531509818,-0.38763726,9.116654,3.7615173,3
31156533888620,-0.38285163,9.083155,3.7615173,3
31156536267474,-0.3684947,9.092726,3.7710886,3
31156538646328,-0.36370903,9.102298,3.7950168,3
31156541025182,-0.3684947,9.083155,3.804588,3
31156543404036,-0.39720857,9.092726,3.7950168,3
31156545782891,-0.4019942,9.064013,3.7854455,3
31156548161745,-0.3924229,9.078369,3.7806597,3
31156550540599,-0.4019942,9.083155,3.7758741,3
31156552919401,-0.44027936,9.078369,3.790231,3
31156555298255,-0.47377887,9.083155,3.804588,3
31156557677109,-0.5024927,9.08794,3.818945,3
31156560055963,-0.5168497,9.073584,3.8141594,3
31156562434818,-0.5312066,9.078369,3.7998023,3
31156564813672,-0.5407779,9.08794,3.7998023,3
31156567192526,-0.5312066,9.083155,3.8093736,3
31156569571328,-0.5312066,9.102298,3.7998023,3
31156571950182,-0.526421,9.111869,3.818945,3
31156574329036,-0.5024927,9.107083,3.8093736,3
31156576707838,-0.4977071,9.135797,3.804588,3
31156579086745,-0.44506502,9.116654,3.8093736,3
31156581465599,-0.42592242,9.12144,3.8093736,3
31156583844453,-0.39720857,9.126225,3.7950168,3
31156586223255,-0.38763726,9.12144,3.7950168,3
31156588602109,-0.38285163,9.08794,3.7998023,3
31156590980963,-0.38285163,9.078369,3.804588,3
31156593359818,-0.37806597,9.08794,3.7950168,3
31156595738672,-0.3589234,9.083155,3.790231,3
31156598117526,-0.38285163,9.102298,3.7950168,3
31156600496380,-0.40677986,9.116654,3.804588,3
31156602875234,-0.43070808,9.135797,3.7950168,3
31156605254036,-0.4546363,9.12144,3.8093736,3
31156607632891,-0.47377887,9.111869,3.7998023,3
31156610011745,-0.5024927,9.116654,3.8141594,3
31156612390599,-0.5312066,9.097511,3.8141594,3
31156614769453,-0.5168497,9.083155,3.8285162,3
31156617148307,-0.5407779,9.064013,3.8333018,3
31156619527161,-0.526421,9.078369,3.8285162,3
31156621906016,-0.49292147,9.102298,3.8237305,3
31156624284818,-0.47856453,9.092726,3.8141594,3
31156626663672,-0.4642076,9.102298,3.818945,3
31156629042474,-0.4546363,9.107083,3.8237305,3
31156631421380,-0.4019942,9.097511,3.7950168,3
31156633800234,-0.3493521,9.08794,3.818945,3
31156636179088,-0.3397808,9.097511,3.804588,3
31156638557943,-0.31585258,9.102298,3.804588,3
31156640936745,-0.29671,9.102298,3.7998023,3
31156643315599,-0.27756742,9.08794,3.8093736,3
31156645694453,-0.29671,9.078369,3.8333018,3
31156648073307,-0.31106696,9.107083,3.842873,3
31156650452161,-0.29671,9.107083,3.8285162,3
31156652831016,-0.31106696,9.107083,3.8237305,3
31156655209870,-0.32542387,9.092726,3.7998023,3
31156657588672,-0.36370903,9.097511,3.8093736,3
31156659967526,-0.4211368,9.131011,3.804588,3
