t_ns,ax,ay,az,bx,by,bz
30521306218639,0.13399807,9.159725,3.278167,0.0,0.0,0.0
30521308597546,0.17228323,9.12144,3.751946,0.0,0.0,0.0
30521310976452,0.22492532,8.992228,4.278367,0.0,0.0,0.0
30521313355358,0.22971097,8.9826565,4.4554358,0.0,0.0,0.0
30521315734316,0.2105684,9.049655,4.2017965,0.0,0.0,0.0
30521318113223,0.20578274,9.083155,3.723232,0.0,0.0,0.0
30521320492129,0.18664017,9.102298,3.3882368,0.0,0.0,0.0
30521322871035,0.086141616,9.135797,3.4217365,0.0,0.0,0.0
30521325249941,-0.02871387,9.092726,3.7950168,0.0,0.0,0.0
30521327628848,-0.11485548,9.030513,4.2161536,0.0,0.0,0.0
30521330007806,-0.25842485,9.020942,4.3501515,0.0,0.0,0.0
30521332386712,-0.33499518,9.064013,4.1635113,0.0,0.0,0.0
30521334765619,-0.38285163,9.107083,3.8093736,0.0,0.0,0.0
30521337144525,-0.42592242,9.12144,3.5174494,0.0,0.0,0.0
30521339523431,-0.5024927,9.150154,3.5030923,0.0,0.0,0.0
30521341902285,-0.51206404,9.102298,3.7854455,0.0,0.0,0.0
30521344281244,-0.5072784,9.049655,4.0773697,0.0,0.0,0.0
30521346660150,-0.45942193,9.059227,4.206582,0.0,0.0,0.0
30521349039108,-0.3924229,9.078369,4.082155,0.0,0.0,0.0
30521351418014,-0.32063824,9.092726,3.8093736,0.0,0.0,0.0
30521353796921,-0.21535404,9.135797,3.5844483,0.0,0.0,0.0
30521356175827,-0.13399807,9.135797,3.5892339,0.0,0.0,0.0
30521358554733,-0.033499517,9.107083,3.7471602,0.0,0.0,0.0
30521360933639,0.033499517,9.078369,3.991228,0.0,0.0,0.0
30521363312598,0.09092726,9.083155,4.101298,0.0,0.0,0.0
30521365691504,0.13878371,9.083155,4.0151563,0.0,0.0,0.0
30521368070410,0.14356937,9.083155,3.7950168,0.0,0.0,0.0
30521370449316,0.13399807,9.107083,3.6083765,0.0,0.0,0.0
30521372828223,0.124426775,9.12144,3.6083765,0.0,0.0,0.0
30521375207129,0.014356935,9.068798,3.7615173,0.0,0.0,0.0
30521377586035,-0.0526421,9.064013,3.9338005,0.0,0.0,0.0
30521379964994,-0.13878371,9.044869,4.0103707,0.0,0.0,0.0
30521382343900,-0.20578274,9.064013,3.9338005,0.0,0.0,0.0
30521384722806,-0.28235307,9.073584,3.7854455,0.0,0.0,0.0
30521387101712,-0.36370903,9.126225,3.6849468,0.0,0.0,0.0
30521389480619,-0.43070808,9.107083,3.6610186,0.0,0.0,0.0
30521391859525,-0.4881358,9.083155,3.7806597,0.0,0.0,0.0
30521394238483,-0.51206404,9.078369,3.9290147,0.0,0.0,0.0
30521396617389,-0.52163535,9.078369,4.0103707,0.0,0.0,0.0
30521398996296,-0.53599226,9.064013,3.9768713,0.0,0.0,0.0
30521401375202,-0.5072784,9.08794,3.8620157,0.0,0.0,0.0
30521403754108,-0.47856453,9.097511,3.7663028,0.0,0.0,0.0
30521406133014,-0.4354937,9.097511,3.7471602,0.0,0.0,0.0
30521408511921,-0.3924229,9.078369,3.8141594,0.0,0.0,0.0
30521410890827,-0.33499518,9.073584,3.9098723,0.0,0.0,0.0
30521413269785,-0.24885355,9.083155,3.9720855,0.0,0.0,0.0
30521415648691,-0.22971097,9.083155,3.9338005,0.0,0.0,0.0
30521418027598,-0.19621146,9.068798,3.8524444,0.0,0.0,0.0
30521420406452,-0.13399807,9.068798,3.790231,0.0,0.0,0.0
30521422785410,-0.11964113,9.092726,3.7710886,0.0,0.0,0.0
30521425164316,-0.11964113,9.073584,3.8237305,0.0,0.0,0.0
30521427543275,-0.14356937,9.049655,3.9146578,0.0,0.0,0.0
30521429922181,-0.16749759,9.044869,3.9290147,0.0,0.0,0.0
30521432301087,-0.21535404,9.044869,3.885944,0.0,0.0,0.0
30521434679994,-0.24885355,9.040084,3.8333018,0.0,0.0,0.0
30521437058900,-0.29671,9.0544405,3.7998023,0.0,0.0,0.0
30521439437806,-0.3589234,9.0544405,3.7950168,0.0,0.0,0.0
30521441816712,-0.4019942,9.0544405,3.8237305,0.0,0.0,0.0
30521444195671,-0.4642076,9.092726,3.8333018,0.0,0.0,0.0
30521446574577,-0.51206404,9.102298,3.818945,0.0,0.0,0.0
30521448953483,-0.53599226,9.097511,3.8237305,0.0,0.0,0.0
30521451332389,-0.56470615,9.107083,3.818945,0.0,0.0,0.0
30521453711296,-0.5599205,9.111869,3.8333018,0.0,0.0,0.0
30521456090202,-0.5455636,9.111869,3.8476589,0.0,0.0,0.0
30521458469108,-0.5407779,9.116654,3.8668015,0.0,0.0,0.0
30521460848066,-0.5072784,9.092726,3.8620157,0.0,0.0,0.0
30521463226973,-0.47856453,9.097511,3.842873,0.0,0.0,0.0
30521465605879,-0.4211368,9.092726,3.842873,0.0,0.0,0.0
30521467984785,-0.39720857,9.111869,3.8333018,0.0,0.0,0.0
30521470363691,-0.3493521,9.12144,3.8285162,0.0,0.0,0.0
30521472742598,-0.31585258,9.102298,3.8524444,0.0,0.0,0.0
30521475121556,-0.27756742,9.097511,3.8476589,0.0,0.0,0.0
30521477500462,-0.24885355,9.107083,3.8380876,0.0,0.0,0.0
30521479879369,-0.22013968,9.135797,3.8572302,0.0,0.0,0.0
30521482258275,-0.18664017,9.097511,3.8476589,0.0,0.0,0.0
30521484637181,-0.15792629,9.068798,3.8285162,0.0,0.0,0.0
30521487016087,-0.17706887,9.049655,3.8524444,0.0,0.0,0.0
30521489394994,-0.17228323,9.068798,3.8572302,0.0,0.0,0.0
30521491773952,-0.19142582,9.059227,3.871587,0.0,0.0,0.0
30521494152858,-0.23449662,9.083155,3.871587,0.0,0.0,0.0
30521496531764,-0.23928227,9.064013,3.8668015,0.0,0.0,0.0
30521498910671,-0.26799613,9.078369,3.8476589,0.0,0.0,0.0
30521501289577,-0.3062813,9.08794,3.8572302,0.0,0.0,0.0
30521503668483,-0.32542387,9.068798,3.8620157,0.0,0.0,0.0
30521506047389,-0.35413775,9.08794,3.8668015,0.0,0.0,0.0
30521508426348,-0.36370903,9.092726,3.871587,0.0,0.0,0.0
30521510805254,-0.38285163,9.073584,3.842873,0.0,0.0,0.0
30521513184160,-0.3684947,9.08794,3.8620157,0.0,0.0,0.0
30521515563066,-0.35413775,9.102298,3.842873,0.0,0.0,0.0
30521517941973,-0.34456646,9.107083,3.8380876,0.0,0.0,0.0
30521520320879,-0.31106696,9.073584,3.8620157,0.0,0.0,0.0
30521522699785,-0.2536392,9.083155,3.885944,0.0,0.0,0.0
30521525078744,-0.2105684,9.092726,3.9242291,0.0,0.0,0.0
30521527457650,-0.15792629,9.092726,3.9242291,0.0,0.0,0.0
30521529836556,-0.14356937,9.068798,3.9050865,0.0,0.0,0.0
30521532215462,-0.1052842,9.068798,3.885944,0.0,0.0,0.0
30521534594369,-0.05742774,9.092726,3.900301,0.0,0.0,0.0
30521536973275,-0.0526421,9.102298,3.9290147,0.0,0.0,0.0
30521539352181,-0.05742774,9.097511,3.938586,0.0,0.0,0.0
30521541731139,-0.062213387,9.102298,3.9433718,0.0,0.0,0.0
30521544110046,-0.06699903,9.102298,3.9481573,0.0,0.0,0.0
30521546488952,-0.08135597,9.083155,3.9242291,0.0,0.0,0.0
30521548867858,-0.086141616,9.064013,3.8955152,0.0,0.0,0.0
30521551246764,-0.13878371,9.068798,3.885944,0.0,0.0,0.0
30521553625671,-0.17228323,9.040084,3.8907297,0.0,0.0,0.0
30521556004629,-0.19142582,9.040084,3.8811584,0.0,0.0,0.0
30521558383535,-0.21535404,9.044869,3.8811584,0.0,0.0,0.0
30521560762441,-0.2632105,9.064013,3.8524444,0.0,0.0,0.0
30521563141348,-0.26799613,9.025727,3.8285162,0.0,0.0,0.0
30521565520254,-0.29671,9.049655,3.804588,0.0,0.0,0.0
30521567899160,-0.29192436,9.044869,3.7950168,0.0,0.0,0.0
30521570278066,-0.3062813,9.064013,3.7950168,0.0,0.0,0.0
30521572657025,-0.3062813,9.044869,3.8141594,0.0,0.0,0.0
30521575035931,-0.31106696,9.059227,3.818945,0.0,0.0,0.0
30521577414837,-0.30149564,9.073584,3.8093736,0.0,0.0,0.0
30521579793744,-0.29192436,9.083155,3.8285162,0.0,0.0,0.0
30521582172650,-0.2632105,9.08794,3.8333018,0.0,0.0,0.0
30521584551556,-0.22013968,9.078369,3.8237305,0.0,0.0,0.0
30521586930462,-0.22971097,9.097511,3.8333018,0.0,0.0,0.0
30521589309421,-0.25842485,9.116654,3.8380876,0.0,0.0,0.0
30521591688327,-0.2727818,9.135797,3.8476589,0.0,0.0,0.0
30521594067233,-0.27756742,9.111869,3.8620157,0.0,0.0,0.0
30521596446139,-0.25842485,9.12144,3.8524444,0.0,0.0,0.0
30521598825046,-0.28713873,9.145369,3.8572302,0.0,0.0,0.0
30521601203952,-0.3062813,9.131011,3.8620157,0.0,0.0,0.0
30521603582858,-0.32063824,9.116654,3.871587,0.0,0.0,0.0
30521605961816,-0.3062813,9.131011,3.8955152,0.0,0.0,0.0
30521608340723,-0.33020952,9.12144,3.900301,0.0,0.0,0.0
30521610719629,-0.31106696,9.107083,3.8763726,0.0,0.0,0.0
30521613098535,-0.28235307,9.092726,3.8763726,0.0,0.0,0.0
30521615477441,-0.27756742,9.083155,3.8763726,0.0,0.0,0.0
30521617856348,-0.27756742,9.073584,3.8763726,0.0,0.0,0.0
30521620235254,-0.25842485,9.064013,3.8955152,0.0,0.0,0.0
30521622614212,-0.22971097,9.049655,3.8811584,0.0,0.0,0.0
30521624993119,-0.23928227,9.040084,3.8763726,0.0,0.0,0.0
30521627372025,-0.22013968,9.040084,3.8907297,0.0,0.0,0.0
30521629750931,-0.23449662,9.040084,3.871587,0.0,0.0,0.0
30521632129837,-0.2440679,9.035298,3.8668015,0.0,0.0,0.0
30521634508744,-0.2440679,9.044869,3.8811584,0.0,0.0,0.0
30521636887702,-0.2536392,9.0544405,3.885944,0.0,0.0,0.0
30521639266608,-0.29192436,9.064013,3.8811584,0.0,0.0,0.0
30521641645514,-0.29671,9.064013,3.8907297,0.0,0.0,0.0
30521644024421,-0.31106696,9.068798,3.8763726,0.0,0.0,0.0
30521646403327,-0.33020952,9.068798,3.8907297,0.0,0.0,0.0
30521648782233,-0.34456646,9.08794,3.8811584,0.0,0.0,0.0
30521651161139,-0.34456646,9.097511,3.900301,0.0,0.0,0.0
30521653540098,-0.3493521,9.116654,3.9050865,0.0,0.0,0.0
30521655919004,-0.34456646,9.126225,3.9194436,0.0,0.0,0.0
30521658297910,-0.32063824,9.131011,3.9098723,0.0,0.0,0.0
30521660676816,-0.29671,9.131011,3.8763726,0.0,0.0,0.0
30521663055723,-0.26799613,9.116654,3.8572302,0.0,0.0,0.0
30521665434629,-0.22971097,9.107083,3.8524444,0.0,0.0,0.0
30521667813535,-0.18185452,9.097511,3.8620157,0.0,0.0,0.0
30521670192494,-0.16271193,9.097511,3.8620157,0.0,0.0,0.0
30521672571400,-0.10049855,9.092726,3.8333018,0.0,0.0,0.0
30521674950306,-0.076570325,9.111869,3.8141594,0.0,0.0,0.0
30521677329212,-0.047856454,9.08794,3.7998023,0.0,0.0,0.0
30521679708119,-0.02871387,9.064013,3.7854455,0.0,0.0,0.0
30521682087025,-0.038285162,9.068798,3.7950168,0.0,0.0,0.0
30521684465931,-0.047856454,9.059227,3.818945,0.0,0.0,0.0
30521686844889,-0.076570325,9.064013,3.8141594,0.0,0.0,0.0
30521689223796,-0.11006984,9.068798,3.818945,0.0,0.0,0.0
30521691602702,-0.16271193,9.078369,3.8141594,0.0,0.0,0.0
30521693981608,-0.19142582,9.078369,3.7950168,0.0,0.0,0.0
30521696360514,-0.22971097,9.078369,3.7806597,0.0,0.0,0.0
30521698739421,-0.24885355,9.092726,3.7854455,0.0,0.0,0.0
30521701118327,-0.30149564,9.092726,3.8093736,0.0,0.0,0.0
30521703497285,-0.33020952,9.097511,3.8093736,0.0,0.0,0.0
30521705876191,-0.33499518,9.107083,3.8141594,0.0,0.0,0.0
30521708255098,-0.33020952,9.102298,3.8237305,0.0,0.0,0.0
30521710634004,-0.31585258,9.102298,3.8093736,0.0,0.0,0.0
30521713012910,-0.28713873,9.092726,3.818945,0.0,0.0,0.0
30521715391816,-0.22971097,9.092726,3.8572302,0.0,0.0,0.0
30521717770775,-0.17228323,9.08794,3.8763726,0.0,0.0,0.0
30521720149681,-0.1052842,9.08794,3.9242291,0.0,0.0,0.0
30521722528587,-0.05742774,9.102298,3.9290147,0.0,0.0,0.0
30521724907494,0.02871387,9.102298,3.900301,0.0,0.0,0.0
30521727286348,0.076570325,9.12144,3.885944,0.0,0.0,0.0
30521729665254,0.13399807,9.107083,3.871587,0.0,0.0,0.0
30521732044212,0.12921242,9.092726,3.8763726,0.0,0.0,0.0
30521734423171,0.13399807,9.107083,3.8811584,0.0,0.0,0.0
30521736802077,0.13878371,9.08794,3.900301,0.0,0.0,0.0
30521739180983,0.11964113,9.068798,3.900301,0.0,0.0,0.0
30521741559889,0.11485548,9.064013,3.8907297,0.0,0.0,0.0
30521743938796,0.076570325,9.064013,3.8620157,0.0,0.0,0.0
30521746317702,0.033499517,9.064013,3.8380876,0.0,0.0,0.0
30521748696608,-0.033499517,9.073584,3.8380876,0.0,0.0,0.0
30521751075566,-0.09092726,9.059227,3.8476589,0.0,0.0,0.0
30521753454473,-0.15314065,9.068798,3.8620157,0.0,0.0,0.0
30521755833379,-0.17228323,9.0544405,3.8668015,0.0,0.0,0.0
30521758212285,-0.22492532,9.059227,3.8620157,0.0,0.0,0.0
30521760591191,-0.24885355,9.073584,3.8333018,0.0,0.0,0.0
30521762970098,-0.25842485,9.068798,3.8237305,0.0,0.0,0.0
30521765349004,-0.27756742,9.073584,3.8333018,0.0,0.0,0.0
30521767727962,-0.26799613,9.073584,3.8476589,0.0,0.0,0.0
30521770106816,-0.23449662,9.078369,3.8668015,0.0,0.0,0.0
30521772485775,-0.22971097,9.078369,3.871587,0.0,0.0,0.0
30521774864681,-0.17706887,9.097511,3.8524444,0.0,0.0,0.0
30521777243587,-0.11964113,9.08794,3.790231,0.0,0.0,0.0
30521779622494,-0.086141616,9.092726,3.7663028,0.0,0.0,0.0
30521782001400,-0.047856454,9.059227,3.7663028,0.0,0.0,0.0
30521784380358,-0.0047856453,9.068798,3.7998023,0.0,0.0,0.0
30521786759264,0.062213387,9.073584,3.8141594,0.0,0.0,0.0
30521789138171,0.11964113,9.078369,3.8285162,0.0,0.0,0.0
30521791517077,0.16749759,9.059227,3.7998023,0.0,0.0,0.0
30521793895983,0.18185452,9.078369,3.751946,0.0,0.0,0.0
30521796274889,0.19621146,9.068798,3.7184465,0.0,0.0,0.0
30521798653848,0.16271193,9.078369,3.7040894,0.0,0.0,0.0
30521801032754,0.124426775,9.08794,3.737589,0.0,0.0,0.0
30521803411660,0.062213387,9.078369,3.7663028,0.0,0.0,0.0
30521805790566,-0.009571291,9.092726,3.7758741,0.0,0.0,0.0
30521808169473,-0.076570325,9.078369,3.7710886,0.0,0.0,0.0
30521810548379,-0.13878371,9.064013,3.7615173,0.0,0.0,0.0
30521812927285,-0.23928227,9.064013,3.7615173,0.0,0.0,0.0
30521815306244,-0.29671,9.092726,3.790231,0.0,0.0,0.0
30521817685150,-0.35413775,9.068798,3.804588,0.0,0.0,0.0
30521820064056,-0.40677986,9.068798,3.8476589,0.0,0.0,0.0
30521822442962,-0.39720857,9.102298,3.8763726,0.0,0.0,0.0
30521824821869,-0.39720857,9.08794,3.8811584,0.0,0.0,0.0
30521827200775,-0.37328035,9.068798,3.8572302,0.0,0.0,0.0
30521829579733,-0.31585258,9.107083,3.8237305,0.0,0.0,0.0
30521831958639,-0.2727818,9.111869,3.8285162,0.0,0.0,0.0
30521834337546,-0.23449662,9.107083,3.8572302,0.0,0.0,0.0
30521836716452,-0.16749759,9.08794,3.885944,0.0,0.0,0.0
30521839095358,-0.10049855,9.102298,3.9194436,0.0,0.0,0.0
30521841474264,-0.05742774,9.092726,3.8955152,0.0,0.0,0.0
30521843853171,-0.0047856453,9.068798,3.8763726,0.0,0.0,0.0
30521846232077,0.06699903,9.049655,3.8572302,0.0,0.0,0.0
30521848611035,0.11964113,9.064013,3.8333018,0.0,0.0,0.0
30521850989941,0.11485548,9.059227,3.842873,0.0,0.0,0.0
30521853368848,0.124426775,9.078369,3.885944,0.0,0.0,0.0
30521855747754,0.09571291,9.059227,3.900301,0.0,0.0,0.0
30521858126660,0.05742774,9.064013,3.9098723,0.0,0.0,0.0
30521860505566,0.009571291,9.08794,3.9194436,0.0,0.0,0.0
30521862884473,-0.023928227,9.0544405,3.8668015,0.0,0.0,0.0
30521865263431,-0.1052842,9.068798,3.8380876,0.0,0.0,0.0
30521867642337,-0.15314065,9.078369,3.8380876,0.0,0.0,0.0
30521870021244,-0.2105684,9.073584,3.8524444,0.0,0.0,0.0
30521872400150,-0.29192436,9.044869,3.9194436,0.0,0.0,0.0
30521874779056,-0.3493521,9.049655,3.9194436,0.0,0.0,0.0
30521877157962,-0.3493521,9.064013,3.9098723,0.0,0.0,0.0
30521879536869,-0.34456646,9.078369,3.8668015,0.0,0.0,0.0
30521881915827,-0.34456646,9.078369,3.8285162,0.0,0.0,0.0
30521884294733,-0.33499518,9.073584,3.8380876,0.0,0.0,0.0
30521886673639,-0.27756742,9.0544405,3.8237305,0.0,0.0,0.0
30521889052546,-0.21535404,9.0544405,3.8333018,0.0,0.0,0.0
30521891431452,-0.15314065,9.068798,3.818945,0.0,0.0,0.0
30521893810358,-0.09092726,9.092726,3.804588,0.0,0.0,0.0
30521896189316,-0.02871387,9.092726,3.7663028,0.0,0.0,0.0
30521898568223,0.019142581,9.102298,3.7567315,0.0,0.0,0.0
30521900947129,0.08135597,9.092726,3.7998023,0.0,0.0,0.0
30521903326035,0.09571291,9.097511,3.8476589,0.0,0.0,0.0
30521905704941,0.11485548,9.097511,3.8572302,0.0,0.0,0.0
30521908083848,0.13399807,9.083155,3.8333018,0.0,0.0,0.0
30521910462754,0.09571291,9.102298,3.8141594,0.0,0.0,0.0
30521912841712,0.0526421,9.111869,3.7950168,0.0,0.0,0.0
30521915220619,0.0,9.126225,3.790231,0.0,0.0,0.0
30521917599525,-0.08135597,9.107083,3.8141594,0.0,0.0,0.0
30521919978431,-0.15314065,9.111869,3.8093736,0.0,0.0,0.0
30521922357337,-0.23449662,9.107083,3.8285162,0.0,0.0,0.0
30521924736244,-0.28713873,9.116654,3.8237305,0.0,0.0,0.0
30521927115150,-0.3493521,9.126225,3.818945,0.0,0.0,0.0
30521929494056,-0.38763726,9.135797,3.8333018,0.0,0.0,0.0
30521931873014,-0.4354937,9.116654,3.8524444,0.0,0.0,0.0
30521934251921,-0.44027936,9.107083,3.871587,0.0,0.0,0.0
30521936630827,-0.42592242,9.102298,3.9050865,0.0,0.0,0.0
30521939009733,-0.39720857,9.092726,3.8907297,0.0,0.0,0.0
30521941388639,-0.34456646,9.097511,3.9146578,0.0,0.0,0.0
30521943767546,-0.28235307,9.097511,3.900301,0.0,0.0,0.0
30521946146504,-0.22971097,9.102298,3.8811584,0.0,0.0,0.0
30521948525410,-0.17228323,9.068798,3.8955152,0.0,0.0,0.0
30521950904316,-0.12921242,9.0544405,3.9146578,0.0,0.0,0.0
30521953283223,-0.11485548,9.0544405,3.9050865,0.0,0.0,0.0
30521955662129,-0.062213387,9.044869,3.9098723,0.0,0.0,0.0
30521958041035,-0.06699903,9.049655,3.9050865,0.0,0.0,0.0
30521960419941,-0.07178468,9.0544405,3.9050865,0.0,0.0,0.0
30521962798900,-0.076570325,9.035298,3.9194436,0.0,0.0,0.0
30521965177806,-0.10049855,9.0544405,3.9146578,0.0,0.0,0.0
30521967556712,-0.13878371,9.035298,3.900301,0.0,0.0,0.0
30521969935619,-0.18664017,9.025727,3.900301,0.0,0.0,0.0
30521972314525,-0.22013968,9.035298,3.8811584,0.0,0.0,0.0
30521974693431,-0.28713873,9.030513,3.9098723,0.0,0.0,0.0
30521977072389,-0.34456646,9.044869,3.9290147,0.0,0.0,0.0
30521979451296,-0.40677986,9.049655,3.938586,0.0,0.0,0.0
30521981830202,-0.42592242,9.073584,3.9194436,0.0,0.0,0.0
30521984209108,-0.46899325,9.08794,3.8620157,0.0,0.0,0.0
30521986588014,-0.4977071,9.083155,3.8237305,0.0,0.0,0.0
30521988966921,-0.51206404,9.083155,3.8524444,0.0,0.0,0.0
30521991345827,-0.4881358,9.097511,3.871587,0.0,0.0,0.0
30521993724785,-0.4881358,9.068798,3.8955152,0.0,0.0,0.0
30521996103691,-0.4642076,9.097511,3.885944,0.0,0.0,0.0
30521998482598,-0.4354937,9.107083,3.8476589,0.0,0.0,0.0
30522000861504,-0.38763726,9.12144,3.842873,0.0,0.0,0.0
30522003240410,-0.3589234,9.116654,3.8380876,0.0,0.0,0.0
30522005619316,-0.32542387,9.111869,3.8572302,0.0,0.0,0.0
30522007998223,-0.28713873,9.097511,3.8955152,0.0,0.0,0.0
30522010377129,-0.25842485,9.116654,3.900301,0.0,0.0,0.0
30522012756087,-0.23449662,9.102298,3.8811584,0.0,0.0,0.0
30522015134994,-0.24885355,9.078369,3.842873,0.0,0.0,0.0
30522017513900,-0.2440679,9.059227,3.8237305,0.0,0.0,0.0
30522019892806,-0.24885355,9.078369,3.7998023,0.0,0.0,0.0
30522022271712,-0.27756742,9.097511,3.8093736,0.0,0.0,0.0
30522024650619,-0.33020952,9.083155,3.842873,0.0,0.0,0.0
30522027029473,-0.33499518,9.059227,3.8285162,0.0,0.0,0.0
30522029408483,-0.3493521,9.073584,3.818945,0.0,0.0,0.0
30522031787389,-0.38285163,9.068798,3.7950168,0.0,0.0,0.0
30522034166296,-0.40677986,9.073584,3.7998023,0.0,0.0,0.0
30522036545202,-0.41635114,9.064013,3.8093736,0.0,0.0,0.0
30522038924108,-0.43070808,9.068798,3.8141594,0.0,0.0,0.0
30522041303014,-0.4354937,9.073584,3.8620157,0.0,0.0,0.0
30522043681921,-0.44027936,9.064013,3.8811584,0.0,0.0,0.0
30522046060879,-0.44506502,9.068798,3.8620157,0.0,0.0,0.0
30522048439785,-0.44506502,9.073584,3.8524444,0.0,0.0,0.0
30522050818691,-0.4642076,9.078369,3.8333018,0.0,0.0,0.0
30522053197598,-0.44506502,9.092726,3.8524444,0.0,0.0,0.0
30522055576504,-0.3924229,9.083155,3.8476589,0.0,0.0,0.0
30522057955410,-0.3589234,9.097511,3.8763726,0.0,0.0,0.0
30522060334369,-0.34456646,9.116654,3.8811584,0.0,0.0,0.0
30522062713275,-0.3062813,9.049655,3.8476589,0.0,0.0,0.0
30522065092181,-0.29192436,8.958728,3.8380876,0.0,0.0,0.0
30522067471087,-0.2727818,9.020942,3.8572302,0.0,0.0,0.0
30522069849994,-0.19621146,9.15494,3.7040894,0.0,0.0,0.0
30522072228900,-0.24885355,9.19801,3.5892339,0.0,0.0,0.0
30522074607806,-0.18185452,9.145369,3.8763726,0.0,0.0,0.0
30522076986764,-0.10049855,9.025727,4.2975097,0.0,0.0,0.0
30522079365671,-0.14356937,9.064013,4.354937,0.0,0.0,0.0
30522081744525,-0.13399807,9.164511,4.0534415,0.0,0.0,0.0
30522084123483,-0.009571291,9.226724,3.656233,0.0,0.0,0.0
30522086502389,-0.0526421,9.169296,3.4456646,0.0,0.0,0.0
30522088881296,-0.15792629,9.135797,3.656233,0.0,0.0,0.0
30522091260202,-0.07178468,9.020942,4.0869412,0.0,0.0,0.0
30522093639160,-0.11485548,8.997013,4.2975097,0.0,0.0,0.0
30522096018066,-0.22971097,9.083155,4.206582,0.0,0.0,0.0
30522098396973,-0.14356937,9.102298,3.9577286,0.0,0.0,0.0
30522100775879,-0.13878371,9.092726,3.67059,0.0,0.0,0.0
30522103154785,-0.22013968,9.102298,3.5270207,0.0,0.0,0.0
30522105533639,-0.2105684,9.078369,3.6323047,0.0,0.0,0.0
30522107912598,-0.22971097,9.025727,3.8572302,0.0,0.0,0.0
30522110291556,-0.29671,9.01137,4.034299,0.0,0.0,0.0
30522112670462,-0.33499518,9.016156,4.1108694,0.0,0.0,0.0
30522115049369,-0.39720857,9.001799,3.9960139,0.0,0.0,0.0
30522117428275,-0.44506502,8.997013,3.790231,0.0,0.0,0.0
30522119807129,-0.45942193,9.001799,3.6131623,0.0,0.0,0.0
30522122186087,-0.4977071,9.01137,3.6323047,0.0,0.0,0.0
30522124564994,-0.4833502,9.001799,3.790231,0.0,0.0,0.0
30522126943952,-0.46899325,9.016156,3.9768713,0.0,0.0,0.0
30522129322858,-0.44506502,9.020942,4.0773697,0.0,0.0,0.0
30522131701764,-0.3924229,9.0544405,3.9577286,0.0,0.0,0.0
30522134080671,-0.32542387,9.102298,3.694518,0.0,0.0,0.0
30522136459577,-0.23449662,9.164511,3.4983068,0.0,0.0,0.0
30522138838483,-0.17706887,9.193225,3.5126636,0.0,0.0,0.0
30522141217337,-0.15792629,9.169296,3.7040894,0.0,0.0,0.0
30522143596348,-0.11964113,9.15494,3.9481573,0.0,0.0,0.0
30522145975254,-0.062213387,9.140582,4.0534415,0.0,0.0,0.0
30522148354160,-0.033499517,9.183653,3.9242291,0.0,0.0,0.0
30522150733066,0.014356935,9.217153,3.7088752,0.0,0.0,0.0
30522153111973,0.05742774,9.226724,3.5844483,0.0,0.0,0.0
30522155490879,0.076570325,9.2075815,3.6227336,0.0,0.0,0.0
30522157869837,0.014356935,9.193225,3.7758741,0.0,0.0,0.0
30522160248744,-0.033499517,9.178867,3.8811584,0.0,0.0,0.0
30522162627650,-0.086141616,9.15494,3.9242291,0.0,0.0,0.0
30522165006556,-0.148355,9.15494,3.842873,0.0,0.0,0.0
30522167385462,-0.22971097,9.15494,3.7280176,0.0,0.0,0.0
30522169764369,-0.32542387,9.145369,3.6227336,0.0,0.0,0.0
30522172143275,-0.40677986,9.131011,3.603591,0.0,0.0,0.0
30522174522181,-0.44985065,9.107083,3.67059,0.0,0.0,0.0
30522176901139,-0.5455636,9.059227,3.790231,0.0,0.0,0.0
30522179280046,-0.57906306,9.040084,3.8955152,0.0,0.0,0.0
30522181658952,-0.5694918,9.020942,3.9050865,0.0,0.0,0.0
30522184037858,-0.55513483,9.016156,3.842873,0.0,0.0,0.0
30522186416764,-0.55034924,9.025727,3.7567315,0.0,0.0,0.0
30522188795671,-0.47377887,9.020942,3.7615173,0.0,0.0,0.0
30522191174577,-0.4019942,8.9826565,3.8237305,0.0,0.0,0.0
30522193553535,-0.3493521,9.020942,3.885944,0.0,0.0,0.0
30522195932441,-0.27756742,9.044869,3.9098723,0.0,0.0,0.0
30522198311348,-0.18664017,9.0544405,3.8524444,0.0,0.0,0.0
30522200690254,-0.148355,9.059227,3.804588,0.0,0.0,0.0
30522203069160,-0.11485548,9.0544405,3.751946,0.0,0.0,0.0
30522205448066,-0.10049855,9.059227,3.7615173,0.0,0.0,0.0
30522207827025,-0.043070808,9.059227,3.8093736,0.0,0.0,0.0
30522210205931,-0.05742774,9.073584,3.8476589,0.0,0.0,0.0
30522212584837,-0.09571291,9.073584,3.8811584,0.0,0.0,0.0
30522214963744,-0.11006984,9.083155,3.885944,0.0,0.0,0.0
30522217342650,-0.148355,9.083155,3.871587,0.0,0.0,0.0
30522219721556,-0.2009971,9.111869,3.8476589,0.0,0.0,0.0
30522222100462,-0.2440679,9.116654,3.8380876,0.0,0.0,0.0
30522224479421,-0.29671,9.111869,3.8524444,0.0,0.0,0.0
30522226858327,-0.3493521,9.08794,3.8811584,0.0,0.0,0.0
30522229237233,-0.37806597,9.111869,3.8955152,0.0,0.0,0.0
30522231616139,-0.4019942,9.116654,3.8907297,0.0,0.0,0.0
30522233995046,-0.40677986,9.097511,3.871587,0.0,0.0,0.0
30522236373952,-0.39720857,9.097511,3.8811584,0.0,0.0,0.0
30522238752858,-0.37328035,9.107083,3.9194436,0.0,0.0,0.0
30522241131764,-0.3397808,9.097511,3.9720855,0.0,0.0,0.0
30522243510723,-0.27756742,9.0544405,4.0007997,0.0,0.0,0.0
30522245889629,-0.22971097,9.059227,4.024728,0.0,0.0,0.0
30522248268535,-0.15314065,9.092726,4.024728,0.0,0.0,0.0
30522250647441,-0.038285162,9.083155,3.9816568,0.0,0.0,0.0
30522253026348,0.014356935,9.073584,3.9577286,0.0,0.0,0.0
30522255405254,0.07178468,9.064013,3.9338005,0.0,0.0,0.0
30522257784212,0.09571291,9.059227,3.9720855,0.0,0.0,0.0
30522260163119,0.11485548,9.049655,4.0295134,0.0,0.0,0.0
30522262542025,0.1052842,9.040084,4.058227,0.0,0.0,0.0
30522264920931,0.086141616,9.068798,4.024728,0.0,0.0,0.0
30522267299837,0.062213387,9.059227,3.9625144,0.0,0.0,0.0
30522269678744,-0.009571291,9.040084,3.9050865,0.0,0.0,0.0
30522272057650,-0.07178468,9.030513,3.8955152,0.0,0.0,0.0
30522274436608,-0.14356937,9.030513,3.900301,0.0,0.0,0.0
30522276815514,-0.22013968,9.030513,3.9481573,0.0,0.0,0.0
30522279194421,-0.28235307,9.030513,3.9577286,0.0,0.0,0.0
30522281573327,-0.3589234,9.0544405,3.9433718,0.0,0.0,0.0
30522283952233,-0.44985065,9.0544405,3.885944,0.0,0.0,0.0
30522286331139,-0.45942193,9.08794,3.8333018,0.0,0.0,0.0
30522288710046,-0.5072784,9.097511,3.8141594,0.0,0.0,0.0
30522291089004,-0.52163535,9.092726,3.8141594,0.0,0.0,0.0
30522293467910,-0.51206404,9.107083,3.8524444,0.0,0.0,0.0
30522295846816,-0.4833502,9.12144,3.9098723,0.0,0.0,0.0
30522298225723,-0.42592242,9.126225,3.8907297,0.0,0.0,0.0
30522300604629,-0.37328035,9.159725,3.842873,0.0,0.0,0.0
30522302983535,-0.31585258,9.12144,3.7328033,0.0,0.0,0.0
30522305362441,-0.2440679,9.092726,3.6897326,0.0,0.0,0.0
30522307741400,-0.21535404,9.102298,3.7088752,0.0,0.0,0.0
30522310120306,-0.12921242,9.188439,3.8380876,0.0,0.0,0.0
30522312499212,-0.10049855,9.245867,3.9864426,0.0,0.0,0.0
30522314878014,-0.033499517,9.164511,3.952943,0.0,0.0,0.0
30522317257025,-0.0047856453,9.135797,3.751946,0.0,0.0,0.0
30522319635931,0.033499517,9.193225,3.5605202,0.0,0.0,0.0
30522322014837,0.038285162,9.169296,3.4073794,0.0,0.0,0.0
30522324393796,-0.0526421,9.145369,3.522235,0.0,0.0,0.0
30522326772702,-0.11964113,9.116654,3.8237305,0.0,0.0,0.0
30522329151608,-0.22013968,9.097511,4.091727,0.0,0.0,0.0
30522331530514,-0.30149564,9.064013,4.072584,0.0,0.0,0.0
30522333909421,-0.32542387,9.092726,3.804588,0.0,0.0,0.0
30522336288327,-0.38763726,9.150154,3.455236,0.0,0.0,0.0
30522338667285,-0.44985065,9.140582,3.2973096,0.0,0.0,0.0
30522341046191,-0.51206404,9.097511,3.4504502,0.0,0.0,0.0
30522343425098,-0.5407779,9.08794,3.7471602,0.0,0.0,0.0
30522345804004,-0.65084773,9.016156,3.952943,0.0,0.0,0.0
30522348182910,-0.66041905,9.006584,3.9433718,0.0,0.0,0.0
30522350561816,-0.65084773,9.025727,3.7567315,0.0,0.0,0.0
30522352940723,-0.64606214,9.068798,3.5126636,0.0,0.0,0.0
30522355319681,-0.65084773,9.068798,3.4121652,0.0,0.0,0.0
30522357698587,-0.61734825,9.040084,3.5318062,0.0,0.0,0.0
30522360077494,-0.5982057,9.059227,3.7758741,0.0,0.0,0.0
30522362456400,-0.56470615,9.025727,3.9290147,0.0,0.0,0.0
30522364835306,-0.51206404,9.020942,3.9242291,0.0,0.0,0.0
30522367214212,-0.40677986,9.083155,3.8141594,0.0,0.0,0.0
30522369593066,-0.31106696,9.102298,3.67059,0.0,0.0,0.0
30522371972077,-0.22013968,9.102298,3.6179478,0.0,0.0,0.0
30522374350983,-0.14356937,9.102298,3.6801612,0.0,0.0,0.0
30522376729889,-0.09571291,9.131011,3.8380876,0.0,0.0,0.0
30522379108744,-0.047856454,9.102298,4.0007997,0.0,0.0,0.0
30522381487702,-0.0047856453,9.08794,4.106084,0.0,0.0,0.0
30522383866608,0.0526421,9.102298,4.082155,0.0,0.0,0.0
30522386245514,0.05742774,9.131011,3.9577286,0.0,0.0,0.0
30522388624421,0.033499517,9.126225,3.8763726,0.0,0.0,0.0
30522391003379,-0.038285162,9.145369,3.8763726,0.0,0.0,0.0
30522393382285,-0.1052842,9.131011,3.9816568,0.0,0.0,0.0
30522395761191,-0.19142582,9.107083,4.115655,0.0,0.0,0.0
30522398140098,-0.3062813,9.111869,4.1778684,0.0,0.0,0.0
30522400519004,-0.44985065,9.111869,4.125226,0.0,0.0,0.0
30522402897910,-0.55034924,9.12144,4.005585,0.0,0.0,0.0
30522405276816,-0.6412765,9.097511,3.9194436,0.0,0.0,0.0
30522407655775,-0.70348984,9.083155,3.952943,0.0,0.0,0.0
30522410034629,-0.75613195,9.068798,4.048656,0.0,0.0,0.0
30522412413587,-0.8039884,9.030513,4.15394,0.0,0.0,0.0
30522414792494,-0.8135597,9.006584,4.1778684,0.0,0.0,0.0
30522417171400,-0.79920274,9.006584,4.1587257,0.0,0.0,0.0
30522419550306,-0.7704889,9.025727,4.0534415,0.0,0.0,0.0
30522421929212,-0.6795616,9.016156,3.9720855,0.0,0.0,0.0
30522424308171,-0.56470615,9.044869,3.952943,0.0,0.0,0.0
30522426687077,-0.5072784,9.0544405,3.9768713,0.0,0.0,0.0
30522429065983,-0.42592242,9.030513,3.9960139,0.0,0.0,0.0
30522431444889,-0.29192436,9.044869,3.991228,0.0,0.0,0.0
30522433823796,-0.2105684,9.044869,3.9242291,0.0,0.0,0.0
30522436202702,-0.148355,9.059227,3.8524444,0.0,0.0,0.0
30522438581660,-0.07178468,9.068798,3.7854455,0.0,0.0,0.0
30522440960566,-0.019142581,9.068798,3.7758741,0.0,0.0,0.0
30522443339473,0.02871387,9.059227,3.7806597,0.0,0.0,0.0
30522445718379,-0.009571291,9.049655,3.8093736,0.0,0.0,0.0
30522448097285,-0.047856454,9.064013,3.8093736,0.0,0.0,0.0
30522450476191,-0.11006984,9.0544405,3.7663028,0.0,0.0,0.0
30522452855098,-0.20578274,9.059227,3.6897326,0.0,0.0,0.0
30522455234004,-0.32063824,9.083155,3.6083765,0.0,0.0,0.0
30522457612962,-0.44027936,9.111869,3.5940197,0.0,0.0,0.0
30522459991869,-0.5599205,9.131011,3.5700915,0.0,0.0,0.0
30522462370775,-0.6987042,9.150154,3.5844483,0.0,0.0,0.0
30522464749681,-0.7800602,9.150154,3.574877,0.0,0.0,0.0
30522467128587,-0.8470592,9.15494,3.5796626,0.0,0.0,0.0
30522469507494,-0.91884387,9.150154,3.5988052,0.0,0.0,0.0
30522471886452,-0.9523434,9.178867,3.6083765,0.0,0.0,0.0
30522474265358,-0.91884387,9.174082,3.6227336,0.0,0.0,0.0
30522476644264,-0.8662018,9.116654,3.5940197,0.0,0.0,0.0
30522479023171,-0.81834537,9.159725,3.7567315,0.0,0.0,0.0
30522481402077,-0.66041905,9.08794,3.9338005,0.0,0.0,0.0
30522483780983,-0.5599205,9.068798,4.1635113,0.0,0.0,0.0
30522486159889,-0.46899325,9.12144,4.469793,0.0,0.0,0.0
30522488538796,-0.24885355,9.025727,4.3357944,0.0,0.0,0.0
30522490917754,-0.11006984,9.145369,3.6993039,0.0,0.0,0.0
30522493296660,-0.05742774,9.312865,3.1872396,0.0,0.0,0.0
30522495675566,0.18185452,9.169296,3.249453,0.0,0.0,0.0
30522498054473,0.22013968,8.973084,3.7806597,0.0,0.0,0.0
30522500433379,0.19142582,8.9013,4.321438,0.0,0.0,0.0
30522502812285,0.28235307,8.906086,4.517649,0.0,0.0,0.0
30522505191244,0.35413775,8.829515,4.168297,0.0,0.0,0.0
30522507570150,0.2440679,8.9013,3.6083765,0.0,0.0,0.0
30522509949056,0.2632105,8.992228,3.2829528,0.0,0.0,0.0
30522512327910,0.20578274,8.958728,3.3164523,0.0,0.0,0.0
30522514706869,0.02871387,8.949157,3.5557344,0.0,0.0,0.0
30522517085775,-0.1052842,9.001799,3.8955152,0.0,0.0,0.0
30522519464681,-0.22492532,8.992228,4.0295134,0.0,0.0,0.0
30522521843639,-0.39720857,9.016156,3.8285162,0.0,0.0,0.0
30522524222546,-0.52163535,9.102298,3.5030923,0.0,0.0,0.0
30522526601400,-0.61734825,9.19801,3.2590244,0.0,0.0,0.0
30522528980358,-0.72741807,9.226724,3.2159536,0.0,0.0,0.0
30522531359264,-0.8327023,9.250652,3.4169507,0.0,0.0,0.0
30522533738171,-0.9092726,9.303294,3.694518,0.0,0.0,0.0
30522536117077,-0.9379865,9.303294,3.7854455,0.0,0.0,0.0
30522538496035,-0.90448695,9.346365,3.6227336,0.0,0.0,0.0
30522540874941,-0.83748794,9.394221,3.3834512,0.0,0.0,0.0
30522543253848,-0.7513463,9.437292,3.2590244,0.0,0.0,0.0
30522545632754,-0.66999036,9.370294,3.3882368,0.0,0.0,0.0
30522548011660,-0.55034924,9.269794,3.7088752,0.0,0.0,0.0
30522550390566,-0.4881358,9.226724,3.9960139,0.0,0.0,0.0
30522552769473,-0.39720857,9.19801,4.0390844,0.0,0.0,0.0
30522555148431,-0.3397808,9.164511,3.8907297,0.0,0.0,0.0
30522557527337,-0.30149564,9.174082,3.7423747,0.0,0.0,0.0
30522559906244,-0.34456646,9.145369,3.6753755,0.0,0.0,0.0
30522562285150,-0.41156548,9.068798,3.7710886,0.0,0.0,0.0
30522564664056,-0.53599226,9.044869,4.0151563,0.0,0.0,0.0
30522567042962,-0.66999036,8.973084,4.354937,0.0,0.0,0.0
30522569421869,-0.8566305,8.920443,4.642076,0.0,0.0,0.0
30522571800827,-1.0193424,8.853444,4.718646,0.0,0.0,0.0
30522574179733,-1.0911272,8.886943,4.503292,0.0,0.0,0.0
30522576558639,-1.2442678,8.944371,4.197011,0.0,0.0,0.0
30522578937546,-1.282553,8.9348,4.0390844,0.0,0.0,0.0
30522581316452,-1.3591232,8.930014,4.2257247,0.0,0.0,0.0
30522583695358,-1.4213367,8.9108715,4.752146,0.0,0.0,0.0
30522586074264,-1.3399807,8.815159,5.1206403,0.0,0.0,0.0
30522588453223,-1.2586247,8.834301,4.938786,0.0,0.0,0.0
30522590832129,-1.0959128,8.949157,4.3357944,0.0,0.0,0.0
30522593211035,-0.8709874,9.001799,3.7758741,0.0,0.0,0.0
30522595589941,-0.6987042,9.030513,3.7998023,0.0,0.0,0.0
30522597968848,-0.55034924,8.973084,4.3501515,0.0,0.0,0.0
30522600347754,-0.3589234,8.906086,4.766503,0.0,0.0,0.0
30522602726660,-0.16749759,8.958728,4.5559344,0.0,0.0,0.0
30522605105619,-0.043070808,9.116654,4.019942,0.0,0.0,0.0
30522607484525,0.10049855,9.15494,3.5174494,0.0,0.0,0.0
30522609863431,0.18664017,9.212367,3.4983068,0.0,0.0,0.0
30522612242337,0.17228323,9.159725,3.6227336,0.0,0.0,0.0
30522614621244,0.24885355,9.126225,3.6610186,0.0,0.0,0.0
30522617000150,0.2105684,9.245867,3.7567315,0.0,0.0,0.0
30522619379056,0.2632105,9.178867,3.8285162,0.0,0.0,0.0
30522621757962,0.18664017,9.116654,3.7950168,0.0,0.0,0.0
30522624136921,0.09092726,9.159725,3.507878,0.0,0.0,0.0
30522626515827,-0.0047856453,9.23151,3.1872396,0.0,0.0,0.0
30522628894733,-0.16749759,9.23151,3.1154552,0.0,0.0,0.0
30522631273639,-0.35413775,9.178867,3.2398818,0.0,0.0,0.0
30522633652546,-0.55034924,9.284152,3.4839497,0.0,0.0,0.0
30522636031452,-0.6364908,9.255438,3.6323047,0.0,0.0,0.0
30522638410410,-0.79920274,9.260223,3.7758741,0.0,0.0,0.0
30522640789316,-0.72263247,9.226724,3.5605202,0.0,0.0,0.0
30522643168223,-0.83748794,9.312865,3.2398818,0.0,0.0,0.0
30522645547129,-0.7322037,9.265009,3.1489546,0.0,0.0,0.0
30522647926035,-0.64606214,9.164511,3.3690944,0.0,0.0,0.0
30522650304941,-0.5312066,9.073584,3.5653057,0.0,0.0,0.0
30522652683848,-0.44027936,9.078369,3.871587,0.0,0.0,0.0
30522655062754,-0.19621146,8.882157,4.15394,0.0,0.0,0.0
30522657441712,-0.12921242,8.786445,4.23051,0.0,0.0,0.0
30522659820619,-0.038285162,8.953942,3.9577286,0.0,0.0,0.0
30522662199525,0.062213387,9.020942,3.522235,0.0,0.0,0.0
30522664578431,0.13399807,8.987442,3.2685957,0.0,0.0,0.0
30522666957337,0.02871387,8.973084,3.4025939,0.0,0.0,0.0
30522669336244,-0.05742774,8.987442,4.0151563,0.0,0.0,0.0
30522671715202,-0.033499517,8.882157,4.3788652,0.0,0.0,0.0
30522674094108,-0.15314065,8.906086,4.1347976,0.0,0.0,0.0
30522676473014,-0.2727818,9.044869,3.5605202,0.0,0.0,0.0
30522678851921,-0.3397808,9.092726,3.182454,0.0,0.0,0.0
30522681230827,-0.43070808,9.068798,3.2303107,0.0,0.0,0.0
30522683609733,-0.5982057,9.107083,3.7615173,0.0,0.0,0.0
30522685988639,-0.67477596,9.092726,4.3357944,0.0,0.0,0.0
30522688367546,-0.6843473,9.073584,4.426722,0.0,0.0,0.0
30522690746504,-0.6891329,9.169296,4.0151563,0.0,0.0,0.0
30522693125410,-0.65084773,9.284152,3.507878,0.0,0.0,0.0
30522695504264,-0.57906306,9.269794,3.3020952,0.0,0.0,0.0
30522697883223,-0.55034924,9.241081,3.5365918,0.0,0.0,0.0
30522700262129,-0.47856453,9.183653,4.0295134,0.0,0.0,0.0
30522702641035,-0.3924229,9.140582,4.398008,0.0,0.0,0.0
30522705019994,-0.31585258,9.078369,4.3788652,0.0,0.0,0.0
30522707398900,-0.22971097,9.092726,4.0534415,0.0,0.0,0.0
30522709777806,-0.13399807,9.159725,3.67059,0.0,0.0,0.0
30522712156712,-0.13399807,9.150154,3.4839497,0.0,0.0,0.0
30522714535619,-0.12921242,9.102298,3.5940197,0.0,0.0,0.0
30522716914525,-0.16271193,9.102298,3.9481573,0.0,0.0,0.0
30522719293431,-0.2440679,9.044869,4.2257247,0.0,0.0,0.0
30522721672337,-0.3062813,9.025727,4.2831526,0.0,0.0,0.0
30522724051296,-0.34456646,9.035298,4.082155,0.0,0.0,0.0
30522726430202,-0.4211368,9.073584,3.7854455,0.0,0.0,0.0
30522728809056,-0.49292147,9.064013,3.5557344,0.0,0.0,0.0
30522731188014,-0.63170516,9.083155,3.656233,0.0,0.0,0.0
30522733566921,-0.66999036,9.049655,3.9433718,0.0,0.0,0.0
30522735945827,-0.7465607,9.025727,4.1635113,0.0,0.0,0.0
30522738324733,-0.7704889,9.059227,4.168297,0.0,0.0,0.0
30522740703691,-0.7752745,9.078369,4.0534415,0.0,0.0,0.0
30522743082598,-0.7178468,9.078369,3.7950168,0.0,0.0,0.0
30522745461504,-0.6891329,9.111869,3.641876,0.0,0.0,0.0
30522747840410,-0.6221339,9.126225,3.6897326,0.0,0.0,0.0
30522750219316,-0.59342,9.12144,3.9242291,0.0,0.0,0.0
30522752598223,-0.49292147,9.08794,4.0869412,0.0,0.0,0.0
30522754977129,-0.44506502,9.126225,4.082155,0.0,0.0,0.0
30522757356087,-0.3493521,9.116654,3.952943,0.0,0.0,0.0
30522759734994,-0.29671,9.092726,3.8141594,0.0,0.0,0.0
30522762113900,-0.2632105,9.131011,3.7758741,0.0,0.0,0.0
30522764492806,-0.23928227,9.107083,3.7950168,0.0,0.0,0.0
30522766871712,-0.29192436,9.08794,3.900301,0.0,0.0,0.0
30522769250619,-0.29192436,9.059227,3.9290147,0.0,0.0,0.0
30522771629525,-0.33020952,9.111869,3.9625144,0.0,0.0,0.0
30522774008483,-0.34456646,9.102298,3.8668015,0.0,0.0,0.0
30522776387389,-0.41635114,9.140582,3.7950168,0.0,0.0,0.0
30522778766296,-0.42592242,9.140582,3.7328033,0.0,0.0,0.0
30522781145202,-0.4977071,9.131011,3.723232,0.0,0.0,0.0
30522783524108,-0.53599226,9.126225,3.7854455,0.0,0.0,0.0
30522785903014,-0.5455636,9.097511,3.8141594,0.0,0.0,0.0
30522788281921,-0.5599205,9.08794,3.7950168,0.0,0.0,0.0
30522790660879,-0.5838487,9.08794,3.7423747,0.0,0.0,0.0
30522793039785,-0.57427746,9.083155,3.6993039,0.0,0.0,0.0
30522795418691,-0.56470615,9.073584,3.6610186,0.0,0.0,0.0
30522797797598,-0.5838487,9.08794,3.656233,0.0,0.0,0.0
30522800176504,-0.5407779,9.073584,3.7184465,0.0,0.0,0.0
30522802555410,-0.53599226,9.059227,3.7423747,0.0,0.0,0.0
30522804934316,-0.55513483,9.064013,3.7088752,0.0,0.0,0.0
30522807313223,-0.53599226,9.097511,3.656233,0.0,0.0,0.0
30522809692181,-0.5455636,9.083155,3.5988052,0.0,0.0,0.0
30522812071087,-0.5455636,9.097511,3.5892339,0.0,0.0,0.0
30522814449994,-0.56470615,9.097511,3.6658044,0.0,0.0,0.0
30522816828900,-0.5838487,9.08794,3.737589,0.0,0.0,0.0
30522819207806,-0.5982057,9.073584,3.7854455,0.0,0.0,0.0
30522821586712,-0.5838487,9.102298,3.7854455,0.0,0.0,0.0
30522823965619,-0.5694918,9.131011,3.7423747,0.0,0.0,0.0
30522826344577,-0.55513483,9.116654,3.7088752,0.0,0.0,0.0
30522828723483,-0.55513483,9.111869,3.7040894,0.0,0.0,0.0
30522831102389,-0.5168497,9.126225,3.7806597,0.0,0.0,0.0
30522833481296,-0.4881358,9.107083,3.8524444,0.0,0.0,0.0
30522835860202,-0.4546363,9.092726,3.938586,0.0,0.0,0.0
30522838239108,-0.37806597,9.064013,3.9768713,0.0,0.0,0.0
30522840618066,-0.29192436,9.068798,3.9577286,0.0,0.0,0.0
30522842996973,-0.2009971,9.040084,3.871587,0.0,0.0,0.0
30522845375879,-0.11964113,9.049655,3.818945,0.0,0.0,0.0
30522847754785,-0.033499517,9.040084,3.7710886,0.0,0.0,0.0
30522850133691,0.0,9.049655,3.7950168,0.0,0.0,0.0
30522852512598,-0.009571291,9.059227,3.8285162,0.0,0.0,0.0
30522854891504,0.014356935,9.078369,3.871587,0.0,0.0,0.0
30522857270462,0.014356935,9.08794,3.8763726,0.0,0.0,0.0
30522859649369,-0.043070808,9.078369,3.8620157,0.0,0.0,0.0
30522862028275,-0.11006984,9.073584,3.8285162,0.0,0.0,0.0
30522864407181,-0.19142582,9.08794,3.8285162,0.0,0.0,0.0
30522866786087,-0.25842485,9.068798,3.871587,0.0,0.0,0.0
30522869164994,-0.37328035,9.068798,3.9242291,0.0,0.0,0.0
30522871543900,-0.44985065,9.064013,3.952943,0.0,0.0,0.0
30522873922806,-0.5072784,9.059227,3.9481573,0.0,0.0,0.0
30522876301764,-0.60777694,9.064013,3.9146578,0.0,0.0,0.0
30522878680671,-0.64606214,9.097511,3.8811584,0.0,0.0,0.0
30522881059577,-0.6843473,9.102298,3.8620157,0.0,0.0,0.0
30522883438483,-0.7369894,9.092726,3.8620157,0.0,0.0,0.0
30522885817389,-0.7513463,9.116654,3.9050865,0.0,0.0,0.0
30522888196296,-0.7465607,9.12144,3.9098723,0.0,0.0,0.0
30522890575202,-0.7609176,9.08794,3.9050865,0.0,0.0,0.0
30522892954160,-0.74177504,9.116654,3.8811584,0.0,0.0,0.0
30522895333066,-0.7178468,9.116654,3.8572302,0.0,0.0,0.0
30522897711973,-0.6843473,9.131011,3.8333018,0.0,0.0,0.0
30522900090879,-0.63170516,9.111869,3.8620157,0.0,0.0,0.0
30522902469785,-0.56470615,9.092726,3.900301,0.0,0.0,0.0
30522904848691,-0.5168497,9.0544405,3.9720855,0.0,0.0,0.0
30522907227598,-0.42592242,9.044869,3.9768713,0.0,0.0,0.0
30522909606556,-0.3684947,9.030513,3.9625144,0.0,0.0,0.0
30522911985462,-0.28713873,9.030513,3.8811584,0.0,0.0,0.0
30522914364369,-0.22013968,9.030513,3.7950168,0.0,0.0,0.0
30522916743275,-0.17228323,9.040084,3.7328033,0.0,0.0,0.0
30522919122181,-0.16749759,9.078369,3.751946,0.0,0.0,0.0
30522921501087,-0.16749759,9.073584,3.7710886,0.0,0.0,0.0
30522923879994,-0.17228323,9.073584,3.7998023,0.0,0.0,0.0
30522926258952,-0.18664017,9.083155,3.804588,0.0,0.0,0.0
30522928637858,-0.2440679,9.083155,3.7854455,0.0,0.0,0.0
30522931016764,-0.28713873,9.083155,3.7567315,0.0,0.0,0.0
30522933395671,-0.32063824,9.102298,3.7710886,0.0,0.0,0.0
30522935774577,-0.3493521,9.131011,3.804588,0.0,0.0,0.0
30522938153483,-0.39720857,9.140582,3.8668015,0.0,0.0,0.0
30522940532389,-0.43070808,9.126225,3.8955152,0.0,0.0,0.0
30522942911348,-0.43070808,9.150154,3.8955152,0.0,0.0,0.0
30522945290254,-0.43070808,9.159725,3.8572302,0.0,0.0,0.0
30522947669160,-0.42592242,9.169296,3.8476589,0.0,0.0,0.0
30522950048066,-0.3924229,9.150154,3.818945,0.0,0.0,0.0
30522952426973,-0.37328035,9.15494,3.8285162,0.0,0.0,0.0
30522954805879,-0.3397808,9.126225,3.8620157,0.0,0.0,0.0
30522957184785,-0.31106696,9.150154,3.871587,0.0,0.0,0.0
30522959563744,-0.29192436,9.135797,3.871587,0.0,0.0,0.0
30522961942650,-0.2632105,9.135797,3.8476589,0.0,0.0,0.0
30522964321556,-0.22971097,9.111869,3.8237305,0.0,0.0,0.0
30522966700462,-0.20578274,9.107083,3.790231,0.0,0.0,0.0
30522969079369,-0.18185452,9.08794,3.8141594,0.0,0.0,0.0
30522971458275,-0.148355,9.068798,3.842873,0.0,0.0,0.0
30522973837181,-0.13878371,9.035298,3.8668015,0.0,0.0,0.0
30522976216087,-0.10049855,9.035298,3.885944,0.0,0.0,0.0
30522978595046,-0.07178468,9.035298,3.8668015,0.0,0.0,0.0
30522980973952,-0.038285162,9.006584,3.8333018,0.0,0.0,0.0
30522983352858,-0.033499517,8.987442,3.8285162,0.0,0.0,0.0
30522985731764,-0.014356935,8.977871,3.8524444,0.0,0.0,0.0
30522988110671,0.0047856453,8.953942,3.8955152,0.0,0.0,0.0
30522990489577,0.038285162,8.925228,3.8955152,0.0,0.0,0.0
30522992868483,0.02871387,8.944371,3.871587,0.0,0.0,0.0
30522995247441,-0.0047856453,8.963513,3.8476589,0.0,0.0,0.0
30522997626348,-0.02871387,8.963513,3.8333018,0.0,0.0,0.0
30523000005254,-0.02871387,8.977871,3.8093736,0.0,0.0,0.0
30523002384160,-0.038285162,8.992228,3.7663028,0.0,0.0,0.0
30523004763066,-0.033499517,9.030513,3.7328033,0.0,0.0,0.0
30523007141973,-0.014356935,9.040084,3.7184465,0.0,0.0,0.0
30523009520879,0.014356935,9.078369,3.7088752,0.0,0.0,0.0
30523011899837,0.05742774,9.126225,3.694518,0.0,0.0,0.0
30523014278744,0.06699903,9.145369,3.6849468,0.0,0.0,0.0
30523016657650,0.1052842,9.15494,3.6658044,0.0,0.0,0.0
30523019036556,0.12921242,9.178867,3.694518,0.0,0.0,0.0
30523021415462,0.2105684,9.212367,3.6993039,0.0,0.0,0.0
30523023794369,0.2536392,9.2075815,3.7088752,0.0,0.0,0.0
30523026173275,0.32542387,9.221938,3.7280176,0.0,0.0,0.0
30523028552233,0.34456646,9.226724,3.751946,0.0,0.0,0.0
30523030931139,0.38285163,9.245867,3.7758741,0.0,0.0,0.0
30523033310046,0.41156548,9.226724,3.818945,0.0,0.0,0.0
30523035688952,0.46899325,9.217153,3.8141594,0.0,0.0,0.0
30523038067858,0.4833502,9.19801,3.8237305,0.0,0.0,0.0
30523040446764,0.47377887,9.193225,3.8333018,0.0,0.0,0.0
30523042825671,0.47377887,9.159725,3.8572302,0.0,0.0,0.0
30523045204629,0.4833502,9.159725,3.8811584,0.0,0.0,0.0
30523047583535,0.4546363,9.145369,3.8955152,0.0,0.0,0.0
30523049962441,0.4642076,9.107083,3.8811584,0.0,0.0,0.0
30523052341348,0.4881358,9.078369,3.9146578,0.0,0.0,0.0
30523054720254,0.4977071,9.0544405,3.9577286,0.0,0.0,0.0
30523057099160,0.49292147,9.01137,3.9481573,0.0,0.0,0.0
30523059478066,0.47856453,9.01137,3.9481573,0.0,0.0,0.0
30523061857025,0.52163535,8.9826565,3.9577286,0.0,0.0,0.0
30523064235931,0.51206404,8.973084,3.9625144,0.0,0.0,0.0
30523066614837,0.4881358,8.963513,3.9625144,0.0,0.0,0.0
30523068993744,0.4833502,8.944371,3.9720855,0.0,0.0,0.0
30523071372650,0.51206404,8.9108715,3.9768713,0.0,0.0,0.0
30523073751556,0.51206404,8.930014,3.9816568,0.0,0.0,0.0
30523076130462,0.47377887,8.944371,3.991228,0.0,0.0,0.0
30523078509369,0.4833502,8.920443,3.991228,0.0,0.0,0.0
30523080888327,0.4642076,8.939586,3.9673,0.0,0.0,0.0
30523083267233,0.46899325,8.963513,3.9768713,0.0,0.0,0.0
30523085646139,0.44506502,9.001799,3.9960139,0.0,0.0,0.0
30523088025046,0.41156548,8.992228,3.991228,0.0,0.0,0.0
30523090403848,0.37328035,9.006584,3.952943,0.0,0.0,0.0
30523092782858,0.33499518,9.020942,3.9481573,0.0,0.0,0.0
30523095161816,0.32063824,9.059227,3.9481573,0.0,0.0,0.0
30523097540723,0.27756742,9.08794,3.9194436,0.0,0.0,0.0
30523099919629,0.2536392,9.08794,3.900301,0.0,0.0,0.0
30523102298535,0.2105684,9.131011,3.871587,0.0,0.0,0.0
30523104677441,0.16271193,9.135797,3.8476589,0.0,0.0,0.0
30523107056348,0.09571291,9.159725,3.871587,0.0,0.0,0.0
30523109435254,0.02871387,9.212367,3.8620157,0.0,0.0,0.0
30523111814160,-0.023928227,9.217153,3.842873,0.0,0.0,0.0
30523114193119,-0.07178468,9.226724,3.8141594,0.0,0.0,0.0
30523116572025,-0.11964113,9.250652,3.8141594,0.0,0.0,0.0
30523118950931,-0.18664017,9.241081,3.790231,0.0,0.0,0.0
30523121329837,-0.2009971,9.250652,3.8141594,0.0,0.0,0.0
30523123708744,-0.23928227,9.236296,3.818945,0.0,0.0,0.0
30523126087650,-0.28713873,9.221938,3.8333018,0.0,0.0,0.0
30523128466556,-0.30149564,9.2075815,3.818945,0.0,0.0,0.0
30523130845514,-0.3062813,9.193225,3.842873,0.0,0.0,0.0
30523133224421,-0.32063824,9.145369,3.8620157,0.0,0.0,0.0
30523135603327,-0.29671,9.135797,3.8763726,0.0,0.0,0.0
30523137982233,-0.2632105,9.097511,3.9194436,0.0,0.0,0.0
30523140361139,-0.2105684,9.078369,3.9194436,0.0,0.0,0.0
30523142740046,-0.19142582,9.030513,3.9194436,0.0,0.0,0.0
30523145118952,-0.13399807,9.006584,3.9146578,0.0,0.0,0.0
30523147497910,-0.076570325,9.020942,3.8907297,0.0,0.0,0.0
30523149876816,-0.0526421,9.006584,3.871587,0.0,0.0,0.0
30523152255723,-0.038285162,8.977871,3.8476589,0.0,0.0,0.0
30523154634629,-0.014356935,8.944371,3.8524444,0.0,0.0,0.0
30523157013483,-0.014356935,8.906086,3.8524444,0.0,0.0,0.0
30523159392441,-0.014356935,8.9108715,3.842873,0.0,0.0,0.0
30523161771348,-0.038285162,8.930014,3.8237305,0.0,0.0,0.0
30523164150306,-0.038285162,8.939586,3.7854455,0.0,0.0,0.0
30523166529212,-0.062213387,8.949157,3.7758741,0.0,0.0,0.0
30523168908119,-0.076570325,8.9826565,3.7854455,0.0,0.0,0.0
30523171287025,-0.086141616,9.006584,3.8093736,0.0,0.0,0.0
30523173665931,-0.124426775,9.040084,3.8333018,0.0,0.0,0.0
30523176044837,-0.11006984,9.059227,3.8285162,0.0,0.0,0.0
30523178423744,-0.11006984,9.078369,3.790231,0.0,0.0,0.0
30523180802650,-0.1052842,9.092726,3.7998023,0.0,0.0,0.0
30523183181608,-0.07178468,9.159725,3.7806597,0.0,0.0,0.0
30523185560514,-0.023928227,9.183653,3.751946,0.0,0.0,0.0
30523187939421,0.023928227,9.212367,3.7806597,0.0,0.0,0.0
30523190318327,0.07178468,9.2075815,3.7806597,0.0,0.0,0.0
30523192697233,0.11964113,9.221938,3.7806597,0.0,0.0,0.0
30523195076139,0.16749759,9.2075815,3.7471602,0.0,0.0,0.0
30523197455046,0.20578274,9.19801,3.7184465,0.0,0.0,0.0
30523199834004,0.21535404,9.2075815,3.7136607,0.0,0.0,0.0
30523202212910,0.20578274,9.183653,3.7184465,0.0,0.0,0.0
30523204591816,0.19142582,9.169296,3.7423747,0.0,0.0,0.0
30523206970671,0.17706887,9.188439,3.737589,0.0,0.0,0.0
30523209349629,0.15314065,9.150154,3.737589,0.0,0.0,0.0
30523211728483,0.13878371,9.131011,3.7423747,0.0,0.0,0.0
30523214107441,0.11964113,9.131011,3.6993039,0.0,0.0,0.0
30523216486400,0.08135597,9.111869,3.694518,0.0,0.0,0.0
30523218865306,0.0526421,9.107083,3.7280176,0.0,0.0,0.0
30523221244160,0.047856454,9.092726,3.7758741,0.0,0.0,0.0
30523223623119,0.05742774,9.097511,3.7998023,0.0,0.0,0.0
30523226002025,0.08135597,9.111869,3.818945,0.0,0.0,0.0
30523228380931,0.11006984,9.078369,3.8333018,0.0,0.0,0.0
30523230759837,0.2009971,9.078369,3.8476589,0.0,0.0,0.0
30523233138744,0.25842485,9.068798,3.900301,0.0,0.0,0.0
30523235517702,0.3397808,9.040084,3.9338005,0.0,0.0,0.0
30523237896608,0.4019942,9.020942,3.9673,0.0,0.0,0.0
30523240275514,0.44027936,9.001799,3.9625144,0.0,0.0,0.0
30523242654421,0.49292147,8.997013,3.9720855,0.0,0.0,0.0
30523245033327,0.55034924,9.01137,3.9673,0.0,0.0,0.0
30523247412233,0.55513483,9.020942,3.9625144,0.0,0.0,0.0
30523249791191,0.53599226,9.035298,3.9625144,0.0,0.0,0.0
30523252170098,0.5072784,9.030513,3.9768713,0.0,0.0,0.0
30523254549004,0.4354937,9.0544405,3.9625144,0.0,0.0,0.0
30523256927910,0.33020952,9.064013,3.9673,0.0,0.0,0.0
30523259306816,0.23928227,9.08794,3.9577286,0.0,0.0,0.0
30523261685723,0.13878371,9.092726,3.9577286,0.0,0.0,0.0
30523264064629,0.047856454,9.08794,3.952943,0.0,0.0,0.0
30523266443535,-0.06699903,9.111869,3.9625144,0.0,0.0,0.0
30523268822494,-0.18664017,9.097511,3.9864426,0.0,0.0,0.0
30523271201400,-0.29192436,9.12144,3.9960139,0.0,0.0,0.0
30523273580306,-0.3062813,9.126225,3.9625144,0.0,0.0,0.0
30523275959212,-0.32542387,9.12144,3.952943,0.0,0.0,0.0
30523278338119,-0.32542387,9.135797,3.9433718,0.0,0.0,0.0
30523280717025,-0.28235307,9.145369,3.8955152,0.0,0.0,0.0
30523283095931,-0.2009971,9.135797,3.885944,0.0,0.0,0.0
30523285474889,-0.14356937,9.116654,3.8572302,0.0,0.0,0.0
30523287853796,-0.023928227,9.116654,3.842873,0.0,0.0,0.0
30523290232702,0.124426775,9.111869,3.8380876,0.0,0.0,0.0
30523292611608,0.22492532,9.097511,3.7998023,0.0,0.0,0.0
30523294990514,0.34456646,9.08794,3.7663028,0.0,0.0,0.0
30523297369421,0.41635114,9.097511,3.7710886,0.0,0.0,0.0
30523299748327,0.49292147,9.102298,3.7567315,0.0,0.0,0.0
30523302127285,0.55034924,9.083155,3.790231,0.0,0.0,0.0
30523304506191,0.56470615,9.083155,3.7710886,0.0,0.0,0.0
30523306885098,0.526421,9.073584,3.7663028,0.0,0.0,0.0
30523309264004,0.45942193,9.068798,3.7663028,0.0,0.0,0.0
30523311642910,0.38285163,9.08794,3.7998023,0.0,0.0,0.0
30523314021816,0.28235307,9.073584,3.7950168,0.0,0.0,0.0
30523316400723,0.148355,9.064013,3.8093736,0.0,0.0,0.0
30523318779629,-0.009571291,9.083155,3.8141594,0.0,0.0,0.0
30523321158587,-0.124426775,9.078369,3.818945,0.0,0.0,0.0
30523323537494,-0.28235307,9.102298,3.8333018,0.0,0.0,0.0
30523325916400,-0.3924229,9.083155,3.8093736,0.0,0.0,0.0
30523328295306,-0.4881358,9.083155,3.7998023,0.0,0.0,0.0
30523330674212,-0.57427746,9.073584,3.7950168,0.0,0.0,0.0
30523333053119,-0.63170516,9.073584,3.804588,0.0,0.0,0.0
30523335432025,-0.67477596,9.083155,3.8141594,0.0,0.0,0.0
30523337810983,-0.6652047,9.097511,3.8285162,0.0,0.0,0.0
30523340189889,-0.6556334,9.102298,3.842873,0.0,0.0,0.0
30523342568796,-0.5886344,9.102298,3.871587,0.0,0.0,0.0
30523344947702,-0.49292147,9.083155,3.842873,0.0,0.0,0.0
30523347326608,-0.41635114,9.116654,3.842873,0.0,0.0,0.0
30523349705514,-0.32063824,9.102298,3.8524444,0.0,0.0,0.0
30523352084421,-0.24885355,9.092726,3.8811584,0.0,0.0,0.0
30523354463379,-0.16271193,9.083155,3.885944,0.0,0.0,0.0
30523356842285,-0.076570325,9.068798,3.8811584,0.0,0.0,0.0
30523359221191,-0.033499517,9.044869,3.8811584,0.0,0.0,0.0
30523361600098,-0.019142581,9.064013,3.871587,0.0,0.0,0.0
30523363979004,-0.023928227,9.044869,3.8620157,0.0,0.0,0.0
30523366357910,-0.047856454,9.0544405,3.8333018,0.0,0.0,0.0
30523368736816,-0.086141616,9.016156,3.8285162,0.0,0.0,0.0
30523371115671,-0.18664017,9.025727,3.8333018,0.0,0.0,0.0
30523373494681,-0.2536392,9.025727,3.8285162,0.0,0.0,0.0
30523375873587,-0.33499518,9.044869,3.8285162,0.0,0.0,0.0
30523378252494,-0.41635114,9.049655,3.8237305,0.0,0.0,0.0
30523380631400,-0.47856453,9.068798,3.8093736,0.0,0.0,0.0
30523383010306,-0.5455636,9.059227,3.7758741,0.0,0.0,0.0
30523385389212,-0.61734825,9.068798,3.7615173,0.0,0.0,0.0
30523387768171,-0.6364908,9.08794,3.751946,0.0,0.0,0.0
30523390147077,-0.6269195,9.111869,3.751946,0.0,0.0,0.0
30523392525983,-0.61734825,9.12144,3.7615173,0.0,0.0,0.0
30523394904889,-0.57906306,9.12144,3.7806597,0.0,0.0,0.0
30523397283796,-0.5168497,9.169296,3.790231,0.0,0.0,0.0
30523399662702,-0.43070808,9.164511,3.7806597,0.0,0.0,0.0
30523402041608,-0.31585258,9.159725,3.7854455,0.0,0.0,0.0
30523404420514,-0.22971097,9.145369,3.7998023,0.0,0.0,0.0
30523406799421,-0.07178468,9.140582,3.7998023,0.0,0.0,0.0
30523409178379,0.043070808,9.15494,3.7806597,0.0,0.0,0.0
30523411557285,0.12921242,9.159725,3.7854455,0.0,0.0,0.0
30523413936191,0.2009971,9.159725,3.7663028,0.0,0.0,0.0
30523416315098,0.27756742,9.140582,3.7663028,0.0,0.0,0.0
30523418694004,0.31585258,9.150154,3.7663028,0.0,0.0,0.0
30523421072910,0.3397808,9.15494,3.7710886,0.0,0.0,0.0
30523423451816,0.36370903,9.159725,3.804588,0.0,0.0,0.0
30523425830775,0.32063824,9.15494,3.7950168,0.0,0.0,0.0
30523428209681,0.2536392,9.107083,3.8141594,0.0,0.0,0.0
30523430588587,0.16271193,9.097511,3.8285162,0.0,0.0,0.0
30523432967494,0.033499517,9.107083,3.8476589,0.0,0.0,0.0
30523435346400,-0.05742774,9.08794,3.8620157,0.0,0.0,0.0
30523437725306,-0.148355,9.08794,3.8763726,0.0,0.0,0.0
30523440104264,-0.2632105,9.073584,3.885944,0.0,0.0,0.0
30523442483171,-0.3589234,9.078369,3.900301,0.0,0.0,0.0
30523444862077,-0.4019942,9.059227,3.9050865,0.0,0.0,0.0
30523447240983,-0.44506502,9.049655,3.9242291,0.0,0.0,0.0
30523449619889,-0.46899325,9.044869,3.9098723,0.0,0.0,0.0
30523451998796,-0.44027936,9.035298,3.900301,0.0,0.0,0.0
30523454377702,-0.41156548,9.025727,3.9050865,0.0,0.0,0.0
30523456756608,-0.35413775,9.030513,3.900301,0.0,0.0,0.0
30523459135566,-0.27756742,9.030513,3.900301,0.0,0.0,0.0
30523461514473,-0.18664017,9.01137,3.9146578,0.0,0.0,0.0
30523463893379,-0.10049855,8.9826565,3.9290147,0.0,0.0,0.0
30523466272285,-0.023928227,8.9826565,3.9146578,0.0,0.0,0.0
30523468651191,0.06699903,9.006584,3.9194436,0.0,0.0,0.0
30523471030098,0.13878371,8.987442,3.9290147,0.0,0.0,0.0
30523473409004,0.2105684,8.9826565,3.9050865,0.0,0.0,0.0
30523475787962,0.24885355,8.973084,3.9194436,0.0,0.0,0.0
30523478166869,0.2440679,9.006584,3.9194436,0.0,0.0,0.0
30523480545775,0.23928227,9.030513,3.9050865,0.0,0.0,0.0
30523482924681,0.22492532,9.049655,3.8955152,0.0,0.0,0.0
30523485303587,0.16749759,9.049655,3.8907297,0.0,0.0,0.0
30523487682494,0.09571291,9.049655,3.885944,0.0,0.0,0.0
30523490061400,0.023928227,9.078369,3.871587,0.0,0.0,0.0
30523492440358,-0.033499517,9.08794,3.8572302,0.0,0.0,0.0
30523494819264,-0.10049855,9.102298,3.8572302,0.0,0.0,0.0
30523497198171,-0.13878371,9.116654,3.8476589,0.0,0.0,0.0
30523499577077,-0.20578274,9.150154,3.8380876,0.0,0.0,0.0
30523501955983,-0.2536392,9.174082,3.8380876,0.0,0.0,0.0
30523504334785,-0.26799613,9.159725,3.8572302,0.0,0.0,0.0
30523506713796,-0.25842485,9.169296,3.8476589,0.0,0.0,0.0
30523509092702,-0.25842485,9.150154,3.8333018,0.0,0.0,0.0
30523511471608,-0.2105684,9.164511,3.842873,0.0,0.0,0.0
30523513850566,-0.16271193,9.174082,3.8285162,0.0,0.0,0.0
30523516229473,-0.11006984,9.169296,3.8141594,0.0,0.0,0.0
30523518608379,-0.062213387,9.140582,3.804588,0.0,0.0,0.0
30523520987285,0.023928227,9.159725,3.790231,0.0,0.0,0.0
30523523366191,0.11485548,9.126225,3.7998023,0.0,0.0,0.0
30523525745098,0.15792629,9.097511,3.7998023,0.0,0.0,0.0
30523528124004,0.22013968,9.073584,3.7950168,0.0,0.0,0.0
30523530502962,0.26799613,9.08794,3.7854455,0.0,0.0,0.0
30523532881869,0.29192436,9.0544405,3.7663028,0.0,0.0,0.0
30523535260775,0.33020952,9.035298,3.7854455,0.0,0.0,0.0
30523537639681,0.35413775,9.016156,3.7758741,0.0,0.0,0.0
30523540018587,0.3493521,8.997013,3.7998023,0.0,0.0,0.0
30523542397494,0.33499518,8.9826565,3.804588,0.0,0.0,0.0
30523544776400,0.32063824,8.992228,3.818945,0.0,0.0,0.0
30523547155306,0.3062813,9.016156,3.8237305,0.0,0.0,0.0
30523549534264,0.2727818,9.020942,3.8333018,0.0,0.0,0.0
30523551913171,0.2440679,9.025727,3.8237305,0.0,0.0,0.0
30523554292077,0.21535404,9.016156,3.8380876,0.0,0.0,0.0
30523556670983,0.19142582,9.01137,3.8237305,0.0,0.0,0.0
30523559049889,0.18664017,9.040084,3.8237305,0.0,0.0,0.0
30523561428796,0.18185452,9.059227,3.842873,0.0,0.0,0.0
30523563807754,0.15792629,9.068798,3.842873,0.0,0.0,0.0
30523566186660,0.16749759,9.111869,3.8093736,0.0,0.0,0.0
30523568565566,0.19142582,9.097511,3.818945,0.0,0.0,0.0
30523570944473,0.17706887,9.097511,3.8333018,0.0,0.0,0.0
30523573323379,0.18664017,9.126225,3.8237305,0.0,0.0,0.0
30523575702285,0.2105684,9.140582,3.8333018,0.0,0.0,0.0
30523578081191,0.23928227,9.116654,3.8380876,0.0,0.0,0.0
30523580460150,0.26799613,9.111869,3.8333018,0.0,0.0,0.0
30523582839056,0.28713873,9.126225,3.8476589,0.0,0.0,0.0
30523585217962,0.3397808,9.12144,3.8333018,0.0,0.0,0.0
30523587596869,0.37328035,9.107083,3.8093736,0.0,0.0,0.0
30523589975775,0.40677986,9.140582,3.8141594,0.0,0.0,0.0
30523592354681,0.43070808,9.150154,3.818945,0.0,0.0,0.0
30523594733587,0.46899325,9.145369,3.8237305,0.0,0.0,0.0
30523597112494,0.5168497,9.15494,3.8285162,0.0,0.0,0.0
30523599491452,0.5455636,9.159725,3.842873,0.0,0.0,0.0
30523601870358,0.5838487,9.145369,3.8524444,0.0,0.0,0.0
30523604249264,0.6269195,9.12144,3.8763726,0.0,0.0,0.0
30523606628171,0.6412765,9.092726,3.8763726,0.0,0.0,0.0
30523609007025,0.67477596,9.107083,3.871587,0.0,0.0,0.0
30523611385983,0.6939186,9.107083,3.871587,0.0,0.0,0.0
30523613764889,0.6987042,9.102298,3.8620157,0.0,0.0,0.0
30523616143848,0.66999036,9.083155,3.8668015,0.0,0.0,0.0
30523618522754,0.65084773,9.064013,3.8955152,0.0,0.0,0.0
30523620901660,0.6412765,9.073584,3.9098723,0.0,0.0,0.0
30523623280566,0.5982057,9.083155,3.9098723,0.0,0.0,0.0
30523625659473,0.56470615,9.073584,3.8907297,0.0,0.0,0.0
30523628038379,0.51206404,9.097511,3.9194436,0.0,0.0,0.0
30523630417285,0.47856453,9.08794,3.9290147,0.0,0.0,0.0
30523632796191,0.40677986,9.073584,3.9290147,0.0,0.0,0.0
30523635175098,0.32542387,9.078369,3.9290147,0.0,0.0,0.0
30523637554056,0.27756742,9.073584,3.938586,0.0,0.0,0.0
30523639932962,0.23928227,9.044869,3.9625144,0.0,0.0,0.0
30523642311869,0.18664017,9.035298,3.9673,0.0,0.0,0.0
30523644690775,0.18664017,9.049655,3.952943,0.0,0.0,0.0
30523647069681,0.17228323,9.059227,3.9290147,0.0,0.0,0.0
30523649448587,0.148355,9.059227,3.9146578,0.0,0.0,0.0
30523651827494,0.15314065,9.035298,3.9098723,0.0,0.0,0.0
30523654206452,0.15792629,9.035298,3.9194436,0.0,0.0,0.0
30523656585358,0.15792629,9.025727,3.8907297,0.0,0.0,0.0
30523658964264,0.19621146,9.044869,3.885944,0.0,0.0,0.0
30523661343171,0.24885355,9.073584,3.885944,0.0,0.0,0.0
30523663722077,0.31585258,9.092726,3.8763726,0.0,0.0,0.0
30523666100983,0.3493521,9.064013,3.8811584,0.0,0.0,0.0
30523668479889,0.43070808,9.049655,3.8811584,0.0,0.0,0.0
30523670858848,0.4881358,9.0544405,3.8907297,0.0,0.0,0.0
30523673237754,0.5312066,9.068798,3.885944,0.0,0.0,0.0
30523675616660,0.57906306,9.068798,3.8907297,0.0,0.0,0.0
30523677995566,0.60777694,9.068798,3.9098723,0.0,0.0,0.0
30523680374473,0.6221339,9.08794,3.9098723,0.0,0.0,0.0
30523682753379,0.63170516,9.102298,3.8668015,0.0,0.0,0.0
30523685132285,0.61734825,9.092726,3.8380876,0.0,0.0,0.0
30523687511191,0.59342,9.092726,3.842873,0.0,0.0,0.0
30523689890150,0.5455636,9.107083,3.8380876,0.0,0.0,0.0
30523692269056,0.4977071,9.126225,3.8476589,0.0,0.0,0.0
30523694647962,0.44985065,9.12144,3.8380876,0.0,0.0,0.0
30523697026869,0.38285163,9.111869,3.842873,0.0,0.0,0.0
30523699405775,0.3062813,9.116654,3.8285162,0.0,0.0,0.0
30523701784681,0.21535404,9.102298,3.8093736,0.0,0.0,0.0
30523704163587,0.13878371,9.102298,3.8237305,0.0,0.0,0.0
30523706542546,0.076570325,9.092726,3.8333018,0.0,0.0,0.0
30523708921452,0.0047856453,9.08794,3.818945,0.0,0.0,0.0
30523711300358,-0.043070808,9.08794,3.8141594,0.0,0.0,0.0
30523713679264,-0.0526421,9.08794,3.8285162,0.0,0.0,0.0
30523716058171,-0.06699903,9.078369,3.8380876,0.0,0.0,0.0
30523718437077,-0.07178468,9.08794,3.8333018,0.0,0.0,0.0
30523720815983,-0.033499517,9.068798,3.8333018,0.0,0.0,0.0
30523723194941,-0.019142581,9.073584,3.8333018,0.0,0.0,0.0
30523725573848,0.014356935,9.073584,3.8237305,0.0,0.0,0.0
30523727952754,0.047856454,9.068798,3.8380876,0.0,0.0,0.0
30523730331660,0.09092726,9.073584,3.8285162,0.0,0.0,0.0
30523732710566,0.13878371,9.08794,3.8093736,0.0,0.0,0.0
30523735089473,0.15792629,9.078369,3.818945,0.0,0.0,0.0
30523737468379,0.15314065,9.08794,3.8620157,0.0,0.0,0.0
30523739847285,0.16271193,9.083155,3.885944,0.0,0.0,0.0
30523742226244,0.148355,9.073584,3.8907297,0.0,0.0,0.0
30523744605150,0.12921242,9.064013,3.900301,0.0,0.0,0.0
30523746984056,0.11006984,9.0544405,3.8572302,0.0,0.0,0.0
30523749362962,0.047856454,9.0544405,3.8763726,0.0,0.0,0.0
30523751741869,0.033499517,9.068798,3.8763726,0.0,0.0,0.0
30523754120775,-0.0047856453,9.073584,3.8811584,0.0,0.0,0.0
30523756499681,-0.076570325,9.073584,3.8907297,0.0,0.0,0.0
30523758878639,-0.11485548,9.078369,3.8907297,0.0,0.0,0.0
30523761257546,-0.12921242,9.064013,3.8907297,0.0,0.0,0.0
30523763636452,-0.18664017,9.073584,3.885944,0.0,0.0,0.0
30523766015358,-0.20578274,9.083155,3.871587,0.0,0.0,0.0
30523768394264,-0.23449662,9.059227,3.8620157,0.0,0.0,0.0
30523770773171,-0.23928227,9.08794,3.8572302,0.0,0.0,0.0
30523773152025,-0.23928227,9.083155,3.8955152,0.0,0.0,0.0
30523775530983,-0.24885355,9.083155,3.8955152,0.0,0.0,0.0
30523777909941,-0.22492532,9.073584,3.8907297,0.0,0.0,0.0
30523780288848,-0.19142582,9.073584,3.8955152,0.0,0.0,0.0
30523782667754,-0.19142582,9.068798,3.885944,0.0,0.0,0.0
30523785046660,-0.19142582,9.073584,3.900301,0.0,0.0,0.0
30523787425566,-0.17706887,9.073584,3.8955152,0.0,0.0,0.0
30523789804473,-0.16749759,9.078369,3.9050865,0.0,0.0,0.0
30523792183379,-0.16271193,9.0544405,3.9146578,0.0,0.0,0.0
30523794562337,-0.14356937,9.0544405,3.900301,0.0,0.0,0.0
30523796941244,-0.15314065,9.064013,3.9050865,0.0,0.0,0.0
30523799320150,-0.14356937,9.08794,3.885944,0.0,0.0,0.0
30523801699056,-0.14356937,9.092726,3.871587,0.0,0.0,0.0
30523804077962,-0.14356937,9.092726,3.8572302,0.0,0.0,0.0
30523806456869,-0.14356937,9.092726,3.871587,0.0,0.0,0.0
30523808835775,-0.13878371,9.102298,3.885944,0.0,0.0,0.0
30523811214681,-0.14356937,9.092726,3.8811584,0.0,0.0,0.0
30523813593639,-0.11964113,9.078369,3.8620157,0.0,0.0,0.0
30523815972546,-0.08135597,9.083155,3.8380876,0.0,0.0,0.0
30523818351452,-0.08135597,9.08794,3.8333018,0.0,0.0,0.0
30523820730358,-0.08135597,9.083155,3.8524444,0.0,0.0,0.0
30523823109264,-0.086141616,9.078369,3.8572302,0.0,0.0,0.0
30523825488171,-0.033499517,9.092726,3.8524444,0.0,0.0,0.0
30523827867077,-0.038285162,9.08794,3.8285162,0.0,0.0,0.0
30523830246035,-0.047856454,9.097511,3.8285162,0.0,0.0,0.0
30523832624941,-0.0526421,9.116654,3.8333018,0.0,0.0,0.0
30523835003848,-0.05742774,9.116654,3.818945,0.0,0.0,0.0
30523837382754,-0.076570325,9.116654,3.8141594,0.0,0.0,0.0
30523839761608,-0.09092726,9.131011,3.8237305,0.0,0.0,0.0
30523842140566,-0.12921242,9.12144,3.818945,0.0,0.0,0.0
30523844519473,-0.18185452,9.131011,3.818945,0.0,0.0,0.0
30523846898431,-0.23449662,9.140582,3.842873,0.0,0.0,0.0
30523849277337,-0.27756742,9.116654,3.8333018,0.0,0.0,0.0
30523851656244,-0.32542387,9.08794,3.8333018,0.0,0.0,0.0
30523854035150,-0.33499518,9.097511,3.8620157,0.0,0.0,0.0
30523856414004,-0.37328035,9.08794,3.871587,0.0,0.0,0.0
30523858792962,-0.41156548,9.078369,3.8668015,0.0,0.0,0.0
30523861171869,-0.41156548,9.068798,3.885944,0.0,0.0,0.0
30523863550775,-0.43070808,9.0544405,3.8763726,0.0,0.0,0.0
30523865929733,-0.4211368,9.0544405,3.885944,0.0,0.0,0.0
30523868308639,-0.41156548,9.0544405,3.8907297,0.0,0.0,0.0
30523870687546,-0.3684947,9.064013,3.8907297,0.0,0.0,0.0
30523873066452,-0.3493521,9.0544405,3.8955152,0.0,0.0,0.0
30523875445358,-0.32542387,9.035298,3.9098723,0.0,0.0,0.0
30523877824264,-0.27756742,9.030513,3.900301,0.0,0.0,0.0
30523880203171,-0.2440679,9.025727,3.8811584,0.0,0.0,0.0
30523882582077,-0.22013968,9.016156,3.885944,0.0,0.0,0.0
30523884961035,-0.16749759,9.016156,3.8907297,0.0,0.0,0.0
30523887339941,-0.13878371,9.035298,3.8955152,0.0,0.0,0.0
30523889718848,-0.14356937,9.049655,3.9098723,0.0,0.0,0.0
30523892097754,-0.12921242,9.044869,3.900301,0.0,0.0,0.0
30523894476660,-0.13399807,9.0544405,3.8907297,0.0,0.0,0.0
30523896855566,-0.13399807,9.064013,3.885944,0.0,0.0,0.0
30523899234473,-0.12921242,9.078369,3.871587,0.0,0.0,0.0
30523901613379,-0.13878371,9.078369,3.871587,0.0,0.0,0.0
30523903992337,-0.17228323,9.08794,3.8811584,0.0,0.0,0.0
30523906371244,-0.2009971,9.102298,3.885944,0.0,0.0,0.0
30523908750150,-0.2440679,9.111869,3.885944,0.0,0.0,0.0
30523911129056,-0.24885355,9.102298,3.885944,0.0,0.0,0.0
30523913507962,-0.2632105,9.097511,3.8763726,0.0,0.0,0.0
30523915886869,-0.28713873,9.111869,3.8668015,0.0,0.0,0.0
30523918265775,-0.31585258,9.111869,3.8572302,0.0,0.0,0.0
30523920644733,-0.32542387,9.116654,3.8668015,0.0,0.0,0.0
30523923023639,-0.3062813,9.107083,3.871587,0.0,0.0,0.0
30523925402546,-0.3062813,9.097511,3.8524444,0.0,0.0,0.0
30523927781452,-0.3062813,9.097511,3.8572302,0.0,0.0,0.0
30523930160358,-0.29192436,9.097511,3.8572302,0.0,0.0,0.0
30523932539264,-0.26799613,9.08794,3.8237305,0.0,0.0,0.0
30523934918171,-0.24885355,9.111869,3.8141594,0.0,0.0,0.0
30523937297077,-0.22971097,9.097511,3.804588,0.0,0.0,0.0
30523939676035,-0.22013968,9.092726,3.8285162,0.0,0.0,0.0
30523942054941,-0.19621146,9.102298,3.8237305,0.0,0.0,0.0
30523944433848,-0.18185452,9.073584,3.8237305,0.0,0.0,0.0
30523946812754,-0.2105684,9.064013,3.8333018,0.0,0.0,0.0
30523949191660,-0.19621146,9.059227,3.8285162,0.0,0.0,0.0
30523951570566,-0.19621146,9.0544405,3.818945,0.0,0.0,0.0
30523953949473,-0.23928227,9.059227,3.8237305,0.0,0.0,0.0
30523956328431,-0.26799613,9.073584,3.8141594,0.0,0.0,0.0
30523958707337,-0.30149564,9.064013,3.8285162,0.0,0.0,0.0
30523961086244,-0.35413775,9.078369,3.8237305,0.0,0.0,0.0
30523963465150,-0.38285163,9.064013,3.8093736,0.0,0.0,0.0
30523965844056,-0.3924229,9.083155,3.7998023,0.0,0.0,0.0
30523968222962,-0.40677986,9.078369,3.818945,0.0,0.0,0.0
30523970601869,-0.41635114,9.092726,3.8333018,0.0,0.0,0.0
30523972980775,-0.39720857,9.097511,3.8333018,0.0,0.0,0.0
30523975359733,-0.41635114,9.111869,3.8380876,0.0,0.0,0.0
30523977738639,-0.4019942,9.135797,3.8476589,0.0,0.0,0.0
30523980117494,-0.37806597,9.116654,3.8333018,0.0,0.0,0.0
30523982496452,-0.3397808,9.102298,3.8285162,0.0,0.0,0.0
30523984875358,-0.3062813,9.116654,3.8380876,0.0,0.0,0.0
30523987254264,-0.29671,9.116654,3.8285162,0.0,0.0,0.0
30523989633171,-0.24885355,9.107083,3.8380876,0.0,0.0,0.0
30523992012077,-0.2105684,9.102298,3.8333018,0.0,0.0,0.0
30523994391035,-0.19621146,9.092726,3.8333018,0.0,0.0,0.0
30523996769941,-0.19142582,9.097511,3.8333018,0.0,0.0,0.0
30523999148848,-0.18185452,9.097511,3.8380876,0.0,0.0,0.0
30524001527754,-0.17706887,9.102298,3.8285162,0.0,0.0,0.0
30524003906660,-0.17228323,9.073584,3.818945,0.0,0.0,0.0
30524006285566,-0.17228323,9.0544405,3.8237305,0.0,0.0,0.0
30524008664473,-0.16271193,9.059227,3.8572302,0.0,0.0,0.0
30524011043431,-0.18664017,9.064013,3.871587,0.0,0.0,0.0
30524013422337,-0.22013968,9.044869,3.8476589,0.0,0.0,0.0
30524015801244,-0.23928227,9.059227,3.8572302,0.0,0.0,0.0
30524018180150,-0.2632105,9.083155,3.8524444,0.0,0.0,0.0
30524020559056,-0.27756742,9.078369,3.8476589,0.0,0.0,0.0
30524022937962,-0.29671,9.059227,3.8668015,0.0,0.0,0.0
30524025316869,-0.30149564,9.068798,3.871587,0.0,0.0,0.0
30524027695775,-0.3062813,9.083155,3.871587,0.0,0.0,0.0
30524030074733,-0.2727818,9.097511,3.8763726,0.0,0.0,0.0
30524032453639,-0.23928227,9.102298,3.871587,0.0,0.0,0.0
30524034832546,-0.22971097,9.092726,3.8763726,0.0,0.0,0.0
30524037211452,-0.2009971,9.073584,3.885944,0.0,0.0,0.0
30524039590358,-0.2009971,9.078369,3.9050865,0.0,0.0,0.0
30524041969264,-0.148355,9.083155,3.9050865,0.0,0.0,0.0
30524044348171,-0.124426775,9.107083,3.9146578,0.0,0.0,0.0
30524046727077,-0.11964113,9.092726,3.9194436,0.0,0.0,0.0
30524049106035,-0.11485548,9.092726,3.9098723,0.0,0.0,0.0
30524051484941,-0.11006984,9.083155,3.8907297,0.0,0.0,0.0
30524053863848,-0.11006984,9.083155,3.885944,0.0,0.0,0.0
30524056242754,-0.09092726,9.092726,3.885944,0.0,0.0,0.0
30524058621660,-0.11006984,9.097511,3.8763726,0.0,0.0,0.0
30524061000514,-0.11006984,9.083155,3.871587,0.0,0.0,0.0
30524063379473,-0.11964113,9.083155,3.8620157,0.0,0.0,0.0
30524065758379,-0.11006984,9.08794,3.842873,0.0,0.0,0.0
30524068137337,-0.13399807,9.078369,3.8333018,0.0,0.0,0.0
30524070516244,-0.1052842,9.092726,3.8237305,0.0,0.0,0.0
30524072895150,-0.086141616,9.083155,3.8285162,0.0,0.0,0.0
30524075274056,-0.086141616,9.08794,3.8380876,0.0,0.0,0.0
30524077652962,-0.086141616,9.068798,3.8380876,0.0,0.0,0.0
30524080031869,-0.05742774,9.078369,3.8476589,0.0,0.0,0.0
30524082410775,-0.02871387,9.092726,3.8476589,0.0,0.0,0.0
30524084789733,0.0047856453,9.12144,3.8524444,0.0,0.0,0.0
30524087168639,0.043070808,9.111869,3.8476589,0.0,0.0,0.0
30524089547546,0.10049855,9.08794,3.8476589,0.0,0.0,0.0
30524091926452,0.11006984,9.073584,3.842873,0.0,0.0,0.0
30524094305358,0.13878371,9.068798,3.8668015,0.0,0.0,0.0
30524096684264,0.17706887,9.068798,3.8524444,0.0,0.0,0.0
30524099063171,0.18185452,9.08794,3.842873,0.0,0.0,0.0
30524101442129,0.20578274,9.068798,3.8333018,0.0,0.0,0.0
30524103821035,0.2009971,9.068798,3.8333018,0.0,0.0,0.0
30524106199941,0.2105684,9.068798,3.8285162,0.0,0.0,0.0
30524108578848,0.19142582,9.078369,3.818945,0.0,0.0,0.0
30524110957754,0.15792629,9.08794,3.8237305,0.0,0.0,0.0
30524113336660,0.124426775,9.08794,3.8285162,0.0,0.0,0.0
30524115715566,0.11006984,9.092726,3.818945,0.0,0.0,0.0
30524118094473,0.086141616,9.073584,3.7998023,0.0,0.0,0.0
30524120473379,0.038285162,9.102298,3.790231,0.0,0.0,0.0
30524122852337,0.0,9.08794,3.790231,0.0,0.0,0.0
30524125231244,-0.019142581,9.092726,3.804588,0.0,0.0,0.0
30524127610150,-0.09092726,9.102298,3.7950168,0.0,0.0,0.0
30524129989056,-0.13399807,9.102298,3.804588,0.0,0.0,0.0
30524132367962,-0.17228323,9.116654,3.804588,0.0,0.0,0.0
30524134746869,-0.17706887,9.126225,3.818945,0.0,0.0,0.0
30524137125775,-0.18664017,9.145369,3.8141594,0.0,0.0,0.0
30524139504733,-0.22013968,9.159725,3.8285162,0.0,0.0,0.0
30524141883639,-0.22971097,9.15494,3.8380876,0.0,0.0,0.0
30524144262546,-0.21535404,9.15494,3.8524444,0.0,0.0,0.0
30524146641452,-0.17706887,9.135797,3.8141594,0.0,0.0,0.0
30524149020358,-0.12921242,9.107083,3.8285162,0.0,0.0,0.0
30524151399264,-0.1052842,9.111869,3.8380876,0.0,0.0,0.0
30524153778171,-0.0526421,9.116654,3.8572302,0.0,0.0,0.0
30524156157129,-0.014356935,9.107083,3.8572302,0.0,0.0,0.0
30524158536035,0.014356935,9.08794,3.8763726,0.0,0.0,0.0
30524160914941,0.023928227,9.068798,3.871587,0.0,0.0,0.0
30524163293848,0.047856454,9.064013,3.8811584,0.0,0.0,0.0
30524165672754,0.0526421,9.068798,3.8811584,0.0,0.0,0.0
30524168051608,0.043070808,9.049655,3.9050865,0.0,0.0,0.0
30524170430566,0.019142581,9.016156,3.8907297,0.0,0.0,0.0
30524172809473,0.0047856453,9.025727,3.871587,0.0,0.0,0.0
30524175188379,-0.014356935,9.035298,3.8620157,0.0,0.0,0.0
30524177567337,-0.043070808,9.035298,3.8668015,0.0,0.0,0.0
30524179946244,-0.08135597,9.040084,3.871587,0.0,0.0,0.0
30524182325150,-0.148355,9.044869,3.885944,0.0,0.0,0.0
30524184704056,-0.17706887,9.025727,3.871587,0.0,0.0,0.0
30524187082962,-0.22492532,9.025727,3.842873,0.0,0.0,0.0
30524189461869,-0.27756742,9.044869,3.842873,0.0,0.0,0.0
30524191840827,-0.31585258,9.073584,3.8572302,0.0,0.0,0.0
30524194219681,-0.35413775,9.08794,3.8572302,0.0,0.0,0.0
30524196598639,-0.4019942,9.078369,3.8572302,0.0,0.0,0.0
30524198977546,-0.4019942,9.068798,3.8572302,0.0,0.0,0.0
30524201356452,-0.38763726,9.078369,3.8572302,0.0,0.0,0.0
30524203735358,-0.3684947,9.078369,3.8524444,0.0,0.0,0.0
30524206114264,-0.34456646,9.102298,3.8572302,0.0,0.0,0.0
30524208493171,-0.29671,9.135797,3.8620157,0.0,0.0,0.0
30524210872129,-0.2536392,9.111869,3.8620157,0.0,0.0,0.0
30524213250983,-0.2105684,9.107083,3.8620157,0.0,0.0,0.0
30524215629941,-0.17706887,9.107083,3.842873,0.0,0.0,0.0
30524218008848,-0.13399807,9.126225,3.8285162,0.0,0.0,0.0
30524220387754,-0.08135597,9.131011,3.842873,0.0,0.0,0.0
30524222766608,-0.0526421,9.135797,3.8572302,0.0,0.0,0.0
30524225145566,0.0047856453,9.116654,3.871587,0.0,0.0,0.0
30524227524473,0.009571291,9.107083,3.871587,0.0,0.0,0.0
30524229903379,0.02871387,9.111869,3.8524444,0.0,0.0,0.0
30524232282337,0.02871387,9.068798,3.8333018,0.0,0.0,0.0
30524234661191,-0.0047856453,9.092726,3.8285162,0.0,0.0,0.0
30524237040150,-0.038285162,9.08794,3.8476589,0.0,0.0,0.0
30524239419056,-0.062213387,9.097511,3.8476589,0.0,0.0,0.0
30524241797962,-0.09092726,9.08794,3.8668015,0.0,0.0,0.0
30524244176869,-0.15314065,9.08794,3.871587,0.0,0.0,0.0
30524246555775,-0.19621146,9.068798,3.8668015,0.0,0.0,0.0
30524248934733,-0.2440679,9.092726,3.871587,0.0,0.0,0.0
30524251313639,-0.29192436,9.083155,3.871587,0.0,0.0,0.0
30524253692546,-0.32542387,9.083155,3.8763726,0.0,0.0,0.0
30524256071452,-0.36370903,9.073584,3.8907297,0.0,0.0,0.0
30524258450358,-0.3924229,9.068798,3.8907297,0.0,0.0,0.0
30524260829264,-0.41156548,9.059227,3.900301,0.0,0.0,0.0
30524263208171,-0.40677986,9.049655,3.8907297,0.0,0.0,0.0
30524265587077,-0.38763726,9.049655,3.8763726,0.0,0.0,0.0
30524267965983,-0.38285163,9.0544405,3.8763726,0.0,0.0,0.0
30524270344941,-0.36370903,9.059227,3.8811584,0.0,0.0,0.0
30524272723848,-0.3493521,9.059227,3.8668015,0.0,0.0,0.0
30524275102754,-0.30149564,9.040084,3.8763726,0.0,0.0,0.0
30524277481660,-0.28235307,9.059227,3.8572302,0.0,0.0,0.0
30524279860566,-0.2536392,9.049655,3.8572302,0.0,0.0,0.0
30524282239473,-0.22013968,9.064013,3.8285162,0.0,0.0,0.0
30524284618379,-0.20578274,9.073584,3.818945,0.0,0.0,0.0
30524286997337,-0.17706887,9.08794,3.8333018,0.0,0.0,0.0
30524289376244,-0.16749759,9.08794,3.8380876,0.0,0.0,0.0
30524291755150,-0.17706887,9.116654,3.842873,0.0,0.0,0.0
30524294134056,-0.15792629,9.116654,3.8333018,0.0,0.0,0.0
30524296512962,-0.16271193,9.150154,3.8476589,0.0,0.0,0.0
30524298891869,-0.16749759,9.12144,3.8476589,0.0,0.0,0.0
30524301270775,-0.20578274,9.12144,3.8668015,0.0,0.0,0.0
30524303649681,-0.23928227,9.12144,3.8668015,0.0,0.0,0.0
30524306028639,-0.28235307,9.145369,3.8620157,0.0,0.0,0.0
30524308407546,-0.29671,9.150154,3.8620157,0.0,0.0,0.0
30524310786452,-0.32542387,9.135797,3.8524444,0.0,0.0,0.0
30524313165358,-0.3493521,9.131011,3.8380876,0.0,0.0,0.0
30524315544264,-0.37328035,9.131011,3.8380876,0.0,0.0,0.0
30524317923171,-0.40677986,9.131011,3.8380876,0.0,0.0,0.0
30524320302077,-0.4354937,9.140582,3.8476589,0.0,0.0,0.0
30524322680983,-0.44506502,9.140582,3.8476589,0.0,0.0,0.0
30524325059941,-0.45942193,9.083155,3.8476589,0.0,0.0,0.0
30524327438848,-0.4546363,9.08794,3.8285162,0.0,0.0,0.0
30524329817754,-0.45942193,9.097511,3.818945,0.0,0.0,0.0
30524332196660,-0.44506502,9.083155,3.842873,0.0,0.0,0.0
30524334575566,-0.44985065,9.107083,3.8333018,0.0,0.0,0.0
30524336954577,-0.4211368,9.064013,3.8476589,0.0,0.0,0.0
30524339333379,-0.42592242,9.073584,3.8524444,0.0,0.0,0.0
30524341712285,-0.4019942,9.073584,3.8572302,0.0,0.0,0.0
30524344091244,-0.3924229,9.049655,3.8476589,0.0,0.0,0.0
30524346470150,-0.38285163,9.040084,3.8333018,0.0,0.0,0.0
30524348849056,-0.38763726,9.025727,3.8380876,0.0,0.0,0.0
30524351227962,-0.3493521,9.016156,3.8380876,0.0,0.0,0.0
30524353606869,-0.35413775,9.020942,3.8476589,0.0,0.0,0.0
30524355985723,-0.35413775,9.044869,3.8572302,0.0,0.0,0.0
30524358364681,-0.33020952,9.0544405,3.8572302,0.0,0.0,0.0
30524360743639,-0.32063824,9.044869,3.8524444,0.0,0.0,0.0
30524363122546,-0.31585258,9.030513,3.8333018,0.0,0.0,0.0
30524365501452,-0.29192436,9.064013,3.8476589,0.0,0.0,0.0
30524367880358,-0.2727818,9.068798,3.8476589,0.0,0.0,0.0
30524370259264,-0.26799613,9.083155,3.8572302,0.0,0.0,0.0
30524372638119,-0.29671,9.083155,3.842873,0.0,0.0,0.0
30524375017077,-0.28713873,9.107083,3.8285162,0.0,0.0,0.0
30524377395983,-0.28713873,9.126225,3.818945,0.0,0.0,0.0
30524379774941,-0.29671,9.150154,3.8476589,0.0,0.0,0.0
30524382153848,-0.30149564,9.131011,3.8476589,0.0,0.0,0.0
30524384532754,-0.32063824,9.135797,3.8380876,0.0,0.0,0.0
30524386911660,-0.31585258,9.111869,3.8333018,0.0,0.0,0.0
30524389290566,-0.31585258,9.135797,3.8380876,0.0,0.0,0.0
30524391669473,-0.30149564,9.135797,3.8237305,0.0,0.0,0.0
30524394048379,-0.29671,9.145369,3.8333018,0.0,0.0,0.0
30524396427285,-0.31585258,9.145369,3.842873,0.0,0.0,0.0
30524398806244,-0.31585258,9.140582,3.8476589,0.0,0.0,0.0
30524401185150,-0.32063824,9.111869,3.8476589,0.0,0.0,0.0
30524403564056,-0.29192436,9.111869,3.842873,0.0,0.0,0.0
30524405942962,-0.31106696,9.102298,3.8668015,0.0,0.0,0.0
30524408321869,-0.31585258,9.08794,3.8572302,0.0,0.0,0.0
30524410700775,-0.31585258,9.097511,3.8668015,0.0,0.0,0.0
30524413079681,-0.31106696,9.059227,3.8763726,0.0,0.0,0.0
30524415458587,-0.32542387,9.040084,3.8763726,0.0,0.0,0.0
30524417837546,-0.33020952,9.044869,3.8763726,0.0,0.0,0.0
30524420216452,-0.32542387,9.040084,3.8668015,0.0,0.0,0.0
30524422595358,-0.31585258,9.040084,3.8620157,0.0,0.0,0.0
30524424974264,-0.32542387,9.035298,3.842873,0.0,0.0,0.0
30524427353171,-0.34456646,9.030513,3.8333018,0.0,0.0,0.0
30524429732077,-0.28713873,9.0544405,3.8476589,0.0,0.0,0.0
30524432110983,-0.30149564,9.040084,3.8572302,0.0,0.0,0.0
30524434489889,-0.27756742,9.073584,3.8620157,0.0,0.0,0.0
30524436868848,-0.25842485,9.073584,3.8524444,0.0,0.0,0.0
30524439247754,-0.2440679,9.064013,3.8572302,0.0,0.0,0.0
30524441626660,-0.22013968,9.073584,3.842873,0.0,0.0,0.0
30524444005566,-0.22013968,9.073584,3.8333018,0.0,0.0,0.0
30524446384473,-0.2009971,9.0544405,3.8380876,0.0,0.0,0.0
30524448763379,-0.18185452,9.059227,3.8285162,0.0,0.0,0.0
30524451142285,-0.15314065,9.064013,3.8380876,0.0,0.0,0.0
30524453521191,-0.148355,9.092726,3.8524444,0.0,0.0,0.0
30524455900150,-0.11006984,9.107083,3.8380876,0.0,0.0,0.0
30524458279056,-0.10049855,9.102298,3.8333018,0.0,0.0,0.0
30524460657962,-0.076570325,9.092726,3.842873,0.0,0.0,0.0
30524463036869,-0.0526421,9.116654,3.8476589,0.0,0.0,0.0
30524465415775,-0.05742774,9.131011,3.8476589,0.0,0.0,0.0
30524467794681,-0.0526421,9.131011,3.8333018,0.0,0.0,0.0
30524470173587,-0.0526421,9.131011,3.8237305,0.0,0.0,0.0
30524472552494,-0.02871387,9.12144,3.8285162,0.0,0.0,0.0
30524474931452,-0.043070808,9.126225,3.8141594,0.0,0.0,0.0
30524477310358,-0.05742774,9.145369,3.818945,0.0,0.0,0.0
30524479689264,-0.06699903,9.145369,3.8237305,0.0,0.0,0.0
30524482068171,-0.08135597,9.131011,3.8333018,0.0,0.0,0.0
30524484447077,-0.076570325,9.107083,3.8668015,0.0,0.0,0.0
30524486825983,-0.09092726,9.111869,3.8572302,0.0,0.0,0.0
30524489204889,-0.11485548,9.097511,3.8620157,0.0,0.0,0.0
30524491583796,-0.11964113,9.097511,3.8524444,0.0,0.0,0.0
30524493962754,-0.12921242,9.073584,3.8476589,0.0,0.0,0.0
30524496341660,-0.14356937,9.073584,3.8620157,0.0,0.0,0.0
30524498720566,-0.15792629,9.078369,3.871587,0.0,0.0,0.0
30524501099473,-0.16271193,9.073584,3.8620157,0.0,0.0,0.0
30524503478379,-0.15792629,9.0544405,3.8811584,0.0,0.0,0.0
30524505857285,-0.16749759,9.064013,3.8524444,0.0,0.0,0.0
30524508236191,-0.16271193,9.035298,3.871587,0.0,0.0,0.0
30524510615098,-0.17706887,9.030513,3.885944,0.0,0.0,0.0
30524512994056,-0.17228323,9.025727,3.8907297,0.0,0.0,0.0
30524515372962,-0.17706887,9.035298,3.871587,0.0,0.0,0.0
30524517751869,-0.14356937,9.040084,3.8668015,0.0,0.0,0.0
30524520130775,-0.11006984,9.016156,3.871587,0.0,0.0,0.0
30524522509681,-0.11006984,9.0544405,3.8763726,0.0,0.0,0.0
30524524888587,-0.09092726,9.035298,3.900301,0.0,0.0,0.0
30524527267494,-0.05742774,9.0544405,3.8907297,0.0,0.0,0.0
30524529646400,-0.033499517,9.078369,3.9050865,0.0,0.0,0.0
30524532025358,-0.019142581,9.073584,3.9050865,0.0,0.0,0.0
30524534404264,0.019142581,9.068798,3.8907297,0.0,0.0,0.0
30524536783171,0.043070808,9.073584,3.8811584,0.0,0.0,0.0
30524539162077,0.06699903,9.092726,3.8811584,0.0,0.0,0.0
30524541540983,0.07178468,9.078369,3.8811584,0.0,0.0,0.0
30524543919889,0.076570325,9.083155,3.8907297,0.0,0.0,0.0
30524546298796,0.05742774,9.092726,3.8955152,0.0,0.0,0.0
30524548677702,0.062213387,9.102298,3.8811584,0.0,0.0,0.0
30524551056660,0.043070808,9.111869,3.8763726,0.0,0.0,0.0
30524553435566,0.014356935,9.092726,3.8668015,0.0,0.0,0.0
30524555814421,0.0047856453,9.131011,3.871587,0.0,0.0,0.0
30524558193379,-0.019142581,9.12144,3.8572302,0.0,0.0,0.0
30524560572285,-0.043070808,9.12144,3.8572302,0.0,0.0,0.0
30524562951191,-0.047856454,9.116654,3.8476589,0.0,0.0,0.0
30524565330098,-0.08135597,9.102298,3.8141594,0.0,0.0,0.0
30524567709004,-0.11485548,9.073584,3.8333018,0.0,0.0,0.0
30524570087910,-0.13878371,9.097511,3.8380876,0.0,0.0,0.0
30524572466869,-0.17228323,9.12144,3.8237305,0.0,0.0,0.0
30524574845775,-0.15314065,9.126225,3.8285162,0.0,0.0,0.0
30524577224681,-0.14356937,9.097511,3.8380876,0.0,0.0,0.0
30524579603535,-0.14356937,9.102298,3.8333018,0.0,0.0,0.0
30524581982494,-0.13878371,9.092726,3.8333018,0.0,0.0,0.0
30524584361400,-0.13878371,9.092726,3.8380876,0.0,0.0,0.0
30524586740306,-0.11964113,9.08794,3.8476589,0.0,0.0,0.0
30524589119264,-0.06699903,9.083155,3.842873,0.0,0.0,0.0
30524591498171,-0.047856454,9.068798,3.8380876,0.0,0.0,0.0
30524593877077,-0.019142581,9.0544405,3.8476589,0.0,0.0,0.0
30524596255983,-0.0047856453,9.0544405,3.842873,0.0,0.0,0.0
30524598634889,0.038285162,9.040084,3.8476589,0.0,0.0,0.0
30524601013796,0.047856454,9.068798,3.8668015,0.0,0.0,0.0
30524603392702,0.047856454,9.049655,3.871587,0.0,0.0,0.0
30524605771608,0.023928227,9.044869,3.8668015,0.0,0.0,0.0
30524608150566,0.019142581,9.040084,3.8620157,0.0,0.0,0.0
30524610529473,-0.023928227,9.059227,3.8572302,0.0,0.0,0.0
30524612908379,-0.038285162,9.064013,3.8620157,0.0,0.0,0.0
30524615287285,-0.07178468,9.078369,3.8380876,0.0,0.0,0.0
30524617666191,-0.06699903,9.083155,3.8476589,0.0,0.0,0.0
30524620045098,-0.10049855,9.08794,3.842873,0.0,0.0,0.0
30524622424004,-0.11485548,9.097511,3.8333018,0.0,0.0,0.0
30524624802910,-0.13878371,9.102298,3.8380876,0.0,0.0,0.0
30524627181869,-0.15792629,9.116654,3.8237305,0.0,0.0,0.0
30524629560775,-0.16749759,9.135797,3.8285162,0.0,0.0,0.0
30524631939681,-0.16271193,9.12144,3.842873,0.0,0.0,0.0
30524634318587,-0.16271193,9.140582,3.842873,0.0,0.0,0.0
30524636697494,-0.15314065,9.140582,3.842873,0.0,0.0,0.0
30524639076400,-0.124426775,9.135797,3.842873,0.0,0.0,0.0
30524641455306,-0.1052842,9.135797,3.8333018,0.0,0.0,0.0
30524643834212,-0.1052842,9.111869,3.842873,0.0,0.0,0.0
30524646213119,-0.076570325,9.131011,3.842873,0.0,0.0,0.0
30524648592077,-0.0526421,9.145369,3.8668015,0.0,0.0,0.0
30524650970983,-0.0526421,9.140582,3.885944,0.0,0.0,0.0
30524653349889,-0.0526421,9.107083,3.8620157,0.0,0.0,0.0
30524655728796,-0.033499517,9.083155,3.8476589,0.0,0.0,0.0
30524658107650,-0.043070808,9.073584,3.8476589,0.0,0.0,0.0
30524660486608,-0.076570325,9.059227,3.8333018,0.0,0.0,0.0
30524662865514,-0.076570325,9.078369,3.8141594,0.0,0.0,0.0
30524665244473,-0.08135597,9.059227,3.8093736,0.0,0.0,0.0
30524667623379,-0.11964113,9.049655,3.8285162,0.0,0.0,0.0
30524670002285,-0.12921242,9.044869,3.8333018,0.0,0.0,0.0
30524672381191,-0.13878371,9.040084,3.818945,0.0,0.0,0.0
30524674760098,-0.14356937,9.020942,3.8141594,0.0,0.0,0.0
30524677139004,-0.15792629,9.020942,3.8093736,0.0,0.0,0.0
30524679517910,-0.17228323,9.0544405,3.818945,0.0,0.0,0.0
30524681896816,-0.16271193,9.030513,3.8141594,0.0,0.0,0.0
30524684275775,-0.16271193,9.030513,3.8476589,0.0,0.0,0.0
30524686654681,-0.16271193,9.064013,3.8380876,0.0,0.0,0.0
30524689033587,-0.124426775,9.08794,3.842873,0.0,0.0,0.0
30524691412494,-0.09571291,9.092726,3.8333018,0.0,0.0,0.0
30524693791400,-0.076570325,9.116654,3.8141594,0.0,0.0,0.0
30524696170306,-0.043070808,9.102298,3.8237305,0.0,0.0,0.0
30524698549212,-0.0047856453,9.102298,3.8572302,0.0,0.0,0.0
30524700928119,0.014356935,9.116654,3.8572302,0.0,0.0,0.0
30524703307077,0.047856454,9.145369,3.8811584,0.0,0.0,0.0
30524705685983,0.05742774,9.15494,3.871587,0.0,0.0,0.0
30524708064889,0.08135597,9.135797,3.871587,0.0,0.0,0.0
30524710443796,0.076570325,9.145369,3.8572302,0.0,0.0,0.0
30524712822702,0.062213387,9.150154,3.8620157,0.0,0.0,0.0
30524715201608,0.0526421,9.145369,3.871587,0.0,0.0,0.0
30524717580514,0.043070808,9.135797,3.8811584,0.0,0.0,0.0
30524719959421,0.019142581,9.126225,3.885944,0.0,0.0,0.0
30524722338327,-0.019142581,9.126225,3.8955152,0.0,0.0,0.0
30524724717285,-0.076570325,9.12144,3.9050865,0.0,0.0,0.0
30524727096191,-0.11006984,9.102298,3.9050865,0.0,0.0,0.0
30524729475098,-0.15792629,9.092726,3.9050865,0.0,0.0,0.0
30524731854004,-0.19621146,9.078369,3.9050865,0.0,0.0,0.0
30524734232910,-0.2105684,9.059227,3.9098723,0.0,0.0,0.0
30524736611816,-0.24885355,9.0544405,3.9146578,0.0,0.0,0.0
30524738990723,-0.25842485,9.049655,3.9050865,0.0,0.0,0.0
30524741369629,-0.26799613,9.025727,3.9146578,0.0,0.0,0.0
30524743748587,-0.2632105,8.992228,3.900301,0.0,0.0,0.0
30524746127494,-0.2536392,9.001799,3.900301,0.0,0.0,0.0
30524748506400,-0.2440679,8.9826565,3.8955152,0.0,0.0,0.0
30524750885306,-0.21535404,8.997013,3.9050865,0.0,0.0,0.0
30524753264212,-0.16271193,9.01137,3.900301,0.0,0.0,0.0
30524755643066,-0.11964113,9.025727,3.8668015,0.0,0.0,0.0
30524758022025,-0.09092726,9.049655,3.8620157,0.0,0.0,0.0
30524760400931,-0.0526421,9.025727,3.871587,0.0,0.0,0.0
30524762779889,-0.033499517,9.020942,3.8907297,0.0,0.0,0.0
30524765158796,-0.019142581,9.0544405,3.8811584,0.0,0.0,0.0
30524767537702,0.0,9.0544405,3.8620157,0.0,0.0,0.0
30524769916608,0.0047856453,9.059227,3.8333018,0.0,0.0,0.0
30524772295514,0.019142581,9.073584,3.8620157,0.0,0.0,0.0
30524774674421,0.0,9.102298,3.8620157,0.0,0.0,0.0
30524777053327,0.009571291,9.107083,3.842873,0.0,0.0,0.0
30524779432233,-0.019142581,9.102298,3.8141594,0.0,0.0,0.0
30524781811191,-0.062213387,9.111869,3.7998023,0.0,0.0,0.0
30524784190098,-0.086141616,9.135797,3.7998023,0.0,0.0,0.0
30524786569004,-0.11964113,9.145369,3.8093736,0.0,0.0,0.0
30524788947806,-0.148355,9.145369,3.8237305,0.0,0.0,0.0
30524791326816,-0.17228323,9.174082,3.8285162,0.0,0.0,0.0
30524793705723,-0.19621146,9.169296,3.804588,0.0,0.0,0.0
30524796084629,-0.20578274,9.15494,3.7950168,0.0,0.0,0.0
30524798463587,-0.21535404,9.164511,3.7998023,0.0,0.0,0.0
30524800842494,-0.23449662,9.164511,3.7854455,0.0,0.0,0.0
30524803221400,-0.22971097,9.169296,3.804588,0.0,0.0,0.0
30524805600306,-0.23928227,9.15494,3.7998023,0.0,0.0,0.0
30524807979212,-0.23449662,9.131011,3.7806597,0.0,0.0,0.0
30524810358119,-0.20578274,9.135797,3.7710886,0.0,0.0,0.0
30524812737025,-0.18664017,9.12144,3.790231,0.0,0.0,0.0
30524815115931,-0.15792629,9.08794,3.804588,0.0,0.0,0.0
30524817494837,-0.15314065,9.0544405,3.8093736,0.0,0.0,0.0
30524819873744,-0.11964113,9.073584,3.8333018,0.0,0.0,0.0
30524822252702,-0.11485548,9.064013,3.8237305,0.0,0.0,0.0
30524824631608,-0.076570325,9.025727,3.8093736,0.0,0.0,0.0
30524827010514,-0.076570325,9.020942,3.7950168,0.0,0.0,0.0
30524829389421,-0.033499517,9.030513,3.818945,0.0,0.0,0.0
30524831768327,-0.02871387,9.025727,3.8237305,0.0,0.0,0.0
30524834147233,-0.047856454,9.035298,3.8285162,0.0,0.0,0.0
30524836526139,-0.033499517,9.044869,3.8572302,0.0,0.0,0.0
30524838905046,-0.038285162,9.040084,3.8620157,0.0,0.0,0.0
30524841284004,-0.02871387,9.035298,3.8380876,0.0,0.0,0.0
30524843662910,-0.038285162,9.035298,3.8380876,0.0,0.0,0.0
30524846041816,-0.07178468,9.040084,3.842873,0.0,0.0,0.0
30524848420723,-0.09092726,9.073584,3.8763726,0.0,0.0,0.0
30524850799629,-0.08135597,9.078369,3.8763726,0.0,0.0,0.0
30524853178535,-0.09092726,9.073584,3.900301,0.0,0.0,0.0
30524855557441,-0.10049855,9.083155,3.8907297,0.0,0.0,0.0
30524857936348,-0.11485548,9.102298,3.885944,0.0,0.0,0.0
30524860315306,-0.11006984,9.107083,3.8763726,0.0,0.0,0.0
30524862694212,-0.1052842,9.12144,3.8620157,0.0,0.0,0.0
30524865073119,-0.12921242,9.107083,3.8620157,0.0,0.0,0.0
30524867452025,-0.148355,9.135797,3.871587,0.0,0.0,0.0
30524869830931,-0.15792629,9.140582,3.885944,0.0,0.0,0.0
30524872209837,-0.17228323,9.140582,3.8955152,0.0,0.0,0.0
30524874588744,-0.15314065,9.12144,3.8907297,0.0,0.0,0.0
30524876967650,-0.15792629,9.111869,3.8668015,0.0,0.0,0.0
30524879346608,-0.16271193,9.111869,3.871587,0.0,0.0,0.0
30524881725514,-0.16749759,9.111869,3.871587,0.0,0.0,0.0
30524884104421,-0.17228323,9.097511,3.871587,0.0,0.0,0.0
30524886483327,-0.17706887,9.107083,3.8668015,0.0,0.0,0.0
30524888862233,-0.19621146,9.083155,3.871587,0.0,0.0,0.0
30524891241139,-0.2105684,9.078369,3.900301,0.0,0.0,0.0
30524893620046,-0.22971097,9.064013,3.8763726,0.0,0.0,0.0
30524895998952,-0.24885355,9.044869,3.871587,0.0,0.0,0.0
30524898377910,-0.22971097,9.044869,3.8668015,0.0,0.0,0.0
30524900756816,-0.2440679,9.044869,3.8668015,0.0,0.0,0.0
30524903135723,-0.2536392,9.0544405,3.8476589,0.0,0.0,0.0
30524905514629,-0.2536392,9.040084,3.842873,0.0,0.0,0.0
30524907893535,-0.26799613,9.035298,3.842873,0.0,0.0,0.0
30524910272441,-0.28713873,9.020942,3.8476589,0.0,0.0,0.0
30524912651348,-0.29192436,9.025727,3.8285162,0.0,0.0,0.0
30524915030254,-0.29192436,9.040084,3.8524444,0.0,0.0,0.0
30524917409160,-0.2727818,9.059227,3.8476589,0.0,0.0,0.0
30524919788119,-0.25842485,9.073584,3.8380876,0.0,0.0,0.0
30524922166973,-0.2536392,9.078369,3.842873,0.0,0.0,0.0
30524924545931,-0.23928227,9.068798,3.8380876,0.0,0.0,0.0
30524926924837,-0.22492532,9.073584,3.8237305,0.0,0.0,0.0
30524929303744,-0.22013968,9.073584,3.818945,0.0,0.0,0.0
30524931682650,-0.16749759,9.097511,3.8333018,0.0,0.0,0.0
30524934061556,-0.19621146,9.111869,3.8476589,0.0,0.0,0.0
30524936440462,-0.17706887,9.111869,3.8380876,0.0,0.0,0.0
30524938819421,-0.18185452,9.111869,3.8333018,0.0,0.0,0.0
30524941198327,-0.16271193,9.107083,3.8141594,0.0,0.0,0.0
30524943577233,-0.148355,9.126225,3.8237305,0.0,0.0,0.0
30524945956139,-0.14356937,9.159725,3.8285162,0.0,0.0,0.0
30524948335046,-0.148355,9.15494,3.842873,0.0,0.0,0.0
30524950713952,-0.16271193,9.150154,3.8476589,0.0,0.0,0.0
30524953092858,-0.15792629,9.126225,3.8476589,0.0,0.0,0.0
30524955471764,-0.16749759,9.131011,3.8380876,0.0,0.0,0.0
30524957850671,-0.16749759,9.107083,3.818945,0.0,0.0,0.0
30524960229629,-0.16271193,9.097511,3.842873,0.0,0.0,0.0
30524962608535,-0.17228323,9.116654,3.8333018,0.0,0.0,0.0
30524964987441,-0.19142582,9.116654,3.842873,0.0,0.0,0.0
30524967366348,-0.18185452,9.097511,3.8524444,0.0,0.0,0.0
30524969745254,-0.17706887,9.083155,3.8476589,0.0,0.0,0.0
30524972124160,-0.2009971,9.078369,3.8380876,0.0,0.0,0.0
30524974503066,-0.21535404,9.059227,3.8380876,0.0,0.0,0.0
30524976881973,-0.2105684,9.064013,3.842873,0.0,0.0,0.0
30524979260931,-0.22492532,9.040084,3.8524444,0.0,0.0,0.0
30524981639837,-0.22971097,9.030513,3.871587,0.0,0.0,0.0
30524984018744,-0.2536392,9.030513,3.8907297,0.0,0.0,0.0
30524986397650,-0.26799613,9.049655,3.8907297,0.0,0.0,0.0
30524988776556,-0.28713873,9.044869,3.8811584,0.0,0.0,0.0
30524991155462,-0.29192436,9.040084,3.8763726,0.0,0.0,0.0
30524993534369,-0.3062813,9.035298,3.871587,0.0,0.0,0.0
30524995913275,-0.3062813,9.035298,3.8620157,0.0,0.0,0.0
30524998292181,-0.3062813,9.044869,3.8907297,0.0,0.0,0.0
30525000671139,-0.25842485,9.068798,3.871587,0.0,0.0,0.0
30525003050046,-0.22971097,9.097511,3.8811584,0.0,0.0,0.0
30525005428952,-0.17706887,9.097511,3.8907297,0.0,0.0,0.0
30525007807858,-0.15792629,9.111869,3.871587,0.0,0.0,0.0
30525010186764,-0.13399807,9.107083,3.8668015,0.0,0.0,0.0
30525012565671,-0.1052842,9.12144,3.8476589,0.0,0.0,0.0
30525014944577,-0.06699903,9.126225,3.842873,0.0,0.0,0.0
30525017323483,-0.038285162,9.140582,3.8476589,0.0,0.0,0.0
30525019702441,-0.023928227,9.12144,3.8572302,0.0,0.0,0.0
30525022081348,-0.014356935,9.102298,3.842873,0.0,0.0,0.0
30525024460254,-0.014356935,9.131011,3.8524444,0.0,0.0,0.0
30525026839160,-0.009571291,9.107083,3.8524444,0.0,0.0,0.0
30525029218066,-0.0526421,9.092726,3.8763726,0.0,0.0,0.0
30525031596973,-0.07178468,9.092726,3.8668015,0.0,0.0,0.0
30525033975879,-0.076570325,9.064013,3.8620157,0.0,0.0,0.0
30525036354785,-0.13878371,9.064013,3.8524444,0.0,0.0,0.0
30525038733744,-0.18664017,9.068798,3.842873,0.0,0.0,0.0
30525041112650,-0.22013968,9.073584,3.8333018,0.0,0.0,0.0
30525043491556,-0.22971097,9.083155,3.8285162,0.0,0.0,0.0
30525045870462,-0.2727818,9.073584,3.8380876,0.0,0.0,0.0
30525048249316,-0.2727818,9.083155,3.8285162,0.0,0.0,0.0
30525050628223,-0.28713873,9.073584,3.8333018,0.0,0.0,0.0
30525053007181,-0.2727818,9.078369,3.818945,0.0,0.0,0.0
30525055386087,-0.25842485,9.064013,3.7950168,0.0,0.0,0.0
30525057765046,-0.23449662,9.073584,3.818945,0.0,0.0,0.0
30525060143952,-0.19621146,9.078369,3.7998023,0.0,0.0,0.0
30525062522858,-0.19142582,9.097511,3.8141594,0.0,0.0,0.0
30525064901764,-0.16271193,9.059227,3.8333018,0.0,0.0,0.0
30525067280671,-0.124426775,9.064013,3.842873,0.0,0.0,0.0
30525069659577,-0.076570325,9.08794,3.871587,0.0,0.0,0.0
30525072038483,-0.0526421,9.083155,3.8620157,0.0,0.0,0.0
30525074417389,-0.06699903,9.097511,3.8668015,0.0,0.0,0.0
30525076796296,-0.033499517,9.102298,3.8763726,0.0,0.0,0.0
30525079175254,-0.019142581,9.08794,3.8811584,0.0,0.0,0.0
30525081554160,-0.014356935,9.107083,3.8811584,0.0,0.0,0.0
30525083933066,-0.033499517,9.102298,3.9050865,0.0,0.0,0.0
30525086311921,-0.02871387,9.083155,3.8907297,0.0,0.0,0.0
30525088690879,-0.047856454,9.073584,3.8763726,0.0,0.0,0.0
30525091069785,-0.038285162,9.083155,3.8572302,0.0,0.0,0.0
30525093448691,-0.076570325,9.083155,3.8285162,0.0,0.0,0.0
30525095827598,-0.08135597,9.102298,3.8237305,0.0,0.0,0.0
30525098206504,-0.1052842,9.092726,3.8333018,0.0,0.0,0.0
30525100585462,-0.11964113,9.102298,3.842873,0.0,0.0,0.0
30525102964369,-0.15314065,9.102298,3.8572302,0.0,0.0,0.0
30525105343275,-0.15792629,9.097511,3.8476589,0.0,0.0,0.0
30525107722181,-0.2105684,9.116654,3.8572302,0.0,0.0,0.0
30525110101087,-0.22492532,9.102298,3.8572302,0.0,0.0,0.0
30525112479994,-0.22971097,9.068798,3.8620157,0.0,0.0,0.0
30525114858900,-0.21535404,9.078369,3.8763726,0.0,0.0,0.0
30525117237806,-0.2009971,9.044869,3.8955152,0.0,0.0,0.0
30525119616764,-0.2009971,9.049655,3.9050865,0.0,0.0,0.0
30525121995671,-0.21535404,9.040084,3.900301,0.0,0.0,0.0
30525124374577,-0.21535404,9.0544405,3.9050865,0.0,0.0,0.0
30525126753483,-0.20578274,9.044869,3.900301,0.0,0.0,0.0
30525129132389,-0.21535404,9.044869,3.8907297,0.0,0.0,0.0
30525131511296,-0.21535404,9.0544405,3.9050865,0.0,0.0,0.0
30525133890202,-0.19142582,9.0544405,3.8668015,0.0,0.0,0.0
30525136269108,-0.18664017,9.064013,3.871587,0.0,0.0,0.0
30525138648014,-0.18185452,9.059227,3.8476589,0.0,0.0,0.0
30525141026973,-0.18185452,9.083155,3.842873,0.0,0.0,0.0
30525143405879,-0.15792629,9.08794,3.8524444,0.0,0.0,0.0
30525145784785,-0.15314065,9.08794,3.8476589,0.0,0.0,0.0
30525148163691,-0.15792629,9.102298,3.8380876,0.0,0.0,0.0
30525150542598,-0.148355,9.111869,3.8285162,0.0,0.0,0.0
30525152921504,-0.15314065,9.107083,3.8141594,0.0,0.0,0.0
30525155300410,-0.124426775,9.092726,3.7998023,0.0,0.0,0.0
30525157679369,-0.13399807,9.12144,3.804588,0.0,0.0,0.0
30525160058275,-0.11964113,9.116654,3.818945,0.0,0.0,0.0
30525162437181,-0.086141616,9.126225,3.8237305,0.0,0.0,0.0
30525164816087,-0.10049855,9.102298,3.8285162,0.0,0.0,0.0
30525167194994,-0.086141616,9.102298,3.8237305,0.0,0.0,0.0
30525169573900,-0.07178468,9.092726,3.8237305,0.0,0.0,0.0
30525171952806,-0.08135597,9.116654,3.8333018,0.0,0.0,0.0
30525174331712,-0.1052842,9.116654,3.8285162,0.0,0.0,0.0
30525176710619,-0.08135597,9.12144,3.8333018,0.0,0.0,0.0
30525179089525,-0.1052842,9.092726,3.8333018,0.0,0.0,0.0
30525181468483,-0.11485548,9.107083,3.8237305,0.0,0.0,0.0
30525183847389,-0.10049855,9.073584,3.8141594,0.0,0.0,0.0
30525186226296,-0.10049855,9.073584,3.8237305,0.0,0.0,0.0
30525188605202,-0.11006984,9.073584,3.7998023,0.0,0.0,0.0
30525190984108,-0.086141616,9.059227,3.8093736,0.0,0.0,0.0
30525193363014,-0.08135597,9.078369,3.8333018,0.0,0.0,0.0
30525195741921,-0.062213387,9.078369,3.8476589,0.0,0.0,0.0
30525198120827,-0.076570325,9.111869,3.842873,0.0,0.0,0.0
30525200499785,-0.07178468,9.078369,3.818945,0.0,0.0,0.0
30525202878691,-0.043070808,9.064013,3.8285162,0.0,0.0,0.0
30525205257598,-0.0526421,9.044869,3.8476589,0.0,0.0,0.0
30525207636504,-0.043070808,9.073584,3.8572302,0.0,0.0,0.0
30525210015410,-0.0526421,9.064013,3.8620157,0.0,0.0,0.0
30525212394316,-0.0526421,9.064013,3.8811584,0.0,0.0,0.0
30525214773223,-0.09571291,9.08794,3.8955152,0.0,0.0,0.0
30525217152129,-0.10049855,9.092726,3.8955152,0.0,0.0,0.0
30525219530983,-0.11485548,9.078369,3.9050865,0.0,0.0,0.0
30525221909994,-0.15792629,9.092726,3.8907297,0.0,0.0,0.0
30525224288900,-0.17228323,9.059227,3.8668015,0.0,0.0,0.0
30525226667806,-0.18185452,9.083155,3.8763726,0.0,0.0,0.0
30525229046712,-0.22492532,9.078369,3.8668015,0.0,0.0,0.0
30525231425619,-0.21535404,9.083155,3.8668015,0.0,0.0,0.0
30525233804525,-0.22492532,9.092726,3.885944,0.0,0.0,0.0
30525236183431,-0.23928227,9.078369,3.8572302,0.0,0.0,0.0
30525238562337,-0.2440679,9.08794,3.8572302,0.0,0.0,0.0
30525240941296,-0.22492532,9.083155,3.8763726,0.0,0.0,0.0
30525243320202,-0.2009971,9.073584,3.8811584,0.0,0.0,0.0
30525245699108,-0.16749759,9.059227,3.871587,0.0,0.0,0.0
30525248077962,-0.12921242,9.08794,3.8763726,0.0,0.0,0.0
30525250456921,-0.10049855,9.068798,3.8763726,0.0,0.0,0.0
30525252835827,-0.06699903,9.059227,3.871587,0.0,0.0,0.0
30525255214733,-0.043070808,9.078369,3.8763726,0.0,0.0,0.0
30525257593639,-0.014356935,9.073584,3.8668015,0.0,0.0,0.0
30525259972546,-0.009571291,9.064013,3.8668015,0.0,0.0,0.0
30525262351504,-0.023928227,9.073584,3.8620157,0.0,0.0,0.0
30525264730410,-0.047856454,9.08794,3.8524444,0.0,0.0,0.0
30525267109316,-0.05742774,9.083155,3.8620157,0.0,0.0,0.0
30525269488223,-0.07178468,9.08794,3.8763726,0.0,0.0,0.0
30525271867129,-0.11485548,9.073584,3.8668015,0.0,0.0,0.0
30525274246035,-0.15314065,9.0544405,3.8380876,0.0,0.0,0.0
30525276624941,-0.2105684,9.068798,3.8476589,0.0,0.0,0.0
30525279003848,-0.23928227,9.068798,3.842873,0.0,0.0,0.0
30525281382806,-0.25842485,9.083155,3.8524444,0.0,0.0,0.0
30525283761712,-0.24885355,9.068798,3.8620157,0.0,0.0,0.0
30525286140619,-0.2440679,9.102298,3.8572302,0.0,0.0,0.0
30525288519525,-0.23928227,9.097511,3.8237305,0.0,0.0,0.0
30525290898431,-0.2440679,9.097511,3.8476589,0.0,0.0,0.0
30525293277337,-0.20578274,9.102298,3.8572302,0.0,0.0,0.0
30525295656244,-0.17706887,9.092726,3.8524444,0.0,0.0,0.0
30525298035150,-0.13878371,9.111869,3.8380876,0.0,0.0,0.0
30525300414056,-0.10049855,9.107083,3.8237305,0.0,0.0,0.0
30525302793014,-0.06699903,9.097511,3.8333018,0.0,0.0,0.0
30525305171921,-0.038285162,9.092726,3.8380876,0.0,0.0,0.0
30525307550827,0.0,9.097511,3.8333018,0.0,0.0,0.0
30525309929733,0.009571291,9.12144,3.8476589,0.0,0.0,0.0
30525312308639,0.014356935,9.111869,3.8620157,0.0,0.0,0.0
30525314687546,0.0,9.126225,3.8620157,0.0,0.0,0.0
30525317066452,-0.014356935,9.111869,3.8572302,0.0,0.0,0.0
30525319445358,-0.033499517,9.102298,3.8524444,0.0,0.0,0.0
30525321824264,-0.033499517,9.102298,3.8476589,0.0,0.0,0.0
30525324203223,-0.07178468,9.092726,3.8572302,0.0,0.0,0.0
30525326582129,-0.11485548,9.08794,3.8620157,0.0,0.0,0.0
30525328961035,-0.14356937,9.102298,3.8620157,0.0,0.0,0.0
30525331339941,-0.16271193,9.092726,3.842873,0.0,0.0,0.0
30525333718848,-0.2105684,9.078369,3.842873,0.0,0.0,0.0
30525336097754,-0.24885355,9.064013,3.8285162,0.0,0.0,0.0
30525338476660,-0.2536392,9.035298,3.8141594,0.0,0.0,0.0
30525340855514,-0.2632105,9.040084,3.8524444,0.0,0.0,0.0
30525343234525,-0.28235307,9.049655,3.8668015,0.0,0.0,0.0
30525345613431,-0.29192436,9.059227,3.8524444,0.0,0.0,0.0
30525347992337,-0.31585258,9.068798,3.8668015,0.0,0.0,0.0
30525350371244,-0.2727818,9.073584,3.842873,0.0,0.0,0.0
30525352750150,-0.2440679,9.092726,3.8237305,0.0,0.0,0.0
30525355129056,-0.22971097,9.092726,3.818945,0.0,0.0,0.0
30525357507962,-0.20578274,9.08794,3.8285162,0.0,0.0,0.0
30525359886869,-0.20578274,9.097511,3.818945,0.0,0.0,0.0
30525362265827,-0.18185452,9.092726,3.8237305,0.0,0.0,0.0
30525364644681,-0.17228323,9.097511,3.8237305,0.0,0.0,0.0
30525367023639,-0.12921242,9.102298,3.8333018,0.0,0.0,0.0
30525369402546,-0.10049855,9.116654,3.8285162,0.0,0.0,0.0
30525371781452,-0.07178468,9.116654,3.8237305,0.0,0.0,0.0
30525374160358,-0.062213387,9.107083,3.8333018,0.0,0.0,0.0
30525376539264,-0.05742774,9.111869,3.8476589,0.0,0.0,0.0
30525378918171,-0.062213387,9.097511,3.842873,0.0,0.0,0.0
30525381297077,-0.062213387,9.12144,3.842873,0.0,0.0,0.0
30525383675983,-0.08135597,9.135797,3.8620157,0.0,0.0,0.0
30525386054941,-0.11964113,9.126225,3.8524444,0.0,0.0,0.0
30525388433848,-0.13878371,9.102298,3.8620157,0.0,0.0,0.0
30525390812754,-0.17228323,9.116654,3.8620157,0.0,0.0,0.0
30525393191660,-0.17228323,9.097511,3.8572302,0.0,0.0,0.0
30525395570514,-0.23449662,9.102298,3.8620157,0.0,0.0,0.0
30525397949473,-0.26799613,9.097511,3.8476589,0.0,0.0,0.0
30525400328379,-0.31585258,9.068798,3.8524444,0.0,0.0,0.0
30525402707285,-0.34456646,9.08794,3.8476589,0.0,0.0,0.0
30525405086191,-0.3684947,9.078369,3.8380876,0.0,0.0,0.0
30525407465098,-0.37806597,9.078369,3.8380876,0.0,0.0,0.0
30525409844056,-0.38763726,9.068798,3.8285162,0.0,0.0,0.0
30525412222962,-0.37806597,9.068798,3.8285162,0.0,0.0,0.0
30525414601869,-0.3589234,9.078369,3.842873,0.0,0.0,0.0
30525416980775,-0.3397808,9.083155,3.8572302,0.0,0.0,0.0
30525419359681,-0.29671,9.08794,3.8572302,0.0,0.0,0.0
30525421738587,-0.24885355,9.064013,3.8380876,0.0,0.0,0.0
30525424117494,-0.22013968,9.068798,3.8668015,0.0,0.0,0.0
30525426496400,-0.17228323,9.078369,3.8620157,0.0,0.0,0.0
30525428875358,-0.13878371,9.083155,3.8572302,0.0,0.0,0.0
30525431254264,-0.124426775,9.073584,3.8620157,0.0,0.0,0.0
30525433633171,-0.10049855,9.073584,3.8620157,0.0,0.0,0.0
30525436012077,-0.0526421,9.078369,3.8620157,0.0,0.0,0.0
30525438390983,-0.02871387,9.073584,3.8620157,0.0,0.0,0.0
30525440769889,-0.023928227,9.102298,3.8620157,0.0,0.0,0.0
30525443148796,-0.023928227,9.097511,3.8620157,0.0,0.0,0.0
30525445527702,-0.043070808,9.092726,3.8668015,0.0,0.0,0.0
30525447906660,-0.062213387,9.073584,3.8620157,0.0,0.0,0.0
30525450285566,-0.08135597,9.107083,3.8524444,0.0,0.0,0.0
30525452664473,-0.12921242,9.116654,3.8572302,0.0,0.0,0.0
30525455043379,-0.17706887,9.116654,3.8620157,0.0,0.0,0.0
30525457422285,-0.20578274,9.116654,3.8620157,0.0,0.0,0.0
30525459801191,-0.25842485,9.12144,3.871587,0.0,0.0,0.0
30525462180098,-0.32063824,9.097511,3.8811584,0.0,0.0,0.0
30525464559004,-0.37328035,9.092726,3.8907297,0.0,0.0,0.0
30525466937910,-0.37328035,9.107083,3.8811584,0.0,0.0,0.0
30525469316869,-0.42592242,9.097511,3.8668015,0.0,0.0,0.0
30525471695775,-0.45942193,9.068798,3.8572302,0.0,0.0,0.0
30525474074681,-0.44985065,9.0544405,3.8524444,0.0,0.0,0.0
30525476453587,-0.47377887,9.073584,3.8524444,0.0,0.0,0.0
30525478832494,-0.45942193,9.059227,3.8524444,0.0,0.0,0.0
30525481211400,-0.45942193,9.0544405,3.8333018,0.0,0.0,0.0
30525483590306,-0.4642076,9.0544405,3.8572302,0.0,0.0,0.0
30525485969212,-0.44985065,9.0544405,3.871587,0.0,0.0,0.0
30525488348119,-0.39720857,9.064013,3.8524444,0.0,0.0,0.0
30525490727077,-0.3684947,9.049655,3.818945,0.0,0.0,0.0
30525493105983,-0.34456646,9.0544405,3.842873,0.0,0.0,0.0
30525495484889,-0.32063824,9.064013,3.8237305,0.0,0.0,0.0
30525497863796,-0.28235307,9.064013,3.842873,0.0,0.0,0.0
30525500242702,-0.25842485,9.073584,3.8476589,0.0,0.0,0.0
30525502621608,-0.2632105,9.064013,3.842873,0.0,0.0,0.0
30525505000514,-0.2440679,9.083155,3.8476589,0.0,0.0,0.0
30525507379421,-0.24885355,9.097511,3.842873,0.0,0.0,0.0
30525509758327,-0.2632105,9.08794,3.842873,0.0,0.0,0.0
30525512137233,-0.24885355,9.111869,3.8668015,0.0,0.0,0.0
30525514516191,-0.2536392,9.12144,3.8572302,0.0,0.0,0.0
30525516895098,-0.26799613,9.126225,3.871587,0.0,0.0,0.0
30525519274004,-0.27756742,9.111869,3.8572302,0.0,0.0,0.0
30525521652910,-0.30149564,9.135797,3.842873,0.0,0.0,0.0
30525524031816,-0.3062813,9.145369,3.842873,0.0,0.0,0.0
30525526410723,-0.29192436,9.140582,3.8524444,0.0,0.0,0.0
30525528789629,-0.35413775,9.135797,3.8668015,0.0,0.0,0.0
30525531168587,-0.36370903,9.140582,3.8476589,0.0,0.0,0.0
30525533547494,-0.36370903,9.126225,3.842873,0.0,0.0,0.0
30525535926400,-0.3493521,9.111869,3.8476589,0.0,0.0,0.0
30525538305306,-0.3589234,9.111869,3.8524444,0.0,0.0,0.0
30525540684212,-0.36370903,9.092726,3.8572302,0.0,0.0,0.0
30525543063119,-0.3397808,9.102298,3.8572302,0.0,0.0,0.0
30525545442025,-0.32063824,9.102298,3.8524444,0.0,0.0,0.0
30525547820931,-0.29671,9.097511,3.8620157,0.0,0.0,0.0
30525550199837,-0.29671,9.078369,3.8668015,0.0,0.0,0.0
30525552578744,-0.29671,9.078369,3.8476589,0.0,0.0,0.0
30525554957702,-0.2727818,9.064013,3.8668015,0.0,0.0,0.0
30525557336608,-0.2440679,9.064013,3.8668015,0.0,0.0,0.0
30525559715514,-0.22971097,9.0544405,3.8811584,0.0,0.0,0.0
30525562094421,-0.23449662,9.059227,3.9098723,0.0,0.0,0.0
30525564473327,-0.2440679,9.064013,3.9194436,0.0,0.0,0.0
30525566852233,-0.23449662,9.049655,3.9146578,0.0,0.0,0.0
30525569231139,-0.2009971,9.064013,3.9098723,0.0,0.0,0.0
30525571610046,-0.19621146,9.044869,3.9290147,0.0,0.0,0.0
30525573988952,-0.2105684,9.059227,3.9433718,0.0,0.0,0.0
30525576367858,-0.2105684,9.064013,3.938586,0.0,0.0,0.0
30525578746816,-0.2009971,9.059227,3.938586,0.0,0.0,0.0
30525581125723,-0.17706887,9.064013,3.9338005,0.0,0.0,0.0
30525583504629,-0.17228323,9.083155,3.9290147,0.0,0.0,0.0
30525585883535,-0.13399807,9.068798,3.9290147,0.0,0.0,0.0
30525588262441,-0.15314065,9.064013,3.9242291,0.0,0.0,0.0
30525590641348,-0.16271193,9.068798,3.9146578,0.0,0.0,0.0
30525593020306,-0.148355,9.078369,3.9194436,0.0,0.0,0.0
30525595399212,-0.124426775,9.078369,3.9194436,0.0,0.0,0.0
30525597778119,-0.11485548,9.064013,3.9146578,0.0,0.0,0.0
30525600157025,-0.11964113,9.083155,3.8811584,0.0,0.0,0.0
30525602535931,-0.13399807,9.068798,3.8811584,0.0,0.0,0.0
30525604914837,-0.148355,9.064013,3.871587,0.0,0.0,0.0
30525607293744,-0.14356937,9.064013,3.8668015,0.0,0.0,0.0
30525609672650,-0.15792629,9.073584,3.8524444,0.0,0.0,0.0
30525612051556,-0.18185452,9.08794,3.8285162,0.0,0.0,0.0
30525614430462,-0.20578274,9.097511,3.8285162,0.0,0.0,0.0
30525616809369,-0.22492532,9.08794,3.8476589,0.0,0.0,0.0
30525619188275,-0.23449662,9.083155,3.8333018,0.0,0.0,0.0
30525621567233,-0.25842485,9.092726,3.8333018,0.0,0.0,0.0
30525623946139,-0.27756742,9.140582,3.8620157,0.0,0.0,0.0
30525626325046,-0.29192436,9.116654,3.8572302,0.0,0.0,0.0
30525628703952,-0.3062813,9.107083,3.8668015,0.0,0.0,0.0
30525631082858,-0.3062813,9.107083,3.8380876,0.0,0.0,0.0
30525633461764,-0.28713873,9.092726,3.8476589,0.0,0.0,0.0
30525635840671,-0.26799613,9.092726,3.8333018,0.0,0.0,0.0
30525638219629,-0.2632105,9.107083,3.842873,0.0,0.0,0.0
30525640598535,-0.23449662,9.083155,3.842873,0.0,0.0,0.0
30525642977441,-0.19142582,9.092726,3.8572302,0.0,0.0,0.0
30525645356348,-0.16749759,9.083155,3.842873,0.0,0.0,0.0
30525647735254,-0.14356937,9.073584,3.818945,0.0,0.0,0.0
30525650114160,-0.124426775,9.064013,3.8333018,0.0,0.0,0.0
30525652493066,-0.1052842,9.068798,3.8333018,0.0,0.0,0.0
30525654871973,-0.09571291,9.073584,3.842873,0.0,0.0,0.0
30525657250879,-0.09092726,9.064013,3.8380876,0.0,0.0,0.0
30525659629785,-0.076570325,9.064013,3.818945,0.0,0.0,0.0
30525662008744,-0.08135597,9.102298,3.804588,0.0,0.0,0.0
30525664387650,-0.11964113,9.097511,3.804588,0.0,0.0,0.0
30525666766556,-0.12921242,9.068798,3.804588,0.0,0.0,0.0
30525669145462,-0.13878371,9.068798,3.8093736,0.0,0.0,0.0
30525671524369,-0.16749759,9.092726,3.818945,0.0,0.0,0.0
30525673903275,-0.18664017,9.097511,3.8380876,0.0,0.0,0.0
30525676282181,-0.2536392,9.116654,3.8380876,0.0,0.0,0.0
30525678661087,-0.2727818,9.107083,3.8285162,0.0,0.0,0.0
30525681039994,-0.2727818,9.131011,3.8237305,0.0,0.0,0.0
30525683418952,-0.29192436,9.126225,3.842873,0.0,0.0,0.0
30525685797858,-0.30149564,9.126225,3.8380876,0.0,0.0,0.0
30525688176764,-0.29671,9.131011,3.8476589,0.0,0.0,0.0
30525690555671,-0.28235307,9.116654,3.885944,0.0,0.0,0.0
30525692934577,-0.23928227,9.107083,3.8668015,0.0,0.0,0.0
30525695313483,-0.22492532,9.111869,3.842873,0.0,0.0,0.0
30525697692389,-0.19142582,9.097511,3.8333018,0.0,0.0,0.0
30525700071296,-0.14356937,9.12144,3.818945,0.0,0.0,0.0
30525702450254,-0.11485548,9.111869,3.8380876,0.0,0.0,0.0
30525704829160,-0.09092726,9.12144,3.8668015,0.0,0.0,0.0
30525707208066,-0.06699903,9.092726,3.871587,0.0,0.0,0.0
30525709586973,-0.076570325,9.107083,3.885944,0.0,0.0,0.0
30525711965879,-0.086141616,9.08794,3.8572302,0.0,0.0,0.0
30525714344785,-0.09571291,9.068798,3.8333018,0.0,0.0,0.0
30525716723691,-0.10049855,9.059227,3.8333018,0.0,0.0,0.0
30525719102598,-0.1052842,9.0544405,3.8620157,0.0,0.0,0.0
30525721481504,-0.11964113,9.064013,3.871587,0.0,0.0,0.0
30525723860462,-0.16749759,9.0544405,3.871587,0.0,0.0,0.0
30525726239369,-0.16749759,9.068798,3.885944,0.0,0.0,0.0
30525728618275,-0.20578274,9.073584,3.8668015,0.0,0.0,0.0
30525730997181,-0.22013968,9.078369,3.8380876,0.0,0.0,0.0
30525733376087,-0.22971097,9.092726,3.8380876,0.0,0.0,0.0
30525735754994,-0.23928227,9.073584,3.8572302,0.0,0.0,0.0
30525738133900,-0.2632105,9.068798,3.885944,0.0,0.0,0.0
30525740512754,-0.2536392,9.0544405,3.8524444,0.0,0.0,0.0
30525742891712,-0.2536392,9.078369,3.8811584,0.0,0.0,0.0
30525745270619,-0.25842485,9.073584,3.8668015,0.0,0.0,0.0
30525747649577,-0.22971097,9.078369,3.8572302,0.0,0.0,0.0
30525750028483,-0.2105684,9.083155,3.8620157,0.0,0.0,0.0
30525752407389,-0.19621146,9.078369,3.8907297,0.0,0.0,0.0
30525754786296,-0.19142582,9.064013,3.8907297,0.0,0.0,0.0
30525757165202,-0.15314065,9.078369,3.8907297,0.0,0.0,0.0
30525759544108,-0.124426775,9.092726,3.8955152,0.0,0.0,0.0
30525761923014,-0.076570325,9.092726,3.8907297,0.0,0.0,0.0
30525764301921,-0.07178468,9.078369,3.8524444,0.0,0.0,0.0
30525766680827,-0.047856454,9.073584,3.8476589,0.0,0.0,0.0
30525769059785,-0.043070808,9.078369,3.8572302,0.0,0.0,0.0
30525771438691,-0.038285162,9.08794,3.871587,0.0,0.0,0.0
30525773817598,-0.038285162,9.092726,3.8811584,0.0,0.0,0.0
30525776196504,-0.047856454,9.092726,3.8763726,0.0,0.0,0.0
30525778575410,-0.07178468,9.102298,3.8572302,0.0,0.0,0.0
30525780954316,-0.08135597,9.083155,3.8285162,0.0,0.0,0.0
30525783333223,-0.09571291,9.078369,3.8285162,0.0,0.0,0.0
30525785712129,-0.11485548,9.059227,3.8476589,0.0,0.0,0.0
30525788091035,-0.14356937,9.078369,3.8572302,0.0,0.0,0.0
30525790469941,-0.17706887,9.092726,3.8811584,0.0,0.0,0.0
30525792848900,-0.19142582,9.097511,3.8668015,0.0,0.0,0.0
30525795227806,-0.19142582,9.083155,3.8620157,0.0,0.0,0.0
30525797606660,-0.17228323,9.083155,3.871587,0.0,0.0,0.0
30525799985619,-0.17706887,9.08794,3.8524444,0.0,0.0,0.0
30525802364525,-0.18185452,9.078369,3.8620157,0.0,0.0,0.0
30525804743431,-0.16749759,9.078369,3.8763726,0.0,0.0,0.0
30525807122337,-0.16271193,9.078369,3.8620157,0.0,0.0,0.0
30525809501244,-0.15314065,9.102298,3.8620157,0.0,0.0,0.0
30525811880202,-0.13399807,9.116654,3.8476589,0.0,0.0,0.0
30525814259108,-0.12921242,9.097511,3.8333018,0.0,0.0,0.0
30525816638014,-0.11485548,9.102298,3.8237305,0.0,0.0,0.0
30525819016921,-0.11485548,9.107083,3.8285162,0.0,0.0,0.0
30525821395827,-0.086141616,9.092726,3.842873,0.0,0.0,0.0
30525823774733,-0.11006984,9.092726,3.8476589,0.0,0.0,0.0
30525826153639,-0.11964113,9.078369,3.8668015,0.0,0.0,0.0
30525828532546,-0.124426775,9.064013,3.8476589,0.0,0.0,0.0
30525830911452,-0.13878371,9.078369,3.8380876,0.0,0.0,0.0
30525833290410,-0.17706887,9.08794,3.8476589,0.0,0.0,0.0
30525835669316,-0.17228323,9.08794,3.8476589,0.0,0.0,0.0
30525838048223,-0.19142582,9.073584,3.8476589,0.0,0.0,0.0
30525840427129,-0.22971097,9.083155,3.842873,0.0,0.0,0.0
30525842806035,-0.2536392,9.097511,3.8763726,0.0,0.0,0.0
30525845184941,-0.25842485,9.064013,3.871587,0.0,0.0,0.0
30525847563848,-0.26799613,9.083155,3.8572302,0.0,0.0,0.0
30525849942754,-0.28235307,9.08794,3.8476589,0.0,0.0,0.0
30525852321660,-0.25842485,9.107083,3.8476589,0.0,0.0,0.0
30525854700566,-0.22492532,9.083155,3.8476589,0.0,0.0,0.0
30525857079525,-0.21535404,9.073584,3.8668015,0.0,0.0,0.0
30525859458431,-0.15792629,9.0544405,3.8811584,0.0,0.0,0.0
30525861837337,-0.11964113,9.064013,3.885944,0.0,0.0,0.0
30525864216244,-0.086141616,9.073584,3.8763726,0.0,0.0,0.0
30525866595150,-0.047856454,9.083155,3.8285162,0.0,0.0,0.0
30525868974056,-0.023928227,9.092726,3.8237305,0.0,0.0,0.0
30525871352962,0.0,9.08794,3.8476589,0.0,0.0,0.0
30525873731816,0.0047856453,9.059227,3.8572302,0.0,0.0,0.0
30525876110775,0.038285162,9.064013,3.8811584,0.0,0.0,0.0
30525878489733,0.023928227,9.083155,3.8811584,0.0,0.0,0.0
30525880868639,-0.019142581,9.083155,3.8476589,0.0,0.0,0.0
30525883247546,-0.02871387,9.083155,3.8285162,0.0,0.0,0.0
30525885626452,-0.07178468,9.111869,3.804588,0.0,0.0,0.0
30525888005358,-0.11485548,9.092726,3.8141594,0.0,0.0,0.0
30525890384264,-0.18185452,9.111869,3.8572302,0.0,0.0,0.0
30525892763171,-0.21535404,9.08794,3.8524444,0.0,0.0,0.0
30525895142077,-0.25842485,9.102298,3.8620157,0.0,0.0,0.0
30525897520983,-0.27756742,9.111869,3.842873,0.0,0.0,0.0
30525899899941,-0.31106696,9.102298,3.8141594,0.0,0.0,0.0
30525902278848,-0.33020952,9.083155,3.8141594,0.0,0.0,0.0
30525904657754,-0.34456646,9.068798,3.818945,0.0,0.0,0.0
30525907036660,-0.3589234,9.102298,3.8333018,0.0,0.0,0.0
30525909415566,-0.32063824,9.102298,3.8476589,0.0,0.0,0.0
30525911794473,-0.29192436,9.08794,3.8524444,0.0,0.0,0.0
30525914173379,-0.24885355,9.073584,3.8380876,0.0,0.0,0.0
30525916552285,-0.20578274,9.068798,3.818945,0.0,0.0,0.0
30525918931191,-0.16271193,9.083155,3.8093736,0.0,0.0,0.0
30525921310098,-0.11006984,9.064013,3.8237305,0.0,0.0,0.0
30525923689056,-0.07178468,9.068798,3.8476589,0.0,0.0,0.0
30525926067962,-0.05742774,9.044869,3.8476589,0.0,0.0,0.0
30525928446869,-0.038285162,9.049655,3.8668015,0.0,0.0,0.0
30525930825775,-0.02871387,9.049655,3.8572302,0.0,0.0,0.0
30525933204681,0.0,9.059227,3.8524444,0.0,0.0,0.0
30525935583587,-0.033499517,9.078369,3.8572302,0.0,0.0,0.0
30525937962494,-0.07178468,9.059227,3.8572302,0.0,0.0,0.0
30525940341400,-0.08135597,9.068798,3.8476589,0.0,0.0,0.0
30525942720254,-0.11006984,9.040084,3.871587,0.0,0.0,0.0
30525945099264,-0.16749759,9.068798,3.8811584,0.0,0.0,0.0
30525947478171,-0.2009971,9.073584,3.8524444,0.0,0.0,0.0
30525949857077,-0.23449662,9.08794,3.8285162,0.0,0.0,0.0
30525952235983,-0.24885355,9.102298,3.8237305,0.0,0.0,0.0
30525954614889,-0.2632105,9.131011,3.8285162,0.0,0.0,0.0
30525956993796,-0.28235307,9.111869,3.8237305,0.0,0.0,0.0
30525959372702,-0.30149564,9.131011,3.8237305,0.0,0.0,0.0
30525961751608,-0.29192436,9.102298,3.8572302,0.0,0.0,0.0
30525964130514,-0.28235307,9.107083,3.8524444,0.0,0.0,0.0
30525966509421,-0.25842485,9.111869,3.8093736,0.0,0.0,0.0
30525968888379,-0.22971097,9.097511,3.8141594,0.0,0.0,0.0
30525971267285,-0.18185452,9.083155,3.7998023,0.0,0.0,0.0
30525973646191,-0.15792629,9.12144,3.7998023,0.0,0.0,0.0
30525976025098,-0.12921242,9.12144,3.8141594,0.0,0.0,0.0
30525978404004,-0.086141616,9.092726,3.8237305,0.0,0.0,0.0
30525980782910,-0.062213387,9.092726,3.8333018,0.0,0.0,0.0
30525983161816,-0.07178468,9.068798,3.8524444,0.0,0.0,0.0
30525985540723,-0.06699903,9.073584,3.8572302,0.0,0.0,0.0
30525987919629,-0.076570325,9.064013,3.8524444,0.0,0.0,0.0
30525990298535,-0.076570325,9.0544405,3.8333018,0.0,0.0,0.0
30525992677494,-0.08135597,9.0544405,3.8524444,0.0,0.0,0.0
30525995056400,-0.124426775,9.059227,3.8668015,0.0,0.0,0.0
30525997435306,-0.148355,9.0544405,3.8763726,0.0,0.0,0.0
30525999814212,-0.17706887,9.059227,3.8811584,0.0,0.0,0.0
30526002193119,-0.22013968,9.0544405,3.8572302,0.0,0.0,0.0
30526004572025,-0.25842485,9.0544405,3.8524444,0.0,0.0,0.0
30526006950931,-0.28713873,9.044869,3.8524444,0.0,0.0,0.0
30526009329889,-0.29671,9.0544405,3.8524444,0.0,0.0,0.0
30526011708796,-0.29671,9.073584,3.8524444,0.0,0.0,0.0
30526014087702,-0.3397808,9.078369,3.8572302,0.0,0.0,0.0
30526016466608,-0.32063824,9.078369,3.8524444,0.0,0.0,0.0
30526018845514,-0.32542387,9.078369,3.8285162,0.0,0.0,0.0
30526021224421,-0.32063824,9.107083,3.8333018,0.0,0.0,0.0
30526023603327,-0.29192436,9.107083,3.842873,0.0,0.0,0.0
30526025982233,-0.2727818,9.116654,3.842873,0.0,0.0,0.0
30526028361139,-0.23928227,9.102298,3.842873,0.0,0.0,0.0
30526030740046,-0.19621146,9.097511,3.8572302,0.0,0.0,0.0
30526033118952,-0.16749759,9.097511,3.8524444,0.0,0.0,0.0
30526035497910,-0.13399807,9.12144,3.8476589,0.0,0.0,0.0
30526037876816,-0.1052842,9.111869,3.8237305,0.0,0.0,0.0
30526040255723,-0.09092726,9.135797,3.8285162,0.0,0.0,0.0
30526042634629,-0.062213387,9.135797,3.8476589,0.0,0.0,0.0
30526045013535,-0.062213387,9.111869,3.8620157,0.0,0.0,0.0
30526047392441,-0.06699903,9.111869,3.8476589,0.0,0.0,0.0
30526049771348,-0.062213387,9.107083,3.8333018,0.0,0.0,0.0
30526052150254,-0.09092726,9.12144,3.804588,0.0,0.0,0.0
30526054529160,-0.10049855,9.126225,3.790231,0.0,0.0,0.0
30526056908066,-0.13878371,9.12144,3.842873,0.0,0.0,0.0
30526059287025,-0.15792629,9.092726,3.871587,0.0,0.0,0.0
30526061665931,-0.17228323,9.059227,3.8907297,0.0,0.0,0.0
30526064044837,-0.17228323,9.0544405,3.8955152,0.0,0.0,0.0
30526066423744,-0.2009971,9.059227,3.885944,0.0,0.0,0.0
30526068802650,-0.22492532,9.064013,3.8668015,0.0,0.0,0.0
30526071181556,-0.24885355,9.078369,3.8380876,0.0,0.0,0.0
30526073560462,-0.23928227,9.059227,3.8620157,0.0,0.0,0.0
30526075939369,-0.2009971,9.078369,3.8907297,0.0,0.0,0.0
30526078318275,-0.2105684,9.059227,3.9146578,0.0,0.0,0.0
30526080697233,-0.18664017,9.059227,3.9290147,0.0,0.0,0.0
30526083076139,-0.16271193,9.044869,3.9050865,0.0,0.0,0.0
30526085455046,-0.12921242,9.044869,3.871587,0.0,0.0,0.0
30526087833952,-0.11006984,9.0544405,3.8668015,0.0,0.0,0.0
30526090212858,-0.09571291,9.049655,3.8620157,0.0,0.0,0.0
30526092591764,-0.062213387,9.035298,3.8763726,0.0,0.0,0.0
30526094970671,-0.043070808,9.040084,3.8907297,0.0,0.0,0.0
30526097349577,-0.038285162,9.0544405,3.8907297,0.0,0.0,0.0
30526099728483,-0.038285162,9.083155,3.871587,0.0,0.0,0.0
30526102107441,-0.02871387,9.078369,3.8524444,0.0,0.0,0.0
30526104486296,-0.047856454,9.073584,3.842873,0.0,0.0,0.0
30526106865254,-0.06699903,9.073584,3.842873,0.0,0.0,0.0
30526109244160,-0.086141616,9.092726,3.8668015,0.0,0.0,0.0
30526111623066,-0.1052842,9.107083,3.8811584,0.0,0.0,0.0
30526114001973,-0.1052842,9.111869,3.871587,0.0,0.0,0.0
30526116380879,-0.12921242,9.107083,3.8572302,0.0,0.0,0.0
30526118759785,-0.148355,9.131011,3.8380876,0.0,0.0,0.0
30526121138691,-0.16749759,9.135797,3.8237305,0.0,0.0,0.0
30526123517598,-0.18664017,9.135797,3.8237305,0.0,0.0,0.0
30526125896556,-0.17706887,9.126225,3.8380876,0.0,0.0,0.0
30526128275462,-0.19142582,9.126225,3.8524444,0.0,0.0,0.0
30526130654369,-0.19621146,9.111869,3.8285162,0.0,0.0,0.0
30526133033275,-0.19621146,9.092726,3.8237305,0.0,0.0,0.0
30526135412181,-0.19142582,9.102298,3.818945,0.0,0.0,0.0
30526137791087,-0.15792629,9.083155,3.804588,0.0,0.0,0.0
30526140169994,-0.15792629,9.092726,3.804588,0.0,0.0,0.0
30526142548900,-0.16271193,9.08794,3.8380876,0.0,0.0,0.0
30526144927806,-0.15792629,9.083155,3.8333018,0.0,0.0,0.0
30526147306712,-0.14356937,9.078369,3.842873,0.0,0.0,0.0
30526149685671,-0.13878371,9.078369,3.8380876,0.0,0.0,0.0
30526152064577,-0.13399807,9.083155,3.804588,0.0,0.0,0.0
30526154443483,-0.12921242,9.059227,3.818945,0.0,0.0,0.0
30526156822389,-0.124426775,9.044869,3.8093736,0.0,0.0,0.0
30526159201296,-0.12921242,9.078369,3.8141594,0.0,0.0,0.0
30526161580202,-0.124426775,9.102298,3.8237305,0.0,0.0,0.0
30526163959108,-0.14356937,9.08794,3.8237305,0.0,0.0,0.0
30526166338014,-0.148355,9.08794,3.8333018,0.0,0.0,0.0
30526168716921,-0.16271193,9.078369,3.8285162,0.0,0.0,0.0
30526171095879,-0.17228323,9.083155,3.818945,0.0,0.0,0.0
30526173474785,-0.16271193,9.08794,3.8333018,0.0,0.0,0.0
30526175853691,-0.19142582,9.111869,3.8668015,0.0,0.0,0.0
30526178232598,-0.19142582,9.116654,3.871587,0.0,0.0,0.0
30526180611504,-0.18185452,9.111869,3.8572302,0.0,0.0,0.0
30526182990410,-0.17706887,9.08794,3.8620157,0.0,0.0,0.0
30526185369316,-0.17706887,9.111869,3.8620157,0.0,0.0,0.0
30526187748223,-0.16271193,9.097511,3.8524444,0.0,0.0,0.0
30526190127129,-0.124426775,9.102298,3.8524444,0.0,0.0,0.0
30526192506035,-0.10049855,9.107083,3.8572302,0.0,0.0,0.0
30526194884994,-0.10049855,9.12144,3.8572302,0.0,0.0,0.0
30526197263900,-0.11964113,9.111869,3.8668015,0.0,0.0,0.0
30526199642806,-0.124426775,9.135797,3.8620157,0.0,0.0,0.0
30526202021712,-0.09092726,9.111869,3.8476589,0.0,0.0,0.0
30526204400619,-0.08135597,9.102298,3.8572302,0.0,0.0,0.0
30526206779473,-0.09092726,9.092726,3.8572302,0.0,0.0,0.0
30526209158431,-0.11485548,9.102298,3.8620157,0.0,0.0,0.0
30526211537337,-0.12921242,9.107083,3.885944,0.0,0.0,0.0
30526213916191,-0.16271193,9.078369,3.8955152,0.0,0.0,0.0
30526216295150,-0.20578274,9.078369,3.8811584,0.0,0.0,0.0
30526218674108,-0.20578274,9.064013,3.885944,0.0,0.0,0.0
30526221053014,-0.22971097,9.049655,3.8763726,0.0,0.0,0.0
30526223431921,-0.26799613,9.0544405,3.8668015,0.0,0.0,0.0
30526225810827,-0.29671,9.073584,3.871587,0.0,0.0,0.0
30526228189733,-0.32063824,9.064013,3.8811584,0.0,0.0,0.0
30526230568639,-0.33020952,9.059227,3.8811584,0.0,0.0,0.0
30526232947546,-0.34456646,9.064013,3.9050865,0.0,0.0,0.0
30526235326452,-0.35413775,9.078369,3.8907297,0.0,0.0,0.0
30526237705358,-0.33020952,9.083155,3.871587,0.0,0.0,0.0
30526240084316,-0.32063824,9.068798,3.8763726,0.0,0.0,0.0
30526242463223,-0.29192436,9.068798,3.8524444,0.0,0.0,0.0
30526244842129,-0.2727818,9.073584,3.871587,0.0,0.0,0.0
30526247221035,-0.2440679,9.068798,3.885944,0.0,0.0,0.0
30526249599941,-0.21535404,9.064013,3.8763726,0.0,0.0,0.0
30526251978848,-0.17228323,9.0544405,3.8620157,0.0,0.0,0.0
30526254357754,-0.16749759,9.078369,3.8620157,0.0,0.0,0.0
30526256736660,-0.13878371,9.073584,3.842873,0.0,0.0,0.0
30526259115566,-0.13399807,9.064013,3.8476589,0.0,0.0,0.0
30526261494473,-0.11485548,9.064013,3.8476589,0.0,0.0,0.0
30526263873431,-0.11485548,9.092726,3.842873,0.0,0.0,0.0
30526266252337,-0.10049855,9.12144,3.842873,0.0,0.0,0.0
30526268631244,-0.11006984,9.111869,3.818945,0.0,0.0,0.0
30526271010150,-0.11964113,9.111869,3.7998023,0.0,0.0,0.0
30526273389056,-0.13878371,9.083155,3.804588,0.0,0.0,0.0
