t_ns,ax,ay,az,bx,by,bz
21610321727990,-0.59342,8.863015,4.3836513,0.0,0.0,0.0
21610324107000,-0.5407779,8.85823,4.402794,0.0,0.0,0.0
21610326486011,-0.53599226,8.9013,4.331009,0.0,0.0,0.0
21610328865021,-0.5072784,8.896515,4.2352962,0.0,0.0,0.0
21610331243979,-0.5072784,8.853444,4.173083,0.0,0.0,0.0
21610333622990,-0.5838487,8.843872,4.1922255,0.0,0.0,0.0
21610336002000,-0.70348984,8.805588,4.2975097,0.0,0.0,0.0
21610338381011,-0.80877405,8.796016,4.3932223,0.0,0.0,0.0
21610340759969,-0.9092726,8.772088,4.4602213,0.0,0.0,0.0
21610343138979,-1.0049855,8.772088,4.4315076,0.0,0.0,0.0
21610345517990,-1.0767702,8.810373,4.345366,0.0,0.0,0.0
21610347897000,-1.1772687,8.82473,4.2687955,0.0,0.0,0.0
21610350276011,-1.253839,8.839087,4.2448673,0.0,0.0,0.0
21610352655021,-1.3064811,8.843872,4.287938,0.0,0.0,0.0
21610355034031,-1.3064811,8.829515,4.3501515,0.0,0.0,0.0
21610357412990,-1.3160524,8.848659,4.369294,0.0,0.0,0.0
21610359792000,-1.253839,8.82473,4.3501515,0.0,0.0,0.0
21610362171011,-1.2059826,8.834301,4.273581,0.0,0.0,0.0
21610364550021,-1.1294123,8.853444,4.1874394,0.0,0.0,0.0
21610366929031,-1.0671989,8.863015,4.168297,0.0,0.0,0.0
21610369308042,-1.0001999,8.848659,4.173083,0.0,0.0,0.0
21610371687000,-0.9284152,8.839087,4.2017965,0.0,0.0,0.0
21610374066011,-0.8470592,8.805588,4.240082,0.0,0.0,0.0
21610376445021,-0.7752745,8.82473,4.23051,0.0,0.0,0.0
21610378824031,-0.7322037,8.796016,4.1778684,0.0,0.0,0.0
21610381203042,-0.71306115,8.805588,4.1635113,0.0,0.0,0.0
21610383582000,-0.6843473,8.815159,4.15394,0.0,0.0,0.0
21610385961011,-0.6652047,8.82473,4.1874394,0.0,0.0,0.0
21610388340021,-0.6795616,8.819944,4.2257247,0.0,0.0,0.0
21610390719031,-0.7322037,8.800801,4.2687955,0.0,0.0,0.0
21610393098042,-0.7609176,8.810373,4.278367,0.0,0.0,0.0
21610395477000,-0.7896315,8.786445,4.278367,0.0,0.0,0.0
21610397856011,-0.8422736,8.810373,4.287938,0.0,0.0,0.0
21610400235021,-0.89013004,8.810373,4.249653,0.0,0.0,0.0
21610402614031,-0.95712906,8.834301,4.23051,0.0,0.0,0.0
21610404993042,-1.0241281,8.839087,4.240082,0.0,0.0,0.0
21610407372000,-1.0432707,8.829515,4.26401,0.0,0.0,0.0
21610409751011,-1.0432707,8.839087,4.287938,0.0,0.0,0.0
21610412130021,-1.0624132,8.843872,4.316652,0.0,0.0,0.0
21610414509031,-1.0959128,8.834301,4.287938,0.0,0.0,0.0
21610416888042,-1.0911272,8.800801,4.278367,0.0,0.0,0.0
21610419267052,-1.0719845,8.786445,4.26401,0.0,0.0,0.0
21610421646011,-1.0671989,8.786445,4.2687955,0.0,0.0,0.0
21610424025021,-1.0193424,8.781659,4.287938,0.0,0.0,0.0
21610426404031,-1.0097711,8.781659,4.3405805,0.0,0.0,0.0
21610428783042,-0.9810573,8.796016,4.359723,0.0,0.0,0.0
21610431162000,-0.94277215,8.786445,4.345366,0.0,0.0,0.0
21610433541011,-0.89491564,8.781659,4.345366,0.0,0.0,0.0
21610435920125,-0.8566305,8.776874,4.3262234,0.0,0.0,0.0
21610438299031,-0.8327023,8.776874,4.3118663,0.0,0.0,0.0
21610440678042,-0.8135597,8.805588,4.3070807,0.0,0.0,0.0
21610443057052,-0.82313097,8.834301,4.316652,0.0,0.0,0.0
21610445436011,-0.80877405,8.834301,4.3118663,0.0,0.0,0.0
21610447815021,-0.82313097,8.867801,4.331009,0.0,0.0,0.0
21610450194031,-0.8470592,8.867801,4.321438,0.0,0.0,0.0
21610452573042,-0.8709874,8.863015,4.3118663,0.0,0.0,0.0
21610454952052,-0.9379865,8.85823,4.3262234,0.0,0.0,0.0
21610457331063,-0.9906286,8.867801,4.3262234,0.0,0.0,0.0
21610459710021,-1.0719845,8.882157,4.316652,0.0,0.0,0.0
21610462089031,-1.1246266,8.877372,4.3262234,0.0,0.0,0.0
21610464468042,-1.1629118,8.896515,4.3405805,0.0,0.0,0.0
21610466847052,-1.2059826,8.867801,4.3262234,0.0,0.0,0.0
21610469226063,-1.2394822,8.882157,4.3262234,0.0,0.0,0.0
21610471605021,-1.2442678,8.886943,4.331009,0.0,0.0,0.0
21610473984031,-1.253839,8.877372,4.3357944,0.0,0.0,0.0
21610476363042,-1.2299109,8.877372,4.345366,0.0,0.0,0.0
21610478742052,-1.18684,8.867801,4.3501515,0.0,0.0,0.0
21610481121063,-1.1485549,8.877372,4.3501515,0.0,0.0,0.0
21610483500021,-1.0671989,8.877372,4.331009,0.0,0.0,0.0
21610485879031,-0.98584294,8.882157,4.302295,0.0,0.0,0.0
21610488258042,-0.9236295,8.886943,4.2592244,0.0,0.0,0.0
21610490637052,-0.85184485,8.882157,4.23051,0.0,0.0,0.0
21610493016063,-0.79441714,8.882157,4.2352962,0.0,0.0,0.0
21610495395021,-0.7513463,8.891729,4.240082,0.0,0.0,0.0
21610497774031,-0.72263247,8.867801,4.23051,0.0,0.0,0.0
21610500153042,-0.6987042,8.863015,4.2352962,0.0,0.0,0.0
21610502532052,-0.6939186,8.863015,4.240082,0.0,0.0,0.0
21610504911063,-0.6939186,8.853444,4.2352962,0.0,0.0,0.0
21610507290073,-0.72741807,8.834301,4.240082,0.0,0.0,0.0
21610509669031,-0.7609176,8.810373,4.240082,0.0,0.0,0.0
21610512048042,-0.81834537,8.829515,4.240082,0.0,0.0,0.0
21610514427052,-0.85184485,8.829515,4.254439,0.0,0.0,0.0
21610516806063,-0.89491564,8.853444,4.2687955,0.0,0.0,0.0
21610519185021,-0.9523434,8.863015,4.2927237,0.0,0.0,0.0
21610521564031,-0.971486,8.85823,4.3118663,0.0,0.0,0.0
21610523943042,-1.0049855,8.848659,4.321438,0.0,0.0,0.0
21610526322052,-1.0097711,8.867801,4.316652,0.0,0.0,0.0
21610528701063,-0.9906286,8.872586,4.3262234,0.0,0.0,0.0
21610531080073,-0.971486,8.872586,4.345366,0.0,0.0,0.0
21610533459084,-0.93320084,8.877372,4.345366,0.0,0.0,0.0
21610535838042,-0.89013004,8.853444,4.345366,0.0,0.0,0.0
21610538217052,-0.8279166,8.85823,4.331009,0.0,0.0,0.0
21610540596063,-0.7800602,8.834301,4.316652,0.0,0.0,0.0
21610542975073,-0.72741807,8.800801,4.3118663,0.0,0.0,0.0
21610545354031,-0.6891329,8.786445,4.287938,0.0,0.0,0.0
21610547733042,-0.66041905,8.7673025,4.278367,0.0,0.0,0.0
21610550112052,-0.6412765,8.7673025,4.2687955,0.0,0.0,0.0
21610552491063,-0.66041905,8.762517,4.26401,0.0,0.0,0.0
21610554870073,-0.66999036,8.7673025,4.23051,0.0,0.0,0.0
21610557249031,-0.71306115,8.7673025,4.211368,0.0,0.0,0.0
21610559628042,-0.74177504,8.7673025,4.211368,0.0,0.0,0.0
21610562007052,-0.7896315,8.786445,4.2352962,0.0,0.0,0.0
21610564386063,-0.8422736,8.829515,4.2352962,0.0,0.0,0.0
21610566765073,-0.90448695,8.853444,4.2352962,0.0,0.0,0.0
21610569144084,-0.971486,8.867801,4.220939,0.0,0.0,0.0
21610571523042,-1.0671989,8.877372,4.2257247,0.0,0.0,0.0
21610573902052,-1.1533405,8.872586,4.23051,0.0,0.0,0.0
21610576281063,-1.2011969,8.882157,4.254439,0.0,0.0,0.0
21610578660073,-1.2394822,8.863015,4.240082,0.0,0.0,0.0
21610581039084,-1.2490535,8.843872,4.254439,0.0,0.0,0.0
21610583418042,-1.253839,8.82473,4.278367,0.0,0.0,0.0
21610585797052,-1.2634103,8.839087,4.2592244,0.0,0.0,0.0
21610588176063,-1.2442678,8.834301,4.26401,0.0,0.0,0.0
21610590555073,-1.1820544,8.834301,4.2687955,0.0,0.0,0.0
21610592934084,-1.134198,8.848659,4.278367,0.0,0.0,0.0
21610595313094,-1.0815558,8.839087,4.2687955,0.0,0.0,0.0
21610597692052,-1.0193424,8.863015,4.273581,0.0,0.0,0.0
21610600071063,-0.9523434,8.867801,4.273581,0.0,0.0,0.0
21610602450073,-0.89491564,8.863015,4.278367,0.0,0.0,0.0
21610604829084,-0.83748794,8.872586,4.273581,0.0,0.0,0.0
21610607208094,-0.8135597,8.877372,4.278367,0.0,0.0,0.0
21610609587052,-0.79920274,8.891729,4.2927237,0.0,0.0,0.0
21610611966063,-0.7800602,8.891729,4.2687955,0.0,0.0,0.0
21610614345073,-0.7896315,8.886943,4.26401,0.0,0.0,0.0
21610616724084,-0.8135597,8.839087,4.26401,0.0,0.0,0.0
21610619103094,-0.8566305,8.843872,4.2448673,0.0,0.0,0.0
21610621482052,-0.91884387,8.843872,4.2448673,0.0,0.0,0.0
21610623861063,-0.9810573,8.843872,4.26401,0.0,0.0,0.0
21610626240073,-1.0576276,8.800801,4.26401,0.0,0.0,0.0
21610628619084,-1.1006985,8.805588,4.273581,0.0,0.0,0.0
21610630998094,-1.1533405,8.805588,4.254439,0.0,0.0,0.0
21610633377104,-1.2155539,8.815159,4.26401,0.0,0.0,0.0
21610635756063,-1.2634103,8.834301,4.287938,0.0,0.0,0.0
21610638135073,-1.2729816,8.834301,4.2831526,0.0,0.0,0.0
21610640514084,-1.2634103,8.863015,4.273581,0.0,0.0,0.0
21610642893094,-1.2442678,8.863015,4.2687955,0.0,0.0,0.0
21610645272104,-1.2107682,8.843872,4.278367,0.0,0.0,0.0
21610647651063,-1.1629118,8.834301,4.278367,0.0,0.0,0.0
21610650030073,-1.1246266,8.843872,4.2831526,0.0,0.0,0.0
21610652409084,-1.0624132,8.839087,4.3070807,0.0,0.0,0.0
21610654788094,-1.0049855,8.848659,4.3118663,0.0,0.0,0.0
21610657167104,-0.94755775,8.867801,4.2975097,0.0,0.0,0.0
21610659546063,-0.8805587,8.85823,4.278367,0.0,0.0,0.0
21610661925073,-0.8279166,8.839087,4.278367,0.0,0.0,0.0
21610664304084,-0.79920274,8.853444,4.2592244,0.0,0.0,0.0
21610666683094,-0.7752745,8.848659,4.254439,0.0,0.0,0.0
21610669062104,-0.7609176,8.863015,4.240082,0.0,0.0,0.0
21610671441063,-0.7322037,8.863015,4.23051,0.0,0.0,0.0
21610673820073,-0.7322037,8.863015,4.1922255,0.0,0.0,0.0
21610676199084,-0.7752745,8.863015,4.211368,0.0,0.0,0.0
21610678578094,-0.8327023,8.872586,4.2017965,0.0,0.0,0.0
21610680957104,-0.8805587,8.886943,4.1874394,0.0,0.0,0.0
21610683336115,-0.9236295,8.877372,4.1778684,0.0,0.0,0.0
21610685715073,-0.9906286,8.886943,4.1874394,0.0,0.0,0.0
21610688094084,-1.0480564,8.9108715,4.2161536,0.0,0.0,0.0
21610690473094,-1.1246266,8.920443,4.206582,0.0,0.0,0.0
21610692852104,-1.2011969,8.9108715,4.2257247,0.0,0.0,0.0
21610695231115,-1.2299109,8.896515,4.2448673,0.0,0.0,0.0
21610697610073,-1.2442678,8.906086,4.254439,0.0,0.0,0.0
21610699989084,-1.268196,8.9108715,4.278367,0.0,0.0,0.0
21610702368094,-1.2921243,8.9108715,4.273581,0.0,0.0,0.0
21610704747104,-1.2729816,8.896515,4.287938,0.0,0.0,0.0
21610707126115,-1.2251252,8.872586,4.2927237,0.0,0.0,0.0
21610709505073,-1.1533405,8.863015,4.3070807,0.0,0.0,0.0
21610711884084,-1.0815558,8.872586,4.321438,0.0,0.0,0.0
21610714263094,-1.0336994,8.882157,4.3118663,0.0,0.0,0.0
21610716642104,-0.9667004,8.863015,4.3070807,0.0,0.0,0.0
21610719021115,-0.8805587,8.872586,4.302295,0.0,0.0,0.0
21610721400073,-0.81834537,8.863015,4.3070807,0.0,0.0,0.0
21610723779031,-0.7848458,8.843872,4.2975097,0.0,0.0,0.0
21610726158094,-0.7465607,8.834301,4.2975097,0.0,0.0,0.0
21610728537104,-0.7322037,8.82473,4.2927237,0.0,0.0,0.0
21610730916115,-0.7369894,8.839087,4.302295,0.0,0.0,0.0
21610733295125,-0.75613195,8.843872,4.2927237,0.0,0.0,0.0
21610735674084,-0.79441714,8.839087,4.287938,0.0,0.0,0.0
21610738053094,-0.8327023,8.79123,4.273581,0.0,0.0,0.0
21610740432104,-0.90448695,8.796016,4.254439,0.0,0.0,0.0
21610742811115,-0.95712906,8.772088,4.254439,0.0,0.0,0.0
21610745190125,-1.0432707,8.781659,4.249653,0.0,0.0,0.0
21610747569084,-1.0911272,8.786445,4.2592244,0.0,0.0,0.0
21610749948094,-1.1437693,8.781659,4.23051,0.0,0.0,0.0
21610752327104,-1.1629118,8.796016,4.2257247,0.0,0.0,0.0
21610754706115,-1.1916257,8.810373,4.23051,0.0,0.0,0.0
21610757085073,-1.1820544,8.805588,4.23051,0.0,0.0,0.0
21610759464136,-1.2107682,8.82473,4.240082,0.0,0.0,0.0
21610761843094,-1.2059826,8.82473,4.2257247,0.0,0.0,0.0
21610764222104,-1.1485549,8.815159,4.2161536,0.0,0.0,0.0
21610766601115,-1.0959128,8.82473,4.197011,0.0,0.0,0.0
21610768980125,-1.0336994,8.82473,4.211368,0.0,0.0,0.0
21610771359136,-1.0049855,8.819944,4.211368,0.0,0.0,0.0
21610773738094,-0.9667004,8.819944,4.2257247,0.0,0.0,0.0
21610776117104,-0.9236295,8.819944,4.2352962,0.0,0.0,0.0
21610778496115,-0.8805587,8.800801,4.249653,0.0,0.0,0.0
21610780875125,-0.8709874,8.800801,4.26401,0.0,0.0,0.0
21610783254136,-0.8422736,8.776874,4.26401,0.0,0.0,0.0
21610785633146,-0.8470592,8.7673025,4.26401,0.0,0.0,0.0
21610788012104,-0.8709874,8.7673025,4.278367,0.0,0.0,0.0
21610790391115,-0.90448695,8.776874,4.302295,0.0,0.0,0.0
21610792770125,-0.9284152,8.772088,4.3070807,0.0,0.0,0.0
21610795149136,-0.9906286,8.7577305,4.2831526,0.0,0.0,0.0
21610797528146,-1.0480564,8.7577305,4.287938,0.0,0.0,0.0
21610799907104,-1.1150553,8.7577305,4.2975097,0.0,0.0,0.0
21610802286115,-1.1724831,8.7673025,4.316652,0.0,0.0,0.0
21610804665125,-1.2059826,8.776874,4.3262234,0.0,0.0,0.0
21610807044136,-1.2729816,8.786445,4.331009,0.0,0.0,0.0
21610809423094,-1.3351951,8.772088,4.3405805,0.0,0.0,0.0
21610811802104,-1.3591232,8.79123,4.3118663,0.0,0.0,0.0
21610814181115,-1.3830515,8.786445,4.3070807,0.0,0.0,0.0
21610816560125,-1.3734802,8.819944,4.3118663,0.0,0.0,0.0
21610818939136,-1.3639089,8.834301,4.321438,0.0,0.0,0.0
21610821318146,-1.3160524,8.85823,4.287938,0.0,0.0,0.0
21610823697104,-1.2969099,8.9013,4.287938,0.0,0.0,0.0
21610826076115,-1.2586247,8.930014,4.2927237,0.0,0.0,0.0
21610828455125,-1.2107682,8.906086,4.2831526,0.0,0.0,0.0
21610830834136,-1.1724831,8.920443,4.302295,0.0,0.0,0.0
21610833213146,-1.1294123,8.906086,4.331009,0.0,0.0,0.0
21610835592104,-1.0671989,8.882157,4.321438,0.0,0.0,0.0
21610837971115,-1.038485,8.9348,4.3118663,0.0,0.0,0.0
21610840350125,-1.0001999,8.896515,4.2831526,0.0,0.0,0.0
21610842729136,-0.94755775,8.906086,4.26401,0.0,0.0,0.0
21610845108146,-0.9379865,8.891729,4.2687955,0.0,0.0,0.0
21610847487104,-0.95712906,8.906086,4.2687955,0.0,0.0,0.0
21610849866115,-0.9523434,8.85823,4.2687955,0.0,0.0,0.0
21610852245125,-0.9762716,8.848659,4.287938,0.0,0.0,0.0
21610854624136,-0.9906286,8.85823,4.2975097,0.0,0.0,0.0
21610857003146,-1.0001999,8.848659,4.3070807,0.0,0.0,0.0
21610859382104,-1.0289137,8.848659,4.3070807,0.0,0.0,0.0
21610861761115,-1.0767702,8.853444,4.2831526,0.0,0.0,0.0
21610864140125,-1.0767702,8.877372,4.273581,0.0,0.0,0.0
21610866519136,-1.0863415,8.863015,4.254439,0.0,0.0,0.0
21610868898146,-1.0863415,8.85823,4.2448673,0.0,0.0,0.0
21610871277156,-1.1246266,8.853444,4.2592244,0.0,0.0,0.0
21610873656115,-1.119841,8.848659,4.2592244,0.0,0.0,0.0
21610876035125,-1.1294123,8.829515,4.2592244,0.0,0.0,0.0
21610878414136,-1.1006985,8.872586,4.254439,0.0,0.0,0.0
21610880793146,-1.119841,8.85823,4.2592244,0.0,0.0,0.0
21610883172156,-1.0911272,8.853444,4.2592244,0.0,0.0,0.0
21610885551115,-1.0767702,8.85823,4.2352962,0.0,0.0,0.0
21610887930125,-1.0576276,8.872586,4.2257247,0.0,0.0,0.0
21610890309136,-1.0719845,8.882157,4.2448673,0.0,0.0,0.0
21610892688146,-1.0432707,8.867801,4.249653,0.0,0.0,0.0
21610895067156,-1.0336994,8.829515,4.249653,0.0,0.0,0.0
21610897446167,-1.0241281,8.810373,4.2448673,0.0,0.0,0.0
21610899825125,-1.0193424,8.815159,4.220939,0.0,0.0,0.0
21610902204136,-0.9906286,8.839087,4.211368,0.0,0.0,0.0
21610904583146,-1.0001999,8.82473,4.197011,0.0,0.0,0.0
21610906962156,-0.9810573,8.829515,4.211368,0.0,0.0,0.0
21610909341167,-0.9667004,8.819944,4.220939,0.0,0.0,0.0
21610911720125,-0.9619147,8.796016,4.240082,0.0,0.0,0.0
21610914099136,-0.9379865,8.810373,4.254439,0.0,0.0,0.0
21610916478146,-0.9523434,8.79123,4.2831526,0.0,0.0,0.0
21610918857156,-0.9523434,8.796016,4.2975097,0.0,0.0,0.0
21610921236115,-0.94277215,8.79123,4.278367,0.0,0.0,0.0
21610923615125,-0.9236295,8.772088,4.278367,0.0,0.0,0.0
21610925994136,-0.9092726,8.7673025,4.2687955,0.0,0.0,0.0
21610928373146,-0.8997013,8.79123,4.2831526,0.0,0.0,0.0
21610930752156,-0.8709874,8.79123,4.3118663,0.0,0.0,0.0
21610933131167,-0.86141616,8.772088,4.316652,0.0,0.0,0.0
21610935510125,-0.86141616,8.781659,4.316652,0.0,0.0,0.0
21610937889136,-0.8566305,8.786445,4.2975097,0.0,0.0,0.0
21610940268146,-0.85184485,8.7577305,4.249653,0.0,0.0,0.0
21610942647156,-0.8757731,8.772088,4.2592244,0.0,0.0,0.0
21610945026167,-0.9092726,8.776874,4.2927237,0.0,0.0,0.0
21610947405177,-0.8997013,8.796016,4.2927237,0.0,0.0,0.0
21610949784136,-0.9236295,8.815159,4.2975097,0.0,0.0,0.0
21610952163146,-0.9954142,8.843872,4.2831526,0.0,0.0,0.0
21610954542156,-1.0289137,8.863015,4.2975097,0.0,0.0,0.0
21610956921167,-1.0719845,8.867801,4.2831526,0.0,0.0,0.0
21610959300177,-1.1389836,8.872586,4.2927237,0.0,0.0,0.0
21610961679136,-1.1916257,8.863015,4.2975097,0.0,0.0,0.0
21610964058146,-1.2299109,8.877372,4.316652,0.0,0.0,0.0
21610966437156,-1.2490535,8.882157,4.316652,0.0,0.0,0.0
21610968816167,-1.253839,8.896515,4.316652,0.0,0.0,0.0
21610971195177,-1.2873386,8.877372,4.321438,0.0,0.0,0.0
21610973574136,-1.2921243,8.85823,4.321438,0.0,0.0,0.0
21610975953146,-1.3064811,8.834301,4.3501515,0.0,0.0,0.0
21610978332156,-1.3160524,8.829515,4.3932223,0.0,0.0,0.0
21610980711167,-1.3112668,8.800801,4.412365,0.0,0.0,0.0
21610983090177,-1.3016955,8.772088,4.398008,0.0,0.0,0.0
21610985469136,-1.2777673,8.79123,4.3932223,0.0,0.0,0.0
21610987848146,-1.2251252,8.786445,4.359723,0.0,0.0,0.0
21610990227156,-1.18684,8.79123,4.316652,0.0,0.0,0.0
21610992606167,-1.1581261,8.800801,4.3118663,0.0,0.0,0.0
21610994985177,-1.1102697,8.829515,4.316652,0.0,0.0,0.0
21610997364188,-1.0815558,8.819944,4.316652,0.0,0.0,0.0
21610999743146,-1.0767702,8.819944,4.3262234,0.0,0.0,0.0
21611002122156,-1.0480564,8.829515,4.302295,0.0,0.0,0.0
21611004501167,-1.038485,8.819944,4.302295,0.0,0.0,0.0
21611006880177,-1.0193424,8.834301,4.287938,0.0,0.0,0.0
21611009259188,-1.0049855,8.82473,4.2448673,0.0,0.0,0.0
21611011638146,-1.0049855,8.810373,4.1922255,0.0,0.0,0.0
21611014017156,-0.9954142,8.819944,4.1778684,0.0,0.0,0.0
21611016396167,-1.0097711,8.819944,4.1778684,0.0,0.0,0.0
21611018775177,-1.0145568,8.85823,4.1491547,0.0,0.0,0.0
21611021154188,-1.0432707,8.891729,4.1204405,0.0,0.0,0.0
21611023533146,-1.0432707,8.915657,4.1347976,0.0,0.0,0.0
21611025912156,-1.052842,8.886943,4.1204405,0.0,0.0,0.0
21611028291167,-1.038485,8.915657,4.1443686,0.0,0.0,0.0
21611030670177,-1.038485,8.920443,4.130012,0.0,0.0,0.0
21611033049188,-1.0241281,8.9013,4.15394,0.0,0.0,0.0
21611035428198,-1.0049855,8.872586,4.168297,0.0,0.0,0.0
21611037807156,-1.0097711,8.925228,4.2161536,0.0,0.0,0.0
21611040186167,-0.9762716,8.906086,4.211368,0.0,0.0,0.0
21611042565177,-0.98584294,8.896515,4.273581,0.0,0.0,0.0
21611044944188,-0.94755775,8.9013,4.321438,0.0,0.0,0.0
21611047323146,-0.9619147,8.930014,4.354937,0.0,0.0,0.0
21611049702156,-0.94277215,8.958728,4.3788652,0.0,0.0,0.0
21611052081167,-0.91405827,8.896515,4.354937,0.0,0.0,0.0
21611054460177,-0.8709874,8.891729,4.3357944,0.0,0.0,0.0
21611056839188,-0.8327023,8.9013,4.316652,0.0,0.0,0.0
21611059218198,-0.82313097,8.867801,4.287938,0.0,0.0,0.0
21611061597156,-0.79441714,8.843872,4.302295,0.0,0.0,0.0
21611063976167,-0.80877405,8.848659,4.3501515,0.0,0.0,0.0
21611066355177,-0.8470592,8.805588,4.3357944,0.0,0.0,0.0
21611068734188,-0.8853444,8.829515,4.359723,0.0,0.0,0.0
21611071113198,-0.93320084,8.834301,4.354937,0.0,0.0,0.0
21611073492156,-1.0289137,8.843872,4.3405805,0.0,0.0,0.0
21611075871167,-1.0767702,8.834301,4.3405805,0.0,0.0,0.0
21611078250177,-1.1629118,8.843872,4.354937,0.0,0.0,0.0
21611080629188,-1.2346965,8.85823,4.354937,0.0,0.0,0.0
21611083008198,-1.2873386,8.896515,4.3788652,0.0,0.0,0.0
21611085387156,-1.282553,8.853444,4.3405805,0.0,0.0,0.0
21611087766167,-1.3686945,8.867801,4.3118663,0.0,0.0,0.0
21611090145177,-1.3830515,8.877372,4.278367,0.0,0.0,0.0
21611092524188,-1.4117653,8.863015,4.2448673,0.0,0.0,0.0
21611094903198,-1.4213367,8.834301,4.211368,0.0,0.0,0.0
21611097282209,-1.416551,8.800801,4.211368,0.0,0.0,0.0
21611099661167,-1.4213367,8.776874,4.23051,0.0,0.0,0.0
21611102040177,-1.402194,8.748159,4.240082,0.0,0.0,0.0
21611104419188,-1.3639089,8.733803,4.23051,0.0,0.0,0.0
21611106798198,-1.3064811,8.724232,4.206582,0.0,0.0,0.0
21611109177209,-1.2442678,8.752945,4.206582,0.0,0.0,0.0
21611111556167,-1.1437693,8.772088,4.197011,0.0,0.0,0.0
21611113935177,-1.0719845,8.7577305,4.1922255,0.0,0.0,0.0
21611116314188,-1.038485,8.839087,4.2017965,0.0,0.0,0.0
21611118693198,-0.971486,8.839087,4.2257247,0.0,0.0,0.0
21611121072209,-0.9523434,8.867801,4.26401,0.0,0.0,0.0
21611123451167,-0.89013004,8.9013,4.287938,0.0,0.0,0.0
21611125830177,-0.90448695,8.920443,4.321438,0.0,0.0,0.0
21611128209188,-0.8805587,8.925228,4.302295,0.0,0.0,0.0
21611130588198,-0.9236295,8.953942,4.3357944,0.0,0.0,0.0
21611132967209,-0.94277215,8.920443,4.3357944,0.0,0.0,0.0
21611135346167,-0.9810573,8.920443,4.3836513,0.0,0.0,0.0
21611137725177,-0.9762716,8.915657,4.402794,0.0,0.0,0.0
21611140104188,-0.9906286,8.891729,4.436293,0.0,0.0,0.0
21611142483198,-0.9954142,8.872586,4.4841495,0.0,0.0,0.0
21611144862209,-1.0001999,8.853444,4.503292,0.0,0.0,0.0
21611147241219,-1.0049855,8.834301,4.503292,0.0,0.0,0.0
21611149620177,-1.0193424,8.800801,4.5128636,0.0,0.0,0.0
21611151999188,-1.0145568,8.7577305,4.4841495,0.0,0.0,0.0
21611154378198,-0.9954142,8.748159,4.45065,0.0,0.0,0.0
21611156757209,-1.0049855,8.776874,4.4171505,0.0,0.0,0.0
21611159136219,-0.9954142,8.772088,4.3836513,0.0,0.0,0.0
21611161515177,-0.9954142,8.781659,4.345366,0.0,0.0,0.0
21611163894188,-0.98584294,8.805588,4.3118663,0.0,0.0,0.0
21611166273198,-0.98584294,8.829515,4.2831526,0.0,0.0,0.0
21611168652209,-1.0193424,8.834301,4.2687955,0.0,0.0,0.0
21611171031219,-1.038485,8.877372,4.23051,0.0,0.0,0.0
21611173410177,-1.0719845,8.925228,4.182654,0.0,0.0,0.0
21611175789188,-1.1294123,8.949157,4.125226,0.0,0.0,0.0
21611178168198,-1.1294123,8.9348,4.072584,0.0,0.0,0.0
21611180547209,-1.1964114,8.953942,4.058227,0.0,0.0,0.0
21611182926219,-1.2586247,8.944371,4.063013,0.0,0.0,0.0
21611185305229,-1.3208381,8.925228,4.082155,0.0,0.0,0.0
21611187684188,-1.3543376,8.906086,4.101298,0.0,0.0,0.0
21611190063198,-1.4069797,8.877372,4.130012,0.0,0.0,0.0
21611192442209,-1.3830515,8.82473,4.1874394,0.0,0.0,0.0
21611194821219,-1.3878372,8.810373,4.240082,0.0,0.0,0.0
21611197200229,-1.3543376,8.800801,4.2975097,0.0,0.0,0.0
21611199579188,-1.3160524,8.781659,4.369294,0.0,0.0,0.0
21611201958198,-1.2490535,8.729017,4.388437,0.0,0.0,0.0
21611204337209,-1.1820544,8.724232,4.4075794,0.0,0.0,0.0
21611206716219,-1.0863415,8.719446,4.3836513,0.0,0.0,0.0
21611209095177,-1.0049855,8.700303,4.3645086,0.0,0.0,0.0
21611211474188,-0.91405827,8.729017,4.3740797,0.0,0.0,0.0
21611213853198,-0.8279166,8.752945,4.3645086,0.0,0.0,0.0
21611216232209,-0.75613195,8.7673025,4.369294,0.0,0.0,0.0
21611218611219,-0.70348984,8.748159,4.359723,0.0,0.0,0.0
21611220990229,-0.6412765,8.7673025,4.3501515,0.0,0.0,0.0
21611223369188,-0.6125626,8.776874,4.3118663,0.0,0.0,0.0
21611225748198,-0.63170516,8.819944,4.278367,0.0,0.0,0.0
21611228127209,-0.65084773,8.815159,4.254439,0.0,0.0,0.0
21611230506219,-0.6843473,8.829515,4.23051,0.0,0.0,0.0
21611232885229,-0.7178468,8.839087,4.2257247,0.0,0.0,0.0
21611235264240,-0.7800602,8.848659,4.2017965,0.0,0.0,0.0
21611237643198,-0.82313097,8.872586,4.2161536,0.0,0.0,0.0
21611240022209,-0.90448695,8.877372,4.23051,0.0,0.0,0.0
21611242401219,-0.94277215,8.891729,4.273581,0.0,0.0,0.0
21611244780229,-0.9762716,8.915657,4.3501515,0.0,0.0,0.0
21611247159188,-0.9954142,8.877372,4.412365,0.0,0.0,0.0
21611249538198,-1.0001999,8.891729,4.4554358,0.0,0.0,0.0
21611251917209,-0.9762716,8.863015,4.4841495,0.0,0.0,0.0
21611254296219,-0.93320084,8.848659,4.479364,0.0,0.0,0.0
21611256675229,-0.86141616,8.829515,4.4075794,0.0,0.0,0.0
21611259054240,-0.7752745,8.839087,4.345366,0.0,0.0,0.0
21611261433198,-0.7082755,8.805588,4.3070807,0.0,0.0,0.0
21611263812209,-0.6221339,8.762517,4.278367,0.0,0.0,0.0
21611266191219,-0.5312066,8.7577305,4.249653,0.0,0.0,0.0
21611268570229,-0.45942193,8.772088,4.240082,0.0,0.0,0.0
21611270949240,-0.41635114,8.752945,4.1922255,0.0,0.0,0.0
21611273328198,-0.38763726,8.743374,4.1635113,0.0,0.0,0.0
21611275707209,-0.38285163,8.719446,4.130012,0.0,0.0,0.0
21611278086219,-0.37806597,8.724232,4.106084,0.0,0.0,0.0
21611280465229,-0.3924229,8.724232,4.082155,0.0,0.0,0.0
21611282844240,-0.46899325,8.738588,4.091727,0.0,0.0,0.0
21611285223250,-0.55034924,8.772088,4.0869412,0.0,0.0,0.0
21611287602209,-0.66041905,8.819944,4.082155,0.0,0.0,0.0
21611289981219,-0.7752745,8.85823,4.130012,0.0,0.0,0.0
21611292360229,-0.8709874,8.891729,4.173083,0.0,0.0,0.0
21611294739240,-0.95712906,8.930014,4.240082,0.0,0.0,0.0
21611297118250,-1.0432707,8.953942,4.3262234,0.0,0.0,0.0
21611299497209,-1.119841,8.949157,4.436293,0.0,0.0,0.0
21611301876219,-1.2107682,8.930014,4.508078,0.0,0.0,0.0
21611304255177,-1.2203395,8.953942,4.551149,0.0,0.0,0.0
21611306634240,-1.2107682,8.963513,4.5128636,0.0,0.0,0.0
21611309013250,-1.1724831,8.973084,4.45065,0.0,0.0,0.0
21611311392209,-1.1150553,8.953942,4.402794,0.0,0.0,0.0
21611313771219,-1.0145568,8.963513,4.388437,0.0,0.0,0.0
21611316150229,-0.9284152,8.915657,4.3836513,0.0,0.0,0.0
21611318529240,-0.82313097,8.886943,4.3932223,0.0,0.0,0.0
21611320908250,-0.72263247,8.85823,4.3740797,0.0,0.0,0.0
21611323287209,-0.63170516,8.839087,4.302295,0.0,0.0,0.0
21611325666219,-0.55034924,8.843872,4.23051,0.0,0.0,0.0
21611328045229,-0.5024927,8.82473,4.197011,0.0,0.0,0.0
21611330424240,-0.47377887,8.800801,4.182654,0.0,0.0,0.0
21611332803250,-0.44985065,8.810373,4.1635113,0.0,0.0,0.0
21611335182209,-0.4977071,8.82473,4.1778684,0.0,0.0,0.0
21611337561219,-0.5982057,8.85823,4.182654,0.0,0.0,0.0
21611339940229,-0.71306115,8.9013,4.206582,0.0,0.0,0.0
21611342319240,-0.8135597,8.9108715,4.211368,0.0,0.0,0.0
21611344698250,-0.93320084,8.968299,4.206582,0.0,0.0,0.0
21611347077209,-1.0480564,8.977871,4.240082,0.0,0.0,0.0
21611349456219,-1.1581261,8.977871,4.321438,0.0,0.0,0.0
21611351835229,-1.2921243,9.001799,4.3740797,0.0,0.0,0.0
21611354214240,-1.3495519,9.01137,4.4171505,0.0,0.0,0.0
21611356593250,-1.3830515,8.977871,4.426722,0.0,0.0,0.0
21611358972261,-1.3830515,8.958728,4.3836513,0.0,0.0,0.0
21611361351219,-1.3639089,8.915657,4.3405805,0.0,0.0,0.0
21611363730229,-1.2969099,8.872586,4.3118663,0.0,0.0,0.0
21611366109240,-1.2299109,8.839087,4.2831526,0.0,0.0,0.0
21611368488250,-1.1150553,8.819944,4.2927237,0.0,0.0,0.0
21611370867261,-0.9762716,8.781659,4.316652,0.0,0.0,0.0
21611373246219,-0.8470592,8.752945,4.2975097,0.0,0.0,0.0
21611375625229,-0.6939186,8.71466,4.2687955,0.0,0.0,0.0
21611378004240,-0.55034924,8.681161,4.2352962,0.0,0.0,0.0
21611380383250,-0.44985065,8.700303,4.1778684,0.0,0.0,0.0
21611382762261,-0.36370903,8.729017,4.139583,0.0,0.0,0.0
21611385141219,-0.3062813,8.748159,4.125226,0.0,0.0,0.0
21611387519917,-0.31585258,8.7673025,4.1443686,0.0,0.0,0.0
21611389899240,-0.3397808,8.762517,4.15394,0.0,0.0,0.0
21611392278250,-0.3924229,8.815159,4.15394,0.0,0.0,0.0
21611394657261,-0.44506502,8.82473,4.173083,0.0,0.0,0.0
21611397036271,-0.5599205,8.848659,4.1874394,0.0,0.0,0.0
21611399415229,-0.66041905,8.872586,4.197011,0.0,0.0,0.0
21611401794240,-0.7848458,8.863015,4.2257247,0.0,0.0,0.0
21611404173250,-0.8757731,8.886943,4.2687955,0.0,0.0,0.0
21611406552261,-0.971486,8.9013,4.321438,0.0,0.0,0.0
21611408931271,-1.0432707,8.9013,4.3357944,0.0,0.0,0.0
21611411310229,-1.0719845,8.896515,4.345366,0.0,0.0,0.0
21611413689240,-1.0863415,8.886943,4.3118663,0.0,0.0,0.0
21611416068250,-1.0863415,8.848659,4.2831526,0.0,0.0,0.0
21611418447261,-1.0432707,8.843872,4.26401,0.0,0.0,0.0
21611420826271,-0.94755775,8.867801,4.287938,0.0,0.0,0.0
21611423205229,-0.8805587,8.834301,4.316652,0.0,0.0,0.0
21611425584240,-0.79920274,8.82473,4.3070807,0.0,0.0,0.0
21611427963250,-0.70348984,8.819944,4.2831526,0.0,0.0,0.0
21611430342261,-0.5982057,8.772088,4.2352962,0.0,0.0,0.0
21611432721271,-0.51206404,8.781659,4.168297,0.0,0.0,0.0
21611435100229,-0.44985065,8.786445,4.1443686,0.0,0.0,0.0
21611437479240,-0.39720857,8.82473,4.130012,0.0,0.0,0.0
21611439858250,-0.36370903,8.848659,4.139583,0.0,0.0,0.0
21611442237261,-0.37806597,8.886943,4.1347976,0.0,0.0,0.0
21611444616271,-0.41635114,8.85823,4.1347976,0.0,0.0,0.0
21611446995229,-0.49292147,8.709874,4.072584,0.0,0.0,0.0
21611449374240,-0.56470615,8.662018,4.048656,0.0,0.0,0.0
21611451753250,-0.5886344,8.618947,3.5413775,0.0,0.0,0.0
21611454132261,-0.6125626,8.886943,3.0293136,0.0,0.0,0.0
21611456511271,-1.1676974,9.0544405,3.885944,0.0,0.0,0.0
21611458890281,-0.66041905,9.15494,5.2163534,0.0,0.0,0.0
21611461269240,-0.79920274,9.164511,4.9722853,0.0,0.0,0.0
21611463648250,-1.5888343,9.078369,4.3070807,0.0,0.0,0.0
21611466027261,-0.7896315,8.695518,3.9146578,0.0,0.0,0.0
21611468406271,-0.66999036,9.327223,4.0773697,0.0,0.0,0.0
21611470785281,-1.4069797,9.480363,4.4985065,0.0,0.0,0.0
21611473164240,-1.2873386,8.853444,5.4987063,0.0,0.0,0.0
21611475543250,-0.27756742,8.556734,5.838487,0.0,0.0,0.0
21611477922261,-1.0767702,9.001799,5.302495,0.0,0.0,0.0
21611480301271,-1.0145568,8.886943,4.465007,0.0,0.0,0.0
21611482680281,-0.3397808,8.786445,3.9290147,0.0,0.0,0.0
21611485059240,-0.5838487,9.217153,3.9338005,0.0,0.0,0.0
21611487438250,-0.6412765,8.877372,4.034299,0.0,0.0,0.0
21611489817261,-0.32063824,8.49452,4.331009,0.0,0.0,0.0
21611492196271,-0.26799613,8.863015,4.3788652,0.0,0.0,0.0
21611494575281,-0.4833502,9.001799,3.7088752,0.0,0.0,0.0
21611496954240,-0.35413775,8.85823,3.1633115,0.0,0.0,0.0
21611499333250,-0.17706887,8.997013,3.062813,0.0,0.0,0.0
21611501712261,-0.3062813,9.030513,2.9479575,0.0,0.0,0.0
21611504091271,-0.39720857,8.829515,3.2207394,0.0,0.0,0.0
21611506470281,-0.28713873,8.776874,3.9768713,0.0,0.0,0.0
21611508849240,-0.31106696,8.685946,4.5128636,0.0,0.0,0.0
21611511228250,-0.5407779,8.647661,4.584648,0.0,0.0,0.0
21611513607261,-0.4881358,8.705089,4.091727,0.0,0.0,0.0
21611515986271,-0.5024927,8.867801,3.2350962,0.0,0.0,0.0
21611518365281,-0.7704889,9.064013,2.684747,0.0,0.0,0.0
21611520744292,-0.76570326,9.15494,2.8474588,0.0,0.0,0.0
21611523123250,-0.79920274,9.30808,3.5940197,0.0,0.0,0.0
21611525502261,-0.9236295,9.327223,4.3357944,0.0,0.0,0.0
21611527881271,-1.0001999,9.241081,4.6707897,0.0,0.0,0.0
21611530260281,-0.90448695,9.19801,4.5942197,0.0,0.0,0.0
21611532639292,-0.91405827,9.145369,4.2352962,0.0,0.0,0.0
21611535018250,-0.9762716,9.068798,4.1108694,0.0,0.0,0.0
21611537397261,-0.8135597,8.872586,4.436293,0.0,0.0,0.0
21611539776271,-0.7896315,8.82473,5.1924253,0.0,0.0,0.0
21611542155281,-0.6795616,8.595019,5.761917,0.0,0.0,0.0
21611544534292,-0.6891329,8.504091,6.087341,0.0,0.0,0.0
21611546913250,-0.4833502,8.566305,5.9581285,0.0,0.0,0.0
21611549292261,-0.4642076,8.580662,5.393422,0.0,0.0,0.0
21611551671271,-0.46899325,8.590233,4.8909297,0.0,0.0,0.0
21611554050281,-0.40677986,8.628518,4.723432,0.0,0.0,0.0
21611556429240,-0.4977071,8.595019,4.8526444,0.0,0.0,0.0
21611558808250,-0.65084773,8.580662,5.197211,0.0,0.0,0.0
21611561187261,-0.7848458,8.441878,5.4412785,0.0,0.0,0.0
21611563566271,-0.91884387,8.413164,5.426922,0.0,0.0,0.0
21611565945281,-1.2011969,8.441878,5.1876397,0.0,0.0,0.0
21611568324292,-1.2251252,8.441878,4.7952166,0.0,0.0,0.0
21611570703302,-1.3447664,8.508878,4.6085763,0.0,0.0,0.0
21611573082261,-1.3160524,8.52802,4.6564326,0.0,0.0,0.0
21611575461271,-1.2442678,8.566305,4.8622155,0.0,0.0,0.0
21611577840281,-1.0767702,8.633304,4.996214,0.0,0.0,0.0
21611580219292,-1.0097711,8.724232,4.847859,0.0,0.0,0.0
21611582598302,-0.8662018,8.815159,4.426722,0.0,0.0,0.0
21611584977261,-0.6987042,8.896515,3.900301,0.0,0.0,0.0
21611587356271,-0.6364908,8.963513,3.5605202,0.0,0.0,0.0
21611589735281,-0.5072784,8.9348,3.4504502,0.0,0.0,0.0
21611592114292,-0.4354937,8.920443,3.6083765,0.0,0.0,0.0
21611594493302,-0.3493521,8.891729,3.6993039,0.0,0.0,0.0
21611596872313,-0.34456646,8.853444,3.6227336,0.0,0.0,0.0
21611599251271,-0.29671,8.915657,3.4695928,0.0,0.0,0.0
21611601630281,-0.28713873,8.920443,3.1154552,0.0,0.0,0.0
21611604009292,-0.2105684,9.073584,2.9096723,0.0,0.0,0.0
21611606388302,-0.11006984,9.097511,2.804388,0.0,0.0,0.0
21611608767261,-0.023928227,9.12144,3.0053852,0.0,0.0,0.0
21611611146271,0.11485548,9.035298,3.225525,0.0,0.0,0.0
21611613525281,0.13399807,8.987442,3.455236,0.0,0.0,0.0
21611615904292,0.05742774,8.843872,3.5988052,0.0,0.0,0.0
21611618283302,-0.062213387,8.819944,3.67059,0.0,0.0,0.0
21611620662313,-0.2009971,8.82473,3.5365918,0.0,0.0,0.0
21611623041271,-0.40677986,8.867801,3.3643086,0.0,0.0,0.0
21611625420281,-0.526421,8.729017,3.2733815,0.0,0.0,0.0
21611627799292,-0.61734825,8.724232,3.546163,0.0,0.0,0.0
21611630178302,-0.6652047,8.85823,4.0103707,0.0,0.0,0.0
21611632557313,-0.75613195,8.9348,4.3645086,0.0,0.0,0.0
21611634936271,-0.7800602,8.963513,4.345366,0.0,0.0,0.0
21611637315281,-0.7465607,9.12144,4.15394,0.0,0.0,0.0
21611639694292,-0.75613195,9.111869,3.9864426,0.0,0.0,0.0
21611642073302,-0.74177504,9.025727,4.1874394,0.0,0.0,0.0
21611644452313,-0.7369894,8.925228,4.6372905,0.0,0.0,0.0
21611646831271,-0.79920274,8.800801,5.163711,0.0,0.0,0.0
21611649210281,-0.8853444,8.642876,5.56092,0.0,0.0,0.0
21611651589292,-0.8470592,8.422736,5.5369916,0.0,0.0,0.0
21611653968302,-0.8805587,8.571091,5.4795637,0.0,0.0,0.0
21611656347313,-0.9619147,8.41795,5.058427,0.0,0.0,0.0
21611658726271,-1.052842,8.523234,5.0249276,0.0,0.0,0.0
21611661105281,-1.0767702,8.537591,5.0249276,0.0,0.0,0.0
21611663484292,-1.2059826,8.642876,5.245067,0.0,0.0,0.0
21611665863302,-1.2442678,8.63809,5.302495,0.0,0.0,0.0
21611668242313,-1.2394822,8.776874,5.3312087,0.0,0.0,0.0
21611670621271,-1.1772687,8.863015,5.2019963,0.0,0.0,0.0
21611673000281,-1.1006985,8.848659,4.948357,0.0,0.0,0.0
21611675379292,-0.9906286,8.9108715,4.8909297,0.0,0.0,0.0
21611677758302,-0.94277215,8.85823,4.938786,0.0,0.0,0.0
21611680137313,-0.91884387,8.834301,5.0823555,0.0,0.0,0.0
21611682516323,-0.93320084,8.776874,5.1254263,0.0,0.0,0.0
21611684895281,-0.8997013,8.82473,4.9770713,0.0,0.0,0.0
21611687274292,-0.8853444,8.867801,4.6612186,0.0,0.0,0.0
21611689653302,-0.79920274,8.9108715,4.359723,0.0,0.0,0.0
21611692032313,-0.6891329,8.886943,4.0773697,0.0,0.0,0.0
21611694411323,-0.6364908,8.963513,3.9816568,0.0,0.0,0.0
21611696790281,-0.55034924,8.853444,3.9625144,0.0,0.0,0.0
21611699169292,-0.46899325,8.85823,4.1347976,0.0,0.0,0.0
21611701548302,-0.4354937,8.805588,4.2687955,0.0,0.0,0.0
21611703927313,-0.3493521,8.819944,4.23051,0.0,0.0,0.0
21611706306323,-0.28713873,8.906086,3.9960139,0.0,0.0,0.0
21611708685281,-0.29671,8.973084,3.723232,0.0,0.0,0.0
21611711064292,-0.28713873,8.997013,3.5988052,0.0,0.0,0.0
21611713443302,-0.31106696,8.968299,3.6514473,0.0,0.0,0.0
21611715822834,-0.41156548,8.992228,3.9290147,0.0,0.0,0.0
21611718201323,-0.4019942,8.920443,4.0773697,0.0,0.0,0.0
21611720580281,-0.5024927,8.977871,4.1108694,0.0,0.0,0.0
21611722959292,-0.4354937,9.030513,3.9050865,0.0,0.0,0.0
21611725338302,-0.42592242,9.068798,3.6275191,0.0,0.0,0.0
21611727717313,-0.38763726,9.159725,3.4408789,0.0,0.0,0.0
21611730096323,-0.38763726,9.183653,3.5605202,0.0,0.0,0.0
21611732475281,-0.31585258,9.097511,3.8524444,0.0,0.0,0.0
21611734854292,-0.32542387,9.073584,4.173083,0.0,0.0,0.0
21611737233302,-0.41156548,9.08794,4.354937,0.0,0.0,0.0
21611739612313,-0.3684947,9.059227,4.254439,0.0,0.0,0.0
21611741991323,-0.46899325,9.08794,3.9625144,0.0,0.0,0.0
21611744370281,-0.56470615,9.107083,3.7471602,0.0,0.0,0.0
21611746749292,-0.66999036,9.064013,3.842873,0.0,0.0,0.0
21611749128302,-0.75613195,8.992228,4.115655,0.0,0.0,0.0
21611751507313,-0.90448695,8.968299,4.4315076,0.0,0.0,0.0
21611753886323,-0.9954142,8.939586,4.570291,0.0,0.0,0.0
21611756265334,-1.0480564,8.9348,4.5415773,0.0,0.0,0.0
21611758644292,-1.1150553,8.939586,4.3405805,0.0,0.0,0.0
21611761023302,-1.1724831,8.925228,4.182654,0.0,0.0,0.0
21611763402313,-1.1964114,8.877372,4.273581,0.0,0.0,0.0
21611765781323,-1.1724831,8.79123,4.469793,0.0,0.0,0.0
21611768160334,-1.1676974,8.772088,4.613362,0.0,0.0,0.0
21611770539292,-1.1676974,8.800801,4.6612186,0.0,0.0,0.0
21611772918302,-1.0911272,8.772088,4.551149,0.0,0.0,0.0
21611775297313,-1.0289137,8.796016,4.3405805,0.0,0.0,0.0
21611777676323,-0.9667004,8.85823,4.240082,0.0,0.0,0.0
21611780055334,-0.8709874,8.815159,4.3070807,0.0,0.0,0.0
21611782434292,-0.7322037,8.772088,4.493721,0.0,0.0,0.0
21611784813302,-0.66041905,8.786445,4.599005,0.0,0.0,0.0
21611787192313,-0.59342,8.834301,4.546363,0.0,0.0,0.0
21611789571323,-0.47377887,8.834301,4.369294,0.0,0.0,0.0
21611791950334,-0.41635114,8.848659,4.197011,0.0,0.0,0.0
21611794329344,-0.41635114,8.863015,4.2257247,0.0,0.0,0.0
21611796708302,-0.4019942,8.829515,4.359723,0.0,0.0,0.0
21611799087313,-0.3924229,8.853444,4.546363,0.0,0.0,0.0
21611801466323,-0.4354937,8.906086,4.627719,0.0,0.0,0.0
21611803845334,-0.4354937,8.896515,4.503292,0.0,0.0,0.0
21611806224344,-0.4642076,8.944371,4.2592244,0.0,0.0,0.0
21611808603302,-0.53599226,8.963513,4.1204405,0.0,0.0,0.0
21611810982313,-0.5455636,8.891729,4.173083,0.0,0.0,0.0
21611813361323,-0.60777694,8.85823,4.412365,0.0,0.0,0.0
21611815740334,-0.6939186,8.815159,4.618148,0.0,0.0,0.0
21611818119292,-0.8039884,8.796016,4.6468616,0.0,0.0,0.0
21611820498302,-0.83748794,8.834301,4.508078,0.0,0.0,0.0
21611822877313,-0.9284152,8.896515,4.2975097,0.0,0.0,0.0
21611825256323,-0.9762716,8.9013,4.0869412,0.0,0.0,0.0
21611827635334,-1.038485,8.877372,4.0295134,0.0,0.0,0.0
21611830014344,-1.1102697,8.9108715,4.130012,0.0,0.0,0.0
21611832393302,-1.1820544,8.906086,4.2687955,0.0,0.0,0.0
21611834772313,-1.2107682,8.9108715,4.402794,0.0,0.0,0.0
21611837151323,-1.2155539,8.9108715,4.388437,0.0,0.0,0.0
21611839530334,-1.253839,8.992228,4.220939,0.0,0.0,0.0
21611841909344,-1.268196,8.997013,3.9960139,0.0,0.0,0.0
21611844288302,-1.253839,8.997013,3.9768713,0.0,0.0,0.0
21611846667313,-1.1964114,8.977871,4.115655,0.0,0.0,0.0
21611849046323,-1.2490535,8.920443,4.1922255,0.0,0.0,0.0
21611851425334,-1.2729816,8.915657,4.2352962,0.0,0.0,0.0
21611853804344,-1.2921243,8.915657,4.1443686,0.0,0.0,0.0
21611856183354,-1.3878372,8.968299,3.9720855,0.0,0.0,0.0
21611858562313,-1.4883357,8.953942,3.8093736,0.0,0.0,0.0
21611860941323,-1.5744773,8.9826565,3.8285162,0.0,0.0,0.0
21611863320334,-1.6606189,8.997013,3.938586,0.0,0.0,0.0
21611865699344,-1.8137596,9.016156,4.058227,0.0,0.0,0.0
21611868078354,-1.9525433,9.044869,4.1587257,0.0,0.0,0.0
21611870457313,-2.0291135,9.064013,4.1587257,0.0,0.0,0.0
21611872836323,-2.1343977,9.08794,4.0773697,0.0,0.0,0.0
21611875215334,-2.2492533,9.111869,4.048656,0.0,0.0,0.0
21611877594344,-2.2971098,9.150154,4.1347976,0.0,0.0,0.0
21611879973354,-2.359323,9.131011,4.26401,0.0,0.0,0.0
21611882352313,-2.3976083,9.126225,4.359723,0.0,0.0,0.0
21611884731323,-2.4119651,9.164511,4.369294,0.0,0.0,0.0
21611887110334,-2.3449662,9.178867,4.254439,0.0,0.0,0.0
21611889489344,-2.2588246,9.159725,4.0965123,0.0,0.0,0.0
21611891868354,-2.1391835,9.135797,4.063013,0.0,0.0,0.0
21611894247313,-1.9621146,9.107083,4.1204405,0.0,0.0,0.0
21611896626323,-1.8137596,9.025727,4.2257247,0.0,0.0,0.0
21611899005334,-1.6941184,8.925228,4.345366,0.0,0.0,0.0
21611901384344,-1.4883357,8.863015,4.4315076,0.0,0.0,0.0
21611903763354,-1.3495519,8.867801,4.398008,0.0,0.0,0.0
21611906142313,-1.1964114,8.882157,4.249653,0.0,0.0,0.0
21611908521323,-1.0336994,8.848659,4.106084,0.0,0.0,0.0
21611910900334,-0.91884387,8.82473,4.1204405,0.0,0.0,0.0
21611913279344,-0.8039884,8.772088,4.302295,0.0,0.0,0.0
21611915658354,-0.7513463,8.724232,4.4985065,0.0,0.0,0.0
21611918037313,-0.6939186,8.748159,4.570291,0.0,0.0,0.0
21611920416323,-0.6891329,8.82473,4.426722,0.0,0.0,0.0
21611922795334,-0.7178468,8.839087,4.182654,0.0,0.0,0.0
21611925174344,-0.7369894,8.839087,4.034299,0.0,0.0,0.0
21611927553354,-0.81834537,8.863015,4.082155,0.0,0.0,0.0
21611929932365,-0.8997013,8.805588,4.321438,0.0,0.0,0.0
21611932311323,-0.9379865,8.79123,4.5559344,0.0,0.0,0.0
21611934690334,-1.0097711,8.800801,4.6037908,0.0,0.0,0.0
21611937069344,-1.1006985,8.738588,4.4410787,0.0,0.0,0.0
21611939448354,-1.1102697,8.71466,4.316652,0.0,0.0,0.0
21611941827365,-1.1246266,8.724232,4.3070807,0.0,0.0,0.0
21611944206323,-1.1389836,8.681161,4.3740797,0.0,0.0,0.0
21611946585334,-1.1246266,8.700303,4.4458647,0.0,0.0,0.0
21611948964344,-1.119841,8.719446,4.4171505,0.0,0.0,0.0
21611951343354,-1.0911272,8.719446,4.2687955,0.0,0.0,0.0
21611953722365,-1.0815558,8.752945,4.1635113,0.0,0.0,0.0
21611956101323,-0.9810573,8.681161,4.15394,0.0,0.0,0.0
21611958480334,-0.94755775,8.6141615,4.26401,0.0,0.0,0.0
21611960859344,-0.8327023,8.595019,4.412365,0.0,0.0,0.0
21611963238354,-0.72741807,8.618947,4.479364,0.0,0.0,0.0
21611965617365,-0.6412765,8.585447,4.398008,0.0,0.0,0.0
21611967996323,-0.526421,8.6141615,4.273581,0.0,0.0,0.0
21611970375334,-0.43070808,8.628518,4.139583,0.0,0.0,0.0
21611972754344,-0.37328035,8.599805,4.0773697,0.0,0.0,0.0
21611975133354,-0.33499518,8.599805,4.130012,0.0,0.0,0.0
21611977512365,-0.28713873,8.628518,4.2352962,0.0,0.0,0.0
21611979891323,-0.3397808,8.618947,4.3070807,0.0,0.0,0.0
21611982270334,-0.29671,8.585447,4.3262234,0.0,0.0,0.0
21611984649344,-0.32542387,8.60459,4.2831526,0.0,0.0,0.0
21611987028354,-0.3493521,8.580662,4.2161536,0.0,0.0,0.0
21611989407365,-0.40677986,8.595019,4.2017965,0.0,0.0,0.0
21611991786375,-0.41635114,8.595019,4.2352962,0.0,0.0,0.0
21611994165334,-0.4642076,8.6141615,4.316652,0.0,0.0,0.0
21611996544344,-0.52163535,8.609376,4.369294,0.0,0.0,0.0
21611998923354,-0.55513483,8.63809,4.398008,0.0,0.0,0.0
21612001302365,-0.57427746,8.6141615,4.3501515,0.0,0.0,0.0
21612003681375,-0.6125626,8.623733,4.302295,0.0,0.0,0.0
21612006060334,-0.6364908,8.676374,4.2927237,0.0,0.0,0.0
21612008439344,-0.61734825,8.657232,4.2831526,0.0,0.0,0.0
21612010818354,-0.60777694,8.652447,4.331009,0.0,0.0,0.0
21612013197365,-0.56470615,8.690732,4.3357944,0.0,0.0,0.0
21612015576375,-0.55034924,8.719446,4.316652,0.0,0.0,0.0
21612017955334,-0.5024927,8.724232,4.2831526,0.0,0.0,0.0
21612020334344,-0.4642076,8.748159,4.240082,0.0,0.0,0.0
21612022713354,-0.46899325,8.772088,4.206582,0.0,0.0,0.0
21612025092365,-0.4354937,8.7673025,4.23051,0.0,0.0,0.0
21612027471375,-0.3924229,8.752945,4.287938,0.0,0.0,0.0
21612029850334,-0.3589234,8.79123,4.316652,0.0,0.0,0.0
21612032229344,-0.33499518,8.810373,4.3405805,0.0,0.0,0.0
21612034608354,-0.28713873,8.796016,4.331009,0.0,0.0,0.0
21612036987365,-0.26799613,8.800801,4.3357944,0.0,0.0,0.0
21612039366375,-0.22013968,8.819944,4.3357944,0.0,0.0,0.0
21612041745334,-0.2009971,8.872586,4.3262234,0.0,0.0,0.0
21612044124344,-0.23449662,8.9013,4.321438,0.0,0.0,0.0
21612046503302,-0.23449662,8.9013,4.3070807,0.0,0.0,0.0
21612048882365,-0.29671,8.925228,4.316652,0.0,0.0,0.0
21612051261375,-0.3397808,8.968299,4.2975097,0.0,0.0,0.0
21612053640386,-0.42592242,8.953942,4.2448673,0.0,0.0,0.0
21612056019344,-0.47377887,8.987442,4.197011,0.0,0.0,0.0
21612058398354,-0.5455636,9.01137,4.15394,0.0,0.0,0.0
21612060777365,-0.5886344,8.997013,4.1635113,0.0,0.0,0.0
21612063156375,-0.6125626,8.997013,4.2161536,0.0,0.0,0.0
21612065535386,-0.6364908,8.997013,4.2448673,0.0,0.0,0.0
21612067914344,-0.6891329,9.01137,4.2448673,0.0,0.0,0.0
21612070293354,-0.70348984,9.016156,4.2592244,0.0,0.0,0.0
21612072672365,-0.72741807,8.992228,4.240082,0.0,0.0,0.0
21612075051375,-0.7369894,9.01137,4.2448673,0.0,0.0,0.0
21612077430386,-0.76570326,8.987442,4.278367,0.0,0.0,0.0
21612079809344,-0.8135597,8.992228,4.331009,0.0,0.0,0.0
21612082188354,-0.8039884,8.882157,4.3262234,0.0,0.0,0.0
21612084567365,-0.80877405,8.776874,4.2927237,0.0,0.0,0.0
21612086946375,-0.81834537,8.843872,4.321438,0.0,0.0,0.0
21612089325386,-0.8757731,8.85823,4.3740797,0.0,0.0,0.0
21612091704344,-0.8422736,8.829515,4.3501515,0.0,0.0,0.0
21612094083354,-0.89491564,8.810373,4.2592244,0.0,0.0,0.0
21612096462365,-0.74177504,8.85823,4.2161536,0.0,0.0,0.0
21612098841375,-0.8422736,8.85823,4.2927237,0.0,0.0,0.0
21612101220386,-0.71306115,8.877372,4.402794,0.0,0.0,0.0
21612103599396,-0.80877405,8.843872,4.45065,0.0,0.0,0.0
21612105978354,-0.6652047,8.834301,4.4171505,0.0,0.0,0.0
21612108357365,-0.6843473,8.839087,4.3788652,0.0,0.0,0.0
21612110736375,-0.66041905,8.772088,4.3836513,0.0,0.0,0.0
21612113115334,-0.55513483,8.709874,4.3932223,0.0,0.0,0.0
21612115494344,-0.526421,8.748159,4.4410787,0.0,0.0,0.0
21612117873354,-0.41635114,8.695518,4.4171505,0.0,0.0,0.0
21612120252365,-0.44985065,8.671589,4.398008,0.0,0.0,0.0
21612122631375,-0.33020952,8.705089,4.316652,0.0,0.0,0.0
21612125010386,-0.36370903,8.786445,4.1874394,0.0,0.0,0.0
21612127389344,-0.31106696,8.85823,4.0773697,0.0,0.0,0.0
21612129768354,-0.28235307,8.949157,3.9960139,0.0,0.0,0.0
21612132147365,-0.2536392,8.992228,4.019942,0.0,0.0,0.0
21612134526375,-0.19142582,8.9348,4.1491547,0.0,0.0,0.0
21612136905386,-0.15792629,8.925228,4.331009,0.0,0.0,0.0
21612139284396,-0.11006984,8.930014,4.4841495,0.0,0.0,0.0
21612141663302,-0.10049855,8.958728,4.4985065,0.0,0.0,0.0
21612144042365,-0.014356935,8.9826565,4.398008,0.0,0.0,0.0
21612146421375,0.0047856453,9.025727,4.2257247,0.0,0.0,0.0
21612148800386,0.043070808,9.016156,4.139583,0.0,0.0,0.0
21612151179396,0.0526421,8.944371,4.1491547,0.0,0.0,0.0
21612153558354,0.0526421,8.9108715,4.26401,0.0,0.0,0.0
21612155937365,0.038285162,8.882157,4.369294,0.0,0.0,0.0
21612158316375,0.05742774,8.848659,4.426722,0.0,0.0,0.0
21612160695386,0.086141616,8.853444,4.321438,0.0,0.0,0.0
21612163074396,0.10049855,8.9108715,4.220939,0.0,0.0,0.0
21612165453406,0.15792629,8.906086,4.1491547,0.0,0.0,0.0
21612167832365,0.13878371,8.877372,4.206582,0.0,0.0,0.0
21612170211375,0.15314065,8.915657,4.3357944,0.0,0.0,0.0
21612172590386,0.18185452,8.886943,4.4602213,0.0,0.0,0.0
21612174969396,0.20578274,8.863015,4.465007,0.0,0.0,0.0
21612177348406,0.19621146,8.843872,4.369294,0.0,0.0,0.0
21612179727365,0.18185452,8.839087,4.302295,0.0,0.0,0.0
21612182106375,0.16749759,8.867801,4.2687955,0.0,0.0,0.0
21612184485386,0.13399807,8.9108715,4.278367,0.0,0.0,0.0
21612186864396,0.062213387,8.9348,4.3357944,0.0,0.0,0.0
21612189243354,0.019142581,8.949157,4.354937,0.0,0.0,0.0
21612191622365,-0.0047856453,9.01137,4.3645086,0.0,0.0,0.0
21612194001375,-0.043070808,9.025727,4.3357944,0.0,0.0,0.0
21612196380386,-0.09571291,9.030513,4.273581,0.0,0.0,0.0
21612198759396,-0.13878371,9.025727,4.240082,0.0,0.0,0.0
21612201138406,-0.2009971,8.977871,4.26401,0.0,0.0,0.0
21612203517365,-0.26799613,8.930014,4.3405805,0.0,0.0,0.0
21612205896375,-0.31585258,8.9013,4.3836513,0.0,0.0,0.0
21612208275386,-0.3924229,8.877372,4.3740797,0.0,0.0,0.0
21612210654396,-0.45942193,8.843872,4.3262234,0.0,0.0,0.0
21612213033406,-0.5024927,8.82473,4.273581,0.0,0.0,0.0
21612215412365,-0.51206404,8.819944,4.2448673,0.0,0.0,0.0
21612217791375,-0.5599205,8.815159,4.26401,0.0,0.0,0.0
21612220170386,-0.55034924,8.829515,4.302295,0.0,0.0,0.0
21612222549344,-0.5694918,8.843872,4.3357944,0.0,0.0,0.0
21612224928406,-0.5838487,8.853444,4.321438,0.0,0.0,0.0
21612227307417,-0.5982057,8.877372,4.302295,0.0,0.0,0.0
21612229686323,-0.6029913,8.906086,4.2592244,0.0,0.0,0.0
21612232065386,-0.6221339,8.925228,4.2257247,0.0,0.0,0.0
21612234444396,-0.6412765,8.930014,4.2448673,0.0,0.0,0.0
21612236823406,-0.67477596,8.925228,4.2927237,0.0,0.0,0.0
21612239202417,-0.6795616,8.920443,4.3405805,0.0,0.0,0.0
21612241581375,-0.6556334,8.925228,4.3788652,0.0,0.0,0.0
21612243960386,-0.6364908,8.930014,4.388437,0.0,0.0,0.0
21612246339396,-0.6269195,8.920443,4.345366,0.0,0.0,0.0
21612248718406,-0.6221339,8.9013,4.3501515,0.0,0.0,0.0
21612251097365,-0.6029913,8.882157,4.3645086,0.0,0.0,0.0
21612253476375,-0.6029913,8.877372,4.4075794,0.0,0.0,0.0
21612255855386,-0.59342,8.834301,4.4602213,0.0,0.0,0.0
21612258234396,-0.6125626,8.810373,4.4602213,0.0,0.0,0.0
21612260613406,-0.61734825,8.79123,4.45065,0.0,0.0,0.0
21612262992417,-0.61734825,8.786445,4.4171505,0.0,0.0,0.0
21612265371375,-0.65084773,8.762517,4.3740797,0.0,0.0,0.0
21612267750386,-0.65084773,8.748159,4.321438,0.0,0.0,0.0
21612270129396,-0.6556334,8.748159,4.287938,0.0,0.0,0.0
21612272508406,-0.66041905,8.762517,4.2927237,0.0,0.0,0.0
21612274887417,-0.66041905,8.781659,4.287938,0.0,0.0,0.0
21612277266375,-0.6652047,8.796016,4.2687955,0.0,0.0,0.0
21612279645386,-0.64606214,8.815159,4.2352962,0.0,0.0,0.0
21612282024396,-0.63170516,8.82473,4.206582,0.0,0.0,0.0
21612284403406,-0.6269195,8.839087,4.182654,0.0,0.0,0.0
21612286782417,-0.6221339,8.863015,4.168297,0.0,0.0,0.0
21612289161427,-0.57427746,8.834301,4.168297,0.0,0.0,0.0
21612291540386,-0.53599226,8.867801,4.168297,0.0,0.0,0.0
21612293919396,-0.5024927,8.886943,4.1874394,0.0,0.0,0.0
21612296298406,-0.4833502,8.896515,4.1587257,0.0,0.0,0.0
21612298677417,-0.4833502,8.891729,4.15394,0.0,0.0,0.0
21612301056375,-0.4833502,8.896515,4.1347976,0.0,0.0,0.0
21612303435386,-0.4546363,8.915657,4.1204405,0.0,0.0,0.0
21612305814396,-0.4546363,8.944371,4.106084,0.0,0.0,0.0
21612308193406,-0.45942193,8.920443,4.1347976,0.0,0.0,0.0
21612310572417,-0.49292147,8.915657,4.1635113,0.0,0.0,0.0
21612312951427,-0.5455636,8.906086,4.1778684,0.0,0.0,0.0
21612315330386,-0.5886344,8.906086,4.173083,0.0,0.0,0.0
21612317709396,-0.6652047,8.930014,4.1778684,0.0,0.0,0.0
21612320088406,-0.72263247,8.953942,4.2017965,0.0,0.0,0.0
21612322467417,-0.8039884,8.944371,4.2257247,0.0,0.0,0.0
21612324846427,-0.86141616,8.953942,4.249653,0.0,0.0,0.0
21612327225386,-0.9092726,8.949157,4.2975097,0.0,0.0,0.0
21612329604396,-0.9906286,8.958728,4.2975097,0.0,0.0,0.0
21612331983406,-1.0289137,8.958728,4.2975097,0.0,0.0,0.0
21612334362417,-1.0624132,8.963513,4.2975097,0.0,0.0,0.0
21612336741427,-1.105484,8.977871,4.2927237,0.0,0.0,0.0
21612339120386,-1.134198,8.963513,4.3070807,0.0,0.0,0.0
21612341499396,-1.1581261,8.949157,4.321438,0.0,0.0,0.0
21612343878406,-1.1724831,8.968299,4.316652,0.0,0.0,0.0
21612346257417,-1.1724831,8.944371,4.3118663,0.0,0.0,0.0
21612348636427,-1.1485549,8.949157,4.2831526,0.0,0.0,0.0
21612351015386,-1.1294123,8.939586,4.249653,0.0,0.0,0.0
21612353394396,-1.0863415,8.953942,4.249653,0.0,0.0,0.0
21612355773406,-1.052842,8.939586,4.240082,0.0,0.0,0.0
21612358152417,-1.0001999,8.920443,4.26401,0.0,0.0,0.0
21612360531427,-0.91884387,8.9108715,4.278367,0.0,0.0,0.0
21612362910438,-0.8853444,8.920443,4.254439,0.0,0.0,0.0
21612365289396,-0.8039884,8.9013,4.23051,0.0,0.0,0.0
21612367668406,-0.76570326,8.9108715,4.211368,0.0,0.0,0.0
21612370047417,-0.71306115,8.9013,4.1922255,0.0,0.0,0.0
21612372426427,-0.67477596,8.867801,4.2161536,0.0,0.0,0.0
21612374805438,-0.6364908,8.882157,4.2161536,0.0,0.0,0.0
21612377184396,-0.6125626,8.839087,4.2448673,0.0,0.0,0.0
21612379563406,-0.61734825,8.815159,4.23051,0.0,0.0,0.0
21612381942417,-0.6269195,8.834301,4.240082,0.0,0.0,0.0
21612384321427,-0.6269195,8.853444,4.2592244,0.0,0.0,0.0
21612386700438,-0.63170516,8.834301,4.2927237,0.0,0.0,0.0
21612389079396,-0.67477596,8.834301,4.302295,0.0,0.0,0.0
21612391458406,-0.71306115,8.853444,4.3262234,0.0,0.0,0.0
21612393837417,-0.7609176,8.853444,4.345366,0.0,0.0,0.0
21612396216427,-0.7896315,8.82473,4.3645086,0.0,0.0,0.0
21612398595438,-0.79920274,8.819944,4.345366,0.0,0.0,0.0
21612400974396,-0.85184485,8.853444,4.359723,0.0,0.0,0.0
21612403353406,-0.8805587,8.867801,4.388437,0.0,0.0,0.0
21612405732417,-0.8422736,8.843872,4.388437,0.0,0.0,0.0
21612408111427,-0.8470592,8.85823,4.3836513,0.0,0.0,0.0
21612410490438,-0.8039884,8.85823,4.3357944,0.0,0.0,0.0
21612412869448,-0.75613195,8.848659,4.2975097,0.0,0.0,0.0
21612415248406,-0.6939186,8.815159,4.2831526,0.0,0.0,0.0
21612417627417,-0.63170516,8.79123,4.2687955,0.0,0.0,0.0
21612420006427,-0.5599205,8.781659,4.2687955,0.0,0.0,0.0
21612422385438,-0.5024927,8.772088,4.2927237,0.0,0.0,0.0
21612424764396,-0.4546363,8.776874,4.26401,0.0,0.0,0.0
21612427143406,-0.4019942,8.7673025,4.249653,0.0,0.0,0.0
21612429522417,-0.3684947,8.748159,4.2352962,0.0,0.0,0.0
21612431901427,-0.3397808,8.7577305,4.2161536,0.0,0.0,0.0
21612434280542,-0.3589234,8.752945,4.220939,0.0,0.0,0.0
21612436659448,-0.3493521,8.7577305,4.249653,0.0,0.0,0.0
21612439038406,-0.3589234,8.772088,4.2592244,0.0,0.0,0.0
21612441417417,-0.38285163,8.79123,4.273581,0.0,0.0,0.0
21612443796427,-0.41635114,8.82473,4.240082,0.0,0.0,0.0
21612446175438,-0.44985065,8.839087,4.206582,0.0,0.0,0.0
21612448554448,-0.4881358,8.839087,4.197011,0.0,0.0,0.0
21612450933406,-0.5407779,8.839087,4.1922255,0.0,0.0,0.0
21612453312417,-0.6029913,8.834301,4.1874394,0.0,0.0,0.0
21612455691427,-0.66041905,8.819944,4.206582,0.0,0.0,0.0
21612458070438,-0.74177504,8.829515,4.197011,0.0,0.0,0.0
21612460449448,-0.7848458,8.834301,4.1874394,0.0,0.0,0.0
21612462828406,-0.82313097,8.853444,4.1874394,0.0,0.0,0.0
21612465207417,-0.8422736,8.891729,4.1922255,0.0,0.0,0.0
21612467586427,-0.8566305,8.85823,4.206582,0.0,0.0,0.0
21612469965438,-0.8566305,8.882157,4.240082,0.0,0.0,0.0
21612472344448,-0.85184485,8.9013,4.2592244,0.0,0.0,0.0
21612474723406,-0.85184485,8.867801,4.2687955,0.0,0.0,0.0
21612477102417,-0.81834537,8.891729,4.2687955,0.0,0.0,0.0
21612479481427,-0.7848458,8.9013,4.273581,0.0,0.0,0.0
21612481860438,-0.72263247,8.9108715,4.2687955,0.0,0.0,0.0
21612484239448,-0.6843473,8.9108715,4.287938,0.0,0.0,0.0
21612486618406,-0.67477596,8.915657,4.3070807,0.0,0.0,0.0
21612488997417,-0.67477596,8.930014,4.3262234,0.0,0.0,0.0
21612491376427,-0.65084773,8.915657,4.3357944,0.0,0.0,0.0
21612493755438,-0.6556334,8.906086,4.359723,0.0,0.0,0.0
21612496134448,-0.66999036,8.930014,4.354937,0.0,0.0,0.0
21612498513459,-0.6939186,8.920443,4.354937,0.0,0.0,0.0
21612500892417,-0.7178468,8.949157,4.345366,0.0,0.0,0.0
21612503271427,-0.7465607,8.949157,4.369294,0.0,0.0,0.0
21612505650438,-0.7609176,8.930014,4.3932223,0.0,0.0,0.0
21612508029448,-0.8039884,8.920443,4.412365,0.0,0.0,0.0
21612510408459,-0.8422736,8.9108715,4.4171505,0.0,0.0,0.0
21612512787417,-0.8757731,8.9013,4.402794,0.0,0.0,0.0
21612515166427,-0.8853444,8.9108715,4.4075794,0.0,0.0,0.0
21612517545438,-0.9092726,8.886943,4.412365,0.0,0.0,0.0
21612519924448,-0.91405827,8.867801,4.3788652,0.0,0.0,0.0
21612522303459,-0.9284152,8.85823,4.3501515,0.0,0.0,0.0
21612524682417,-0.89013004,8.843872,4.331009,0.0,0.0,0.0
21612527061427,-0.90448695,8.85823,4.3070807,0.0,0.0,0.0
21612529440438,-0.8757731,8.853444,4.2831526,0.0,0.0,0.0
21612531819448,-0.8470592,8.834301,4.2592244,0.0,0.0,0.0
21612534198459,-0.7896315,8.829515,4.2592244,0.0,0.0,0.0
21612536577469,-0.7704889,8.819944,4.26401,0.0,0.0,0.0
21612538956427,-0.74177504,8.829515,4.2592244,0.0,0.0,0.0
21612541335438,-0.70348984,8.829515,4.2352962,0.0,0.0,0.0
21612543714448,-0.6987042,8.82473,4.2448673,0.0,0.0,0.0
21612546093459,-0.67477596,8.819944,4.2448673,0.0,0.0,0.0
21612548472469,-0.64606214,8.819944,4.240082,0.0,0.0,0.0
21612550851427,-0.6412765,8.82473,4.249653,0.0,0.0,0.0
21612553230438,-0.6221339,8.829515,4.240082,0.0,0.0,0.0
21612555609448,-0.61734825,8.800801,4.254439,0.0,0.0,0.0
21612557988459,-0.6029913,8.810373,4.2687955,0.0,0.0,0.0
21612560367469,-0.5982057,8.819944,4.273581,0.0,0.0,0.0
21612562746427,-0.57906306,8.800801,4.273581,0.0,0.0,0.0
21612565125438,-0.5838487,8.805588,4.2927237,0.0,0.0,0.0
21612567504448,-0.5407779,8.815159,4.3118663,0.0,0.0,0.0
21612569883459,-0.526421,8.819944,4.321438,0.0,0.0,0.0
21612572262469,-0.46899325,8.815159,4.316652,0.0,0.0,0.0
21612574641427,-0.44506502,8.839087,4.3262234,0.0,0.0,0.0
21612577020438,-0.4019942,8.839087,4.3405805,0.0,0.0,0.0
21612579399448,-0.3684947,8.877372,4.331009,0.0,0.0,0.0
21612581778459,-0.34456646,8.848659,4.316652,0.0,0.0,0.0
21612584157469,-0.32063824,8.82473,4.321438,0.0,0.0,0.0
21612586536427,-0.3062813,8.819944,4.3070807,0.0,0.0,0.0
21612588915438,-0.3062813,8.829515,4.321438,0.0,0.0,0.0
21612591294448,-0.29671,8.82473,4.2975097,0.0,0.0,0.0
21612593673459,-0.29671,8.834301,4.3118663,0.0,0.0,0.0
21612596052469,-0.29671,8.839087,4.316652,0.0,0.0,0.0
21612598431427,-0.30149564,8.829515,4.2975097,0.0,0.0,0.0
21612600810438,-0.32542387,8.85823,4.287938,0.0,0.0,0.0
21612603189448,-0.36370903,8.872586,4.26401,0.0,0.0,0.0
21612605568459,-0.4211368,8.882157,4.26401,0.0,0.0,0.0
21612607947469,-0.4642076,8.872586,4.254439,0.0,0.0,0.0
21612610326479,-0.5024927,8.85823,4.23051,0.0,0.0,0.0
21612612705438,-0.5168497,8.877372,4.2448673,0.0,0.0,0.0
21612615084448,-0.5694918,8.896515,4.26401,0.0,0.0,0.0
21612617463459,-0.57427746,8.906086,4.278367,0.0,0.0,0.0
21612619842469,-0.5694918,8.9108715,4.302295,0.0,0.0,0.0
21612622221479,-0.5886344,8.9013,4.3070807,0.0,0.0,0.0
21612624600438,-0.6125626,8.882157,4.3118663,0.0,0.0,0.0
21612626979448,-0.63170516,8.9013,4.3070807,0.0,0.0,0.0
21612629358459,-0.6269195,8.915657,4.321438,0.0,0.0,0.0
21612631737469,-0.61734825,8.915657,4.3405805,0.0,0.0,0.0
21612634116479,-0.60777694,8.939586,4.359723,0.0,0.0,0.0
21612636495438,-0.5838487,8.939586,4.3740797,0.0,0.0,0.0
21612638874448,-0.5599205,8.968299,4.3501515,0.0,0.0,0.0
21612641253459,-0.5599205,8.968299,4.354937,0.0,0.0,0.0
21612643632469,-0.53599226,8.968299,4.359723,0.0,0.0,0.0
21612646011479,-0.526421,8.977871,4.369294,0.0,0.0,0.0
21612648390438,-0.5312066,8.973084,4.3740797,0.0,0.0,0.0
21612650769448,-0.52163535,8.968299,4.388437,0.0,0.0,0.0
21612653148459,-0.526421,8.977871,4.3501515,0.0,0.0,0.0
21612655527469,-0.57906306,8.958728,4.321438,0.0,0.0,0.0
21612657906479,-0.6125626,8.953942,4.3070807,0.0,0.0,0.0
21612660285490,-0.63170516,8.9348,4.3262234,0.0,0.0,0.0
21612662664448,-0.66041905,8.906086,4.345366,0.0,0.0,0.0
21612665043459,-0.70348984,8.896515,4.3501515,0.0,0.0,0.0
21612667422469,-0.7513463,8.9013,4.345366,0.0,0.0,0.0
21612669801479,-0.76570326,8.891729,4.3070807,0.0,0.0,0.0
21612672180438,-0.8135597,8.882157,4.278367,0.0,0.0,0.0
21612674559448,-0.81834537,8.915657,4.254439,0.0,0.0,0.0
21612676938459,-0.86141616,8.915657,4.23051,0.0,0.0,0.0
21612679317469,-0.86141616,8.906086,4.2352962,0.0,0.0,0.0
21612681696479,-0.8422736,8.906086,4.240082,0.0,0.0,0.0
21612684075490,-0.8422736,8.9013,4.2448673,0.0,0.0,0.0
21612686454448,-0.8327023,8.886943,4.249653,0.0,0.0,0.0
21612688833459,-0.82313097,8.891729,4.2448673,0.0,0.0,0.0
21612691212469,-0.8039884,8.891729,4.2161536,0.0,0.0,0.0
21612693591479,-0.75613195,8.877372,4.206582,0.0,0.0,0.0
21612695970490,-0.7178468,8.896515,4.206582,0.0,0.0,0.0
21612698349448,-0.6987042,8.882157,4.220939,0.0,0.0,0.0
21612700728459,-0.66041905,8.886943,4.2257247,0.0,0.0,0.0
21612703107469,-0.61734825,8.877372,4.254439,0.0,0.0,0.0
21612705486479,-0.5886344,8.843872,4.249653,0.0,0.0,0.0
21612707865490,-0.55034924,8.867801,4.23051,0.0,0.0,0.0
21612710244448,-0.5168497,8.85823,4.240082,0.0,0.0,0.0
21612712623459,-0.4977071,8.843872,4.254439,0.0,0.0,0.0
21612715002469,-0.51206404,8.85823,4.2687955,0.0,0.0,0.0
21612717381479,-0.526421,8.853444,4.302295,0.0,0.0,0.0
21612719760490,-0.52163535,8.872586,4.3118663,0.0,0.0,0.0
21612722139448,-0.52163535,8.886943,4.321438,0.0,0.0,0.0
21612724518459,-0.52163535,8.867801,4.3118663,0.0,0.0,0.0
21612726897417,-0.5455636,8.867801,4.316652,0.0,0.0,0.0
21612729276479,-0.57427746,8.863015,4.3070807,0.0,0.0,0.0
21612731655490,-0.6221339,8.85823,4.2975097,0.0,0.0,0.0
21612734034500,-0.5982057,8.853444,4.2927237,0.0,0.0,0.0
21612736413459,-0.6125626,8.829515,4.2927237,0.0,0.0,0.0
21612738792469,-0.61734825,8.843872,4.2831526,0.0,0.0,0.0
21612741171479,-0.60777694,8.867801,4.26401,0.0,0.0,0.0
21612743550490,-0.59342,8.867801,4.240082,0.0,0.0,0.0
21612745929500,-0.5838487,8.877372,4.23051,0.0,0.0,0.0
21612748308459,-0.57906306,8.877372,4.23051,0.0,0.0,0.0
21612750687469,-0.5886344,8.896515,4.2017965,0.0,0.0,0.0
21612753066479,-0.6125626,8.920443,4.2017965,0.0,0.0,0.0
21612755445490,-0.5838487,8.925228,4.197011,0.0,0.0,0.0
21612757824500,-0.57427746,8.930014,4.211368,0.0,0.0,0.0
21612760203459,-0.55513483,8.930014,4.211368,0.0,0.0,0.0
21612762582469,-0.5599205,8.920443,4.211368,0.0,0.0,0.0
21612764961479,-0.5838487,8.915657,4.2352962,0.0,0.0,0.0
21612767340490,-0.5886344,8.9348,4.2448673,0.0,0.0,0.0
21612769719500,-0.6029913,8.944371,4.2592244,0.0,0.0,0.0
21612772098511,-0.6364908,8.896515,4.273581,0.0,0.0,0.0
21612774477469,-0.64606214,8.891729,4.287938,0.0,0.0,0.0
21612776856479,-0.6364908,8.882157,4.278367,0.0,0.0,0.0
21612779235490,-0.67477596,8.872586,4.287938,0.0,0.0,0.0
21612781614500,-0.71306115,8.867801,4.2975097,0.0,0.0,0.0
21612783993459,-0.72263247,8.848659,4.3070807,0.0,0.0,0.0
21612786372469,-0.70348984,8.839087,4.3118663,0.0,0.0,0.0
21612788751479,-0.6795616,8.829515,4.3118663,0.0,0.0,0.0
21612791130490,-0.6891329,8.848659,4.287938,0.0,0.0,0.0
21612793509500,-0.67477596,8.839087,4.2975097,0.0,0.0,0.0
21612795888511,-0.67477596,8.848659,4.2831526,0.0,0.0,0.0
21612798267469,-0.64606214,8.872586,4.2831526,0.0,0.0,0.0
21612800646479,-0.65084773,8.877372,4.2927237,0.0,0.0,0.0
21612803025490,-0.59342,8.882157,4.302295,0.0,0.0,0.0
21612805404500,-0.5694918,8.886943,4.278367,0.0,0.0,0.0
21612807783511,-0.55513483,8.9013,4.2831526,0.0,0.0,0.0
21612810162521,-0.526421,8.891729,4.278367,0.0,0.0,0.0
21612812541479,-0.5312066,8.906086,4.287938,0.0,0.0,0.0
21612814920490,-0.5312066,8.891729,4.278367,0.0,0.0,0.0
21612817299500,-0.51206404,8.886943,4.249653,0.0,0.0,0.0
21612819678511,-0.4977071,8.867801,4.240082,0.0,0.0,0.0
21612822057417,-0.5072784,8.85823,4.2448673,0.0,0.0,0.0
21612824436479,-0.4977071,8.872586,4.23051,0.0,0.0,0.0
21612826815490,-0.5072784,8.843872,4.220939,0.0,0.0,0.0
21612829194500,-0.51206404,8.82473,4.206582,0.0,0.0,0.0
21612831573511,-0.5407779,8.834301,4.2017965,0.0,0.0,0.0
21612833952469,-0.5599205,8.819944,4.211368,0.0,0.0,0.0
21612836331479,-0.5886344,8.815159,4.2448673,0.0,0.0,0.0
21612838710490,-0.6029913,8.829515,4.249653,0.0,0.0,0.0
21612841089500,-0.59342,8.805588,4.2352962,0.0,0.0,0.0
21612843468511,-0.6029913,8.843872,4.2352962,0.0,0.0,0.0
21612845847469,-0.5886344,8.85823,4.2257247,0.0,0.0,0.0
21612848226479,-0.57427746,8.877372,4.2257247,0.0,0.0,0.0
21612850605490,-0.56470615,8.877372,4.23051,0.0,0.0,0.0
21612852984500,-0.5599205,8.877372,4.240082,0.0,0.0,0.0
21612855363511,-0.55034924,8.9108715,4.249653,0.0,0.0,0.0
21612857742521,-0.5455636,8.915657,4.2687955,0.0,0.0,0.0
21612860121479,-0.5312066,8.886943,4.287938,0.0,0.0,0.0
21612862500490,-0.5072784,8.896515,4.2975097,0.0,0.0,0.0
21612864879500,-0.49292147,8.896515,4.2975097,0.0,0.0,0.0
21612867258511,-0.4881358,8.867801,4.321438,0.0,0.0,0.0
21612869637521,-0.5072784,8.863015,4.3405805,0.0,0.0,0.0
21612872016479,-0.5168497,8.834301,4.331009,0.0,0.0,0.0
21612874395490,-0.5312066,8.819944,4.354937,0.0,0.0,0.0
21612876774500,-0.56470615,8.829515,4.354937,0.0,0.0,0.0
21612879153511,-0.5838487,8.796016,4.359723,0.0,0.0,0.0
21612881532521,-0.6125626,8.796016,4.3740797,0.0,0.0,0.0
21612883911479,-0.6221339,8.805588,4.3645086,0.0,0.0,0.0
21612886290490,-0.66041905,8.810373,4.3357944,0.0,0.0,0.0
21612888669500,-0.6795616,8.805588,4.2927237,0.0,0.0,0.0
21612891048511,-0.6795616,8.829515,4.2831526,0.0,0.0,0.0
21612893427521,-0.6987042,8.82473,4.2927237,0.0,0.0,0.0
21612895806479,-0.70348984,8.839087,4.3070807,0.0,0.0,0.0
21612898185490,-0.6843473,8.843872,4.3070807,0.0,0.0,0.0
21612900564500,-0.67477596,8.839087,4.2831526,0.0,0.0,0.0
21612902943511,-0.66041905,8.810373,4.2592244,0.0,0.0,0.0
21612905322521,-0.6364908,8.834301,4.2592244,0.0,0.0,0.0
21612907701531,-0.6412765,8.872586,4.240082,0.0,0.0,0.0
21612910080490,-0.60777694,8.882157,4.254439,0.0,0.0,0.0
21612912459500,-0.5982057,8.882157,4.26401,0.0,0.0,0.0
21612914838511,-0.5982057,8.891729,4.2831526,0.0,0.0,0.0
21612917217521,-0.5982057,8.886943,4.2687955,0.0,0.0,0.0
21612919596479,-0.5886344,8.886943,4.2687955,0.0,0.0,0.0
21612921975490,-0.5982057,8.906086,4.254439,0.0,0.0,0.0
21612924354500,-0.63170516,8.891729,4.249653,0.0,0.0,0.0
21612926733511,-0.63170516,8.9013,4.2592244,0.0,0.0,0.0
21612929112521,-0.66999036,8.891729,4.26401,0.0,0.0,0.0
21612931491531,-0.70348984,8.915657,4.2592244,0.0,0.0,0.0
21612933870490,-0.72263247,8.882157,4.26401,0.0,0.0,0.0
21612936249500,-0.75613195,8.867801,4.26401,0.0,0.0,0.0
21612938628511,-0.76570326,8.867801,4.2687955,0.0,0.0,0.0
21612941007469,-0.7704889,8.882157,4.254439,0.0,0.0,0.0
21612943386531,-0.7896315,8.891729,4.287938,0.0,0.0,0.0
21612945765490,-0.79441714,8.891729,4.2975097,0.0,0.0,0.0
21612948144500,-0.7896315,8.891729,4.302295,0.0,0.0,0.0
21612950523511,-0.74177504,8.920443,4.316652,0.0,0.0,0.0
21612952902521,-0.6987042,8.915657,4.302295,0.0,0.0,0.0
21612955281531,-0.65084773,8.9108715,4.2975097,0.0,0.0,0.0
21612957660490,-0.5886344,8.939586,4.302295,0.0,0.0,0.0
21612960039500,-0.5312066,8.944371,4.287938,0.0,0.0,0.0
21612962418511,-0.5024927,8.939586,4.2687955,0.0,0.0,0.0
21612964797521,-0.44027936,8.939586,4.2592244,0.0,0.0,0.0
21612967176531,-0.41156548,8.939586,4.254439,0.0,0.0,0.0
21612969555542,-0.3493521,8.953942,4.254439,0.0,0.0,0.0
21612971934500,-0.3397808,8.949157,4.254439,0.0,0.0,0.0
21612974313511,-0.32063824,8.925228,4.254439,0.0,0.0,0.0
21612976692521,-0.31585258,8.915657,4.254439,0.0,0.0,0.0
21612979071531,-0.31585258,8.9013,4.2592244,0.0,0.0,0.0
21612981450542,-0.34456646,8.906086,4.2687955,0.0,0.0,0.0
21612983829552,-0.37328035,8.9108715,4.273581,0.0,0.0,0.0
21612986208511,-0.38763726,8.9013,4.2927237,0.0,0.0,0.0
21612988587521,-0.44027936,8.886943,4.287938,0.0,0.0,0.0
21612990966531,-0.5024927,8.886943,4.278367,0.0,0.0,0.0
21612993345542,-0.55034924,8.891729,4.2927237,0.0,0.0,0.0
21612995724552,-0.5599205,8.896515,4.2975097,0.0,0.0,0.0
21612998103511,-0.5838487,8.9013,4.2927237,0.0,0.0,0.0
21613000482521,-0.61734825,8.906086,4.287938,0.0,0.0,0.0
21613002861531,-0.6269195,8.9013,4.278367,0.0,0.0,0.0
21613005240542,-0.6412765,8.891729,4.2687955,0.0,0.0,0.0
21613007619552,-0.6221339,8.877372,4.2975097,0.0,0.0,0.0
21613009998511,-0.6029913,8.853444,4.2975097,0.0,0.0,0.0
21613012377521,-0.5982057,8.839087,4.254439,0.0,0.0,0.0
21613014756531,-0.57427746,8.829515,4.240082,0.0,0.0,0.0
21613017135542,-0.5312066,8.85823,4.2257247,0.0,0.0,0.0
21613019514552,-0.4977071,8.867801,4.2161536,0.0,0.0,0.0
21613021893511,-0.44985065,8.867801,4.1922255,0.0,0.0,0.0
21613024272521,-0.4354937,8.886943,4.1922255,0.0,0.0,0.0
21613026651531,-0.38285163,8.867801,4.2017965,0.0,0.0,0.0
21613029030542,-0.38285163,8.882157,4.220939,0.0,0.0,0.0
21613031409552,-0.3493521,8.877372,4.2257247,0.0,0.0,0.0
21613033788511,-0.37806597,8.891729,4.2448673,0.0,0.0,0.0
21613036167521,-0.39720857,8.85823,4.249653,0.0,0.0,0.0
21613038546531,-0.44506502,8.853444,4.26401,0.0,0.0,0.0
21613040925542,-0.49292147,8.85823,4.273581,0.0,0.0,0.0
21613043304552,-0.5072784,8.872586,4.2975097,0.0,0.0,0.0
21613045683511,-0.55513483,8.863015,4.302295,0.0,0.0,0.0
21613048062521,-0.5982057,8.848659,4.331009,0.0,0.0,0.0
21613050441531,-0.64606214,8.843872,4.3405805,0.0,0.0,0.0
21613052820542,-0.66999036,8.853444,4.345366,0.0,0.0,0.0
21613055199552,-0.6843473,8.834301,4.369294,0.0,0.0,0.0
21613057578563,-0.6939186,8.839087,4.3645086,0.0,0.0,0.0
21613059957521,-0.6987042,8.848659,4.388437,0.0,0.0,0.0
21613062336531,-0.7178468,8.815159,4.3932223,0.0,0.0,0.0
21613064715542,-0.6795616,8.839087,4.388437,0.0,0.0,0.0
21613067094552,-0.6652047,8.85823,4.398008,0.0,0.0,0.0
21613069473563,-0.60777694,8.834301,4.3932223,0.0,0.0,0.0
21613071852521,-0.5694918,8.867801,4.388437,0.0,0.0,0.0
21613074231531,-0.5455636,8.85823,4.388437,0.0,0.0,0.0
21613076610542,-0.5024927,8.867801,4.3501515,0.0,0.0,0.0
21613078989552,-0.4354937,8.891729,4.3405805,0.0,0.0,0.0
21613081368563,-0.4211368,8.882157,4.3262234,0.0,0.0,0.0
21613083747521,-0.43070808,8.882157,4.3357944,0.0,0.0,0.0
21613086126531,-0.41156548,8.896515,4.3262234,0.0,0.0,0.0
21613088505490,-0.4211368,8.896515,4.3405805,0.0,0.0,0.0
21613090884552,-0.42592242,8.886943,4.3405805,0.0,0.0,0.0
21613093263563,-0.44506502,8.886943,4.3262234,0.0,0.0,0.0
21613095642521,-0.47856453,8.877372,4.316652,0.0,0.0,0.0
21613098021531,-0.51206404,8.872586,4.3262234,0.0,0.0,0.0
21613100400542,-0.5407779,8.882157,4.331009,0.0,0.0,0.0
21613102779552,-0.5886344,8.872586,4.3405805,0.0,0.0,0.0
21613105158563,-0.6412765,8.848659,4.331009,0.0,0.0,0.0
21613107537573,-0.6795616,8.843872,4.321438,0.0,0.0,0.0
21613109916531,-0.71306115,8.848659,4.302295,0.0,0.0,0.0
21613112295542,-0.7513463,8.839087,4.2831526,0.0,0.0,0.0
21613114674552,-0.7848458,8.848659,4.249653,0.0,0.0,0.0
21613117053563,-0.7513463,8.877372,4.2352962,0.0,0.0,0.0
21613119432573,-0.7465607,8.886943,4.211368,0.0,0.0,0.0
21613121811531,-0.7369894,8.877372,4.206582,0.0,0.0,0.0
21613124190542,-0.6891329,8.886943,4.2017965,0.0,0.0,0.0
21613126569552,-0.65084773,8.882157,4.1874394,0.0,0.0,0.0
21613128948563,-0.57427746,8.891729,4.182654,0.0,0.0,0.0
21613131327573,-0.51206404,8.915657,4.182654,0.0,0.0,0.0
21613133706531,-0.4642076,8.915657,4.168297,0.0,0.0,0.0
21613136085542,-0.38763726,8.896515,4.182654,0.0,0.0,0.0
21613138464552,-0.33499518,8.896515,4.182654,0.0,0.0,0.0
21613140843563,-0.30149564,8.886943,4.1922255,0.0,0.0,0.0
21613143222573,-0.29671,8.906086,4.206582,0.0,0.0,0.0
21613145601531,-0.31585258,8.882157,4.2161536,0.0,0.0,0.0
21613147980542,-0.30149564,8.867801,4.2257247,0.0,0.0,0.0
21613150359552,-0.3397808,8.863015,4.249653,0.0,0.0,0.0
21613152738563,-0.35413775,8.843872,4.26401,0.0,0.0,0.0
21613155117573,-0.39720857,8.853444,4.26401,0.0,0.0,0.0
21613157496531,-0.46899325,8.867801,4.287938,0.0,0.0,0.0
21613159875542,-0.52163535,8.877372,4.2975097,0.0,0.0,0.0
21613162254552,-0.6029913,8.877372,4.2975097,0.0,0.0,0.0
21613164633563,-0.67477596,8.85823,4.3118663,0.0,0.0,0.0
21613167012573,-0.71306115,8.886943,4.3262234,0.0,0.0,0.0
21613169391584,-0.7513463,8.877372,4.321438,0.0,0.0,0.0
21613171770542,-0.80877405,8.886943,4.331009,0.0,0.0,0.0
21613174149552,-0.8279166,8.915657,4.3501515,0.0,0.0,0.0
21613176528563,-0.8327023,8.906086,4.354937,0.0,0.0,0.0
21613178907573,-0.8039884,8.9108715,4.359723,0.0,0.0,0.0
21613181286584,-0.7896315,8.9348,4.369294,0.0,0.0,0.0
21613183665542,-0.76570326,8.915657,4.3645086,0.0,0.0,0.0
21613186044552,-0.72741807,8.9108715,4.369294,0.0,0.0,0.0
21613188423563,-0.67477596,8.872586,4.354937,0.0,0.0,0.0
21613190802573,-0.66041905,8.891729,4.354937,0.0,0.0,0.0
21613193181584,-0.59342,8.9013,4.3501515,0.0,0.0,0.0
21613195560542,-0.55034924,8.877372,4.3405805,0.0,0.0,0.0
21613197939552,-0.526421,8.867801,4.3405805,0.0,0.0,0.0
21613200318563,-0.5024927,8.877372,4.3405805,0.0,0.0,0.0
21613202697573,-0.47856453,8.886943,4.3262234,0.0,0.0,0.0
21613205076584,-0.4833502,8.882157,4.3070807,0.0,0.0,0.0
21613207455594,-0.4881358,8.843872,4.2927237,0.0,0.0,0.0
21613209834552,-0.51206404,8.872586,4.273581,0.0,0.0,0.0
21613212213563,-0.51206404,8.872586,4.23051,0.0,0.0,0.0
21613214592573,-0.5455636,8.886943,4.211368,0.0,0.0,0.0
21613216971584,-0.57906306,8.896515,4.206582,0.0,0.0,0.0
21613219350542,-0.5982057,8.891729,4.2017965,0.0,0.0,0.0
21613221729552,-0.6412765,8.9108715,4.2017965,0.0,0.0,0.0
21613224108563,-0.6795616,8.920443,4.2017965,0.0,0.0,0.0
21613226487573,-0.6891329,8.925228,4.1922255,0.0,0.0,0.0
21613228866584,-0.6987042,8.9348,4.1874394,0.0,0.0,0.0
21613231245594,-0.72263247,8.925228,4.2017965,0.0,0.0,0.0
21613233624604,-0.71306115,8.9348,4.1922255,0.0,0.0,0.0
21613236003563,-0.7322037,8.915657,4.211368,0.0,0.0,0.0
21613238382573,-0.7178468,8.9013,4.240082,0.0,0.0,0.0
21613240761584,-0.6843473,8.886943,4.254439,0.0,0.0,0.0
21613243140594,-0.6652047,8.891729,4.2592244,0.0,0.0,0.0
21613245519604,-0.6269195,8.85823,4.254439,0.0,0.0,0.0
21613247898563,-0.5982057,8.843872,4.254439,0.0,0.0,0.0
21613250277573,-0.57427746,8.829515,4.2592244,0.0,0.0,0.0
21613252656584,-0.5694918,8.834301,4.2831526,0.0,0.0,0.0
21613255035594,-0.53599226,8.829515,4.278367,0.0,0.0,0.0
21613257414604,-0.52163535,8.82473,4.287938,0.0,0.0,0.0
21613259793563,-0.5072784,8.815159,4.302295,0.0,0.0,0.0
21613262172573,-0.5072784,8.829515,4.302295,0.0,0.0,0.0
21613264551584,-0.51206404,8.843872,4.3118663,0.0,0.0,0.0
21613266930594,-0.51206404,8.848659,4.3357944,0.0,0.0,0.0
21613269309604,-0.5168497,8.85823,4.331009,0.0,0.0,0.0
21613271688563,-0.526421,8.85823,4.3262234,0.0,0.0,0.0
21613274067573,-0.55034924,8.85823,4.3262234,0.0,0.0,0.0
21613276446584,-0.57427746,8.863015,4.3357944,0.0,0.0,0.0
21613278825594,-0.57427746,8.886943,4.3357944,0.0,0.0,0.0
21613281204604,-0.57906306,8.872586,4.321438,0.0,0.0,0.0
21613283583615,-0.5886344,8.863015,4.321438,0.0,0.0,0.0
21613285962573,-0.6125626,8.867801,4.321438,0.0,0.0,0.0
21613288341584,-0.59342,8.877372,4.321438,0.0,0.0,0.0
21613290720594,-0.57906306,8.848659,4.3070807,0.0,0.0,0.0
21613293099604,-0.59342,8.82473,4.2975097,0.0,0.0,0.0
21613295478615,-0.56470615,8.839087,4.287938,0.0,0.0,0.0
21613297857573,-0.5599205,8.839087,4.278367,0.0,0.0,0.0
21613300236479,-0.5455636,8.829515,4.278367,0.0,0.0,0.0
21613302615594,-0.5312066,8.829515,4.2927237,0.0,0.0,0.0
21613304994604,-0.526421,8.82473,4.2927237,0.0,0.0,0.0
21613307373615,-0.53599226,8.834301,4.2687955,0.0,0.0,0.0
21613309752573,-0.5455636,8.863015,4.2592244,0.0,0.0,0.0
21613312131584,-0.53599226,8.863015,4.249653,0.0,0.0,0.0
21613314510594,-0.5312066,8.882157,4.240082,0.0,0.0,0.0
21613316889604,-0.56470615,8.882157,4.2448673,0.0,0.0,0.0
21613319268615,-0.5599205,8.896515,4.249653,0.0,0.0,0.0
21613321647573,-0.6029913,8.886943,4.2687955,0.0,0.0,0.0
21613324026584,-0.6221339,8.886943,4.278367,0.0,0.0,0.0
21613326405594,-0.64606214,8.85823,4.273581,0.0,0.0,0.0
21613328784604,-0.6652047,8.839087,4.2831526,0.0,0.0,0.0
21613331163615,-0.66041905,8.85823,4.278367,0.0,0.0,0.0
21613333542573,-0.6556334,8.853444,4.302295,0.0,0.0,0.0
21613335921584,-0.6987042,8.872586,4.2927237,0.0,0.0,0.0
21613338300594,-0.6795616,8.867801,4.2975097,0.0,0.0,0.0
21613340679604,-0.66041905,8.872586,4.3070807,0.0,0.0,0.0
21613343058615,-0.66041905,8.877372,4.3118663,0.0,0.0,0.0
21613345437625,-0.6221339,8.877372,4.3118663,0.0,0.0,0.0
21613347816584,-0.59342,8.882157,4.302295,0.0,0.0,0.0
21613350195594,-0.56470615,8.867801,4.3070807,0.0,0.0,0.0
21613352574604,-0.55034924,8.882157,4.278367,0.0,0.0,0.0
21613354953615,-0.55513483,8.896515,4.2687955,0.0,0.0,0.0
21613357332625,-0.52163535,8.9108715,4.273581,0.0,0.0,0.0
21613359711584,-0.47856453,8.896515,4.273581,0.0,0.0,0.0
21613362090594,-0.4642076,8.891729,4.2831526,0.0,0.0,0.0
21613364469604,-0.43070808,8.882157,4.2687955,0.0,0.0,0.0
21613366848615,-0.4211368,8.906086,4.2448673,0.0,0.0,0.0
21613369227625,-0.44985065,8.906086,4.220939,0.0,0.0,0.0
21613371606531,-0.44985065,8.882157,4.2161536,0.0,0.0,0.0
21613373985594,-0.4881358,8.891729,4.249653,0.0,0.0,0.0
21613376364604,-0.4833502,8.920443,4.240082,0.0,0.0,0.0
21613378743615,-0.47856453,8.915657,4.2352962,0.0,0.0,0.0
21613381122625,-0.4977071,8.886943,4.220939,0.0,0.0,0.0
21613383501584,-0.5072784,8.882157,4.220939,0.0,0.0,0.0
21613385880594,-0.55034924,8.9013,4.240082,0.0,0.0,0.0
21613388259604,-0.55513483,8.9013,4.249653,0.0,0.0,0.0
21613390638615,-0.56470615,8.882157,4.2352962,0.0,0.0,0.0
21613393017625,-0.5838487,8.915657,4.254439,0.0,0.0,0.0
21613395396636,-0.5886344,8.882157,4.26401,0.0,0.0,0.0
21613397775594,-0.5982057,8.863015,4.249653,0.0,0.0,0.0
21613400154604,-0.5886344,8.882157,4.2448673,0.0,0.0,0.0
21613402533615,-0.6125626,8.886943,4.254439,0.0,0.0,0.0
21613404912625,-0.57906306,8.886943,4.254439,0.0,0.0,0.0
21613407291636,-0.5455636,8.882157,4.287938,0.0,0.0,0.0
21613409670594,-0.526421,8.886943,4.2927237,0.0,0.0,0.0
21613412049604,-0.51206404,8.853444,4.3070807,0.0,0.0,0.0
21613414428615,-0.526421,8.863015,4.2975097,0.0,0.0,0.0
21613416807625,-0.5168497,8.877372,4.2975097,0.0,0.0,0.0
21613419186636,-0.53599226,8.853444,4.3262234,0.0,0.0,0.0
21613421565646,-0.52163535,8.843872,4.331009,0.0,0.0,0.0
21613423944604,-0.53599226,8.843872,4.3501515,0.0,0.0,0.0
21613426323615,-0.5312066,8.843872,4.345366,0.0,0.0,0.0
21613428702625,-0.5599205,8.810373,4.3501515,0.0,0.0,0.0
21613431081636,-0.5886344,8.82473,4.3357944,0.0,0.0,0.0
21613433460646,-0.6029913,8.839087,4.3357944,0.0,0.0,0.0
21613435839604,-0.6125626,8.839087,4.345366,0.0,0.0,0.0
21613438218615,-0.6269195,8.834301,4.3118663,0.0,0.0,0.0
21613440597625,-0.65084773,8.848659,4.302295,0.0,0.0,0.0
21613442976636,-0.6556334,8.843872,4.3262234,0.0,0.0,0.0
21613445355646,-0.6556334,8.843872,4.3405805,0.0,0.0,0.0
21613447734604,-0.65084773,8.843872,4.321438,0.0,0.0,0.0
21613450113615,-0.66041905,8.882157,4.316652,0.0,0.0,0.0
21613452492625,-0.6556334,8.877372,4.302295,0.0,0.0,0.0
21613454871636,-0.60777694,8.886943,4.302295,0.0,0.0,0.0
21613457250646,-0.60777694,8.882157,4.302295,0.0,0.0,0.0
21613459629604,-0.5886344,8.886943,4.2927237,0.0,0.0,0.0
21613462008615,-0.5599205,8.877372,4.2927237,0.0,0.0,0.0
21613464387625,-0.526421,8.882157,4.2831526,0.0,0.0,0.0
21613466766636,-0.5168497,8.882157,4.302295,0.0,0.0,0.0
21613469145646,-0.5312066,8.872586,4.278367,0.0,0.0,0.0
21613471524656,-0.526421,8.877372,4.2975097,0.0,0.0,0.0
21613473903615,-0.51206404,8.877372,4.2831526,0.0,0.0,0.0
21613476282625,-0.5072784,8.872586,4.2687955,0.0,0.0,0.0
21613478661636,-0.52163535,8.872586,4.278367,0.0,0.0,0.0
21613481040646,-0.526421,8.872586,4.26401,0.0,0.0,0.0
21613483419656,-0.5455636,8.886943,4.2448673,0.0,0.0,0.0
21613485798615,-0.5694918,8.886943,4.23051,0.0,0.0,0.0
21613488177625,-0.60777694,8.906086,4.240082,0.0,0.0,0.0
21613490556636,-0.6412765,8.877372,4.2448673,0.0,0.0,0.0
21613492935646,-0.66041905,8.85823,4.240082,0.0,0.0,0.0
21613495314656,-0.6795616,8.882157,4.240082,0.0,0.0,0.0
21613497693667,-0.6987042,8.891729,4.2448673,0.0,0.0,0.0
21613500072625,-0.70348984,8.891729,4.26401,0.0,0.0,0.0
21613502451636,-0.6987042,8.886943,4.254439,0.0,0.0,0.0
21613504830646,-0.6987042,8.896515,4.2831526,0.0,0.0,0.0
21613507209656,-0.6987042,8.863015,4.26401,0.0,0.0,0.0
21613509588667,-0.6795616,8.882157,4.273581,0.0,0.0,0.0
21613511967625,-0.6652047,8.882157,4.2975097,0.0,0.0,0.0
21613514346636,-0.63170516,8.863015,4.3118663,0.0,0.0,0.0
21613516725646,-0.61734825,8.863015,4.2975097,0.0,0.0,0.0
21613519104656,-0.5838487,8.863015,4.287938,0.0,0.0,0.0
21613521483667,-0.5455636,8.85823,4.278367,0.0,0.0,0.0
21613523862625,-0.5024927,8.843872,4.287938,0.0,0.0,0.0
21613526241636,-0.47856453,8.843872,4.278367,0.0,0.0,0.0
21613528620646,-0.4642076,8.867801,4.26401,0.0,0.0,0.0
21613530999656,-0.4354937,8.863015,4.26401,0.0,0.0,0.0
21613533378667,-0.4354937,8.872586,4.2592244,0.0,0.0,0.0
21613535757677,-0.41635114,8.882157,4.2687955,0.0,0.0,0.0
21613538136636,-0.4019942,8.886943,4.2592244,0.0,0.0,0.0
21613540515594,-0.43070808,8.886943,4.2592244,0.0,0.0,0.0
21613542894656,-0.44985065,8.9013,4.273581,0.0,0.0,0.0
21613545273667,-0.46899325,8.891729,4.273581,0.0,0.0,0.0
21613547652677,-0.49292147,8.891729,4.278367,0.0,0.0,0.0
21613550031636,-0.5072784,8.9013,4.2687955,0.0,0.0,0.0
21613552410646,-0.5168497,8.906086,4.278367,0.0,0.0,0.0
21613554789656,-0.53599226,8.891729,4.2831526,0.0,0.0,0.0
21613557168667,-0.55034924,8.877372,4.287938,0.0,0.0,0.0
21613559547677,-0.57427746,8.906086,4.278367,0.0,0.0,0.0
21613561926636,-0.5886344,8.867801,4.2687955,0.0,0.0,0.0
21613564305646,-0.60777694,8.872586,4.26401,0.0,0.0,0.0
21613566684656,-0.6364908,8.872586,4.278367,0.0,0.0,0.0
21613569063667,-0.61734825,8.872586,4.2831526,0.0,0.0,0.0
21613571442677,-0.5886344,8.877372,4.2831526,0.0,0.0,0.0
21613573821636,-0.5838487,8.853444,4.2927237,0.0,0.0,0.0
21613576200646,-0.57906306,8.848659,4.287938,0.0,0.0,0.0
21613578579656,-0.57427746,8.853444,4.278367,0.0,0.0,0.0
21613580958667,-0.56470615,8.867801,4.2831526,0.0,0.0,0.0
21613583337677,-0.57906306,8.867801,4.2831526,0.0,0.0,0.0
21613585716688,-0.53599226,8.891729,4.2927237,0.0,0.0,0.0
21613588095646,-0.52163535,8.9108715,4.302295,0.0,0.0,0.0
21613590474656,-0.5312066,8.853444,4.321438,0.0,0.0,0.0
21613592853667,-0.51206404,8.882157,4.3262234,0.0,0.0,0.0
21613595232677,-0.5168497,8.9013,4.3357944,0.0,0.0,0.0
21613597611688,-0.52163535,8.882157,4.331009,0.0,0.0,0.0
21613599990646,-0.5168497,8.886943,4.3405805,0.0,0.0,0.0
21613602369656,-0.526421,8.877372,4.3405805,0.0,0.0,0.0
21613604748667,-0.5312066,8.882157,4.331009,0.0,0.0,0.0
21613607127677,-0.5312066,8.886943,4.345366,0.0,0.0,0.0
21613609506688,-0.5312066,8.9013,4.3405805,0.0,0.0,0.0
21613611885646,-0.5168497,8.896515,4.331009,0.0,0.0,0.0
21613614264656,-0.5407779,8.891729,4.316652,0.0,0.0,0.0
21613616643667,-0.53599226,8.886943,4.2927237,0.0,0.0,0.0
21613619022677,-0.53599226,8.891729,4.2831526,0.0,0.0,0.0
21613621401688,-0.5407779,8.877372,4.2831526,0.0,0.0,0.0
21613623780698,-0.5599205,8.853444,4.273581,0.0,0.0,0.0
21613626159656,-0.6029913,8.85823,4.2927237,0.0,0.0,0.0
21613628538667,-0.57427746,8.877372,4.2687955,0.0,0.0,0.0
21613630917677,-0.5838487,8.85823,4.26401,0.0,0.0,0.0
21613633296688,-0.6029913,8.896515,4.240082,0.0,0.0,0.0
21613635675698,-0.5838487,8.891729,4.220939,0.0,0.0,0.0
21613638054656,-0.59342,8.867801,4.211368,0.0,0.0,0.0
21613640433667,-0.5982057,8.882157,4.211368,0.0,0.0,0.0
21613642812677,-0.5886344,8.886943,4.211368,0.0,0.0,0.0
21613645191688,-0.59342,8.891729,4.2017965,0.0,0.0,0.0
21613647570698,-0.5886344,8.882157,4.211368,0.0,0.0,0.0
21613649949656,-0.5982057,8.877372,4.220939,0.0,0.0,0.0
21613652328667,-0.5886344,8.886943,4.2352962,0.0,0.0,0.0
21613654707677,-0.56470615,8.872586,4.2592244,0.0,0.0,0.0
21613657086688,-0.53599226,8.867801,4.2687955,0.0,0.0,0.0
21613659465698,-0.5312066,8.867801,4.2687955,0.0,0.0,0.0
21613661844709,-0.53599226,8.872586,4.2687955,0.0,0.0,0.0
21613664223667,-0.51206404,8.82473,4.287938,0.0,0.0,0.0
21613666602677,-0.5072784,8.848659,4.2975097,0.0,0.0,0.0
21613668981688,-0.4833502,8.882157,4.2975097,0.0,0.0,0.0
21613671360698,-0.49292147,8.85823,4.331009,0.0,0.0,0.0
21613673739709,-0.4881358,8.853444,4.359723,0.0,0.0,0.0
21613676118667,-0.47856453,8.85823,4.3501515,0.0,0.0,0.0
21613678497677,-0.47856453,8.863015,4.345366,0.0,0.0,0.0
21613680876688,-0.46899325,8.829515,4.3357944,0.0,0.0,0.0
21613683255698,-0.4642076,8.848659,4.3405805,0.0,0.0,0.0
21613685634709,-0.47377887,8.843872,4.354937,0.0,0.0,0.0
21613688013667,-0.47377887,8.848659,4.359723,0.0,0.0,0.0
21613690392677,-0.47377887,8.85823,4.354937,0.0,0.0,0.0
21613692771688,-0.44985065,8.872586,4.3405805,0.0,0.0,0.0
21613695150698,-0.49292147,8.85823,4.316652,0.0,0.0,0.0
21613697529709,-0.5024927,8.872586,4.316652,0.0,0.0,0.0
21613699908667,-0.52163535,8.85823,4.3070807,0.0,0.0,0.0
21613702287677,-0.52163535,8.853444,4.3118663,0.0,0.0,0.0
21613704666688,-0.55034924,8.843872,4.2927237,0.0,0.0,0.0
21613707045698,-0.5599205,8.843872,4.2831526,0.0,0.0,0.0
21613709424709,-0.55513483,8.848659,4.2975097,0.0,0.0,0.0
21613711803719,-0.5455636,8.877372,4.2975097,0.0,0.0,0.0
21613714182677,-0.5455636,8.877372,4.2831526,0.0,0.0,0.0
21613716561688,-0.55034924,8.843872,4.2687955,0.0,0.0,0.0
21613718940698,-0.5312066,8.867801,4.26401,0.0,0.0,0.0
21613721319709,-0.526421,8.877372,4.273581,0.0,0.0,0.0
21613723698719,-0.526421,8.872586,4.254439,0.0,0.0,0.0
21613726077729,-0.5024927,8.863015,4.2592244,0.0,0.0,0.0
21613728456636,-0.4977071,8.886943,4.249653,0.0,0.0,0.0
21613730835698,-0.5072784,8.9013,4.23051,0.0,0.0,0.0
21613733214709,-0.4833502,8.9108715,4.220939,0.0,0.0,0.0
21613735593719,-0.4977071,8.915657,4.211368,0.0,0.0,0.0
21613737972729,-0.4977071,8.9108715,4.23051,0.0,0.0,0.0
21613740351688,-0.4881358,8.877372,4.2448673,0.0,0.0,0.0
21613742730698,-0.46899325,8.872586,4.2592244,0.0,0.0,0.0
21613745109709,-0.5024927,8.9013,4.249653,0.0,0.0,0.0
21613747488719,-0.5024927,8.872586,4.254439,0.0,0.0,0.0
21613749867729,-0.5072784,8.877372,4.254439,0.0,0.0,0.0
21613752246688,-0.5312066,8.891729,4.254439,0.0,0.0,0.0
21613754625698,-0.51206404,8.9013,4.2687955,0.0,0.0,0.0
21613757004709,-0.52163535,8.867801,4.273581,0.0,0.0,0.0
21613759383719,-0.52163535,8.85823,4.278367,0.0,0.0,0.0
21613761762729,-0.526421,8.882157,4.302295,0.0,0.0,0.0
21613764141740,-0.5407779,8.886943,4.2927237,0.0,0.0,0.0
21613766520698,-0.5455636,8.867801,4.2975097,0.0,0.0,0.0
21613768899709,-0.5312066,8.867801,4.2927237,0.0,0.0,0.0
21613771278719,-0.5312066,8.867801,4.287938,0.0,0.0,0.0
21613773657729,-0.526421,8.85823,4.273581,0.0,0.0,0.0
21613776036740,-0.51206404,8.872586,4.2975097,0.0,0.0,0.0
21613778415698,-0.49292147,8.877372,4.3070807,0.0,0.0,0.0
21613780794709,-0.5024927,8.882157,4.2927237,0.0,0.0,0.0
21613783173719,-0.5024927,8.896515,4.3070807,0.0,0.0,0.0
21613785552729,-0.49292147,8.886943,4.302295,0.0,0.0,0.0
21613787931740,-0.4881358,8.891729,4.3070807,0.0,0.0,0.0
21613790310698,-0.5024927,8.877372,4.302295,0.0,0.0,0.0
21613792689709,-0.5072784,8.882157,4.2927237,0.0,0.0,0.0
21613795068719,-0.4977071,8.85823,4.2975097,0.0,0.0,0.0
21613797447729,-0.5024927,8.872586,4.2927237,0.0,0.0,0.0
21613799826740,-0.5168497,8.85823,4.302295,0.0,0.0,0.0
21613802205750,-0.5312066,8.882157,4.287938,0.0,0.0,0.0
21613804584709,-0.526421,8.863015,4.287938,0.0,0.0,0.0
21613806963719,-0.5455636,8.867801,4.26401,0.0,0.0,0.0
21613809342729,-0.56470615,8.882157,4.2448673,0.0,0.0,0.0
21613811721740,-0.55513483,8.896515,4.249653,0.0,0.0,0.0
21613814100750,-0.5455636,8.896515,4.249653,0.0,0.0,0.0
21613816479709,-0.5886344,8.896515,4.254439,0.0,0.0,0.0
21613818858719,-0.5599205,8.891729,4.254439,0.0,0.0,0.0
21613821237729,-0.55034924,8.886943,4.254439,0.0,0.0,0.0
21613823616740,-0.5599205,8.906086,4.26401,0.0,0.0,0.0
21613825995750,-0.55034924,8.9013,4.273581,0.0,0.0,0.0
21613828374709,-0.5455636,8.882157,4.2831526,0.0,0.0,0.0
21613830753719,-0.5455636,8.896515,4.287938,0.0,0.0,0.0
21613833132729,-0.5312066,8.882157,4.2831526,0.0,0.0,0.0
21613835511740,-0.51206404,8.891729,4.2975097,0.0,0.0,0.0
21613837890750,-0.49292147,8.867801,4.2975097,0.0,0.0,0.0
21613840269761,-0.4642076,8.877372,4.2927237,0.0,0.0,0.0
21613842648719,-0.44506502,8.848659,4.2927237,0.0,0.0,0.0
21613845027729,-0.43070808,8.882157,4.2927237,0.0,0.0,0.0
21613847406740,-0.43070808,8.891729,4.287938,0.0,0.0,0.0
21613849785750,-0.40677986,8.896515,4.2975097,0.0,0.0,0.0
21613852164761,-0.41635114,8.877372,4.331009,0.0,0.0,0.0
21613854543771,-0.4354937,8.886943,4.3118663,0.0,0.0,0.0
21613856922729,-0.40677986,8.867801,4.3357944,0.0,0.0,0.0
21613859301740,-0.40677986,8.867801,4.3262234,0.0,0.0,0.0
21613861680750,-0.43070808,8.85823,4.3262234,0.0,0.0,0.0
21613864059761,-0.4546363,8.85823,4.321438,0.0,0.0,0.0
21613866438771,-0.46899325,8.872586,4.3118663,0.0,0.0,0.0
21613868817729,-0.46899325,8.891729,4.3070807,0.0,0.0,0.0
21613871196740,-0.47856453,8.882157,4.3118663,0.0,0.0,0.0
21613873575750,-0.4833502,8.886943,4.321438,0.0,0.0,0.0
21613875954761,-0.47377887,8.886943,4.3262234,0.0,0.0,0.0
21613878333771,-0.4881358,8.877372,4.3118663,0.0,0.0,0.0
21613880712729,-0.49292147,8.853444,4.302295,0.0,0.0,0.0
21613883091740,-0.47377887,8.863015,4.2687955,0.0,0.0,0.0
21613885470750,-0.4642076,8.886943,4.2687955,0.0,0.0,0.0
21613887849761,-0.44985065,8.863015,4.26401,0.0,0.0,0.0
21613890228771,-0.44506502,8.877372,4.26401,0.0,0.0,0.0
21613892607729,-0.4546363,8.863015,4.2448673,0.0,0.0,0.0
21613894986740,-0.42592242,8.863015,4.2257247,0.0,0.0,0.0
21613897365750,-0.4019942,8.882157,4.23051,0.0,0.0,0.0
21613899744761,-0.38763726,8.872586,4.2448673,0.0,0.0,0.0
21613902123719,-0.37806597,8.877372,4.2448673,0.0,0.0,0.0
21613904502781,-0.38285163,8.886943,4.220939,0.0,0.0,0.0
21613906881740,-0.3684947,8.867801,4.211368,0.0,0.0,0.0
21613909260750,-0.3493521,8.863015,4.23051,0.0,0.0,0.0
21613911639761,-0.35413775,8.872586,4.23051,0.0,0.0,0.0
21613914018719,-0.37328035,8.872586,4.23051,0.0,0.0,0.0
21613916397781,-0.3924229,8.906086,4.2687955,0.0,0.0,0.0
21613918776740,-0.40677986,8.867801,4.254439,0.0,0.0,0.0
21613921155750,-0.40677986,8.853444,4.249653,0.0,0.0,0.0
21613923534761,-0.40677986,8.853444,4.254439,0.0,0.0,0.0
21613925913771,-0.4546363,8.863015,4.26401,0.0,0.0,0.0
21613928292781,-0.4642076,8.872586,4.2831526,0.0,0.0,0.0
21613930671792,-0.46899325,8.853444,4.2831526,0.0,0.0,0.0
21613933050750,-0.4977071,8.853444,4.2975097,0.0,0.0,0.0
21613935429761,-0.5072784,8.843872,4.3070807,0.0,0.0,0.0
21613937808771,-0.5072784,8.867801,4.316652,0.0,0.0,0.0
21613940187781,-0.526421,8.853444,4.287938,0.0,0.0,0.0
21613942566740,-0.55034924,8.839087,4.2592244,0.0,0.0,0.0
21613944945750,-0.53599226,8.843872,4.2687955,0.0,0.0,0.0
21613947324761,-0.526421,8.853444,4.2831526,0.0,0.0,0.0
21613949703771,-0.526421,8.867801,4.2927237,0.0,0.0,0.0
21613952082781,-0.5407779,8.872586,4.3070807,0.0,0.0,0.0
21613954461792,-0.52163535,8.886943,4.3118663,0.0,0.0,0.0
21613956840750,-0.4881358,8.882157,4.321438,0.0,0.0,0.0
21613959219761,-0.45942193,8.891729,4.321438,0.0,0.0,0.0
21613961598771,-0.43070808,8.891729,4.316652,0.0,0.0,0.0
21613963977781,-0.41156548,8.882157,4.3357944,0.0,0.0,0.0
21613966356792,-0.40677986,8.896515,4.331009,0.0,0.0,0.0
21613968735802,-0.40677986,8.891729,4.331009,0.0,0.0,0.0
21613971114761,-0.4019942,8.853444,4.321438,0.0,0.0,0.0
21613973493771,-0.3684947,8.853444,4.345366,0.0,0.0,0.0
21613975872781,-0.3493521,8.877372,4.345366,0.0,0.0,0.0
21613978251792,-0.35413775,8.877372,4.3405805,0.0,0.0,0.0
21613980630802,-0.38763726,8.882157,4.331009,0.0,0.0,0.0
21613983009761,-0.39720857,8.863015,4.3262234,0.0,0.0,0.0
21613985388771,-0.41156548,8.891729,4.321438,0.0,0.0,0.0
21613987767781,-0.42592242,8.877372,4.3070807,0.0,0.0,0.0
21613990146792,-0.44985065,8.863015,4.2975097,0.0,0.0,0.0
21613992525802,-0.47856453,8.863015,4.3070807,0.0,0.0,0.0
21613994904761,-0.47856453,8.867801,4.3070807,0.0,0.0,0.0
21613997283771,-0.47856453,8.896515,4.2975097,0.0,0.0,0.0
21613999662781,-0.5024927,8.882157,4.287938,0.0,0.0,0.0
21614002041792,-0.52163535,8.882157,4.2687955,0.0,0.0,0.0
21614004420802,-0.55034924,8.877372,4.2592244,0.0,0.0,0.0
21614006799813,-0.5407779,8.9013,4.254439,0.0,0.0,0.0
21614009178771,-0.53599226,8.896515,4.26401,0.0,0.0,0.0
21614011557781,-0.55513483,8.915657,4.254439,0.0,0.0,0.0
21614013936792,-0.57427746,8.886943,4.249653,0.0,0.0,0.0
21614016315802,-0.55513483,8.886943,4.26401,0.0,0.0,0.0
21614018694813,-0.5599205,8.882157,4.26401,0.0,0.0,0.0
21614021073771,-0.5455636,8.896515,4.2592244,0.0,0.0,0.0
21614023452781,-0.5407779,8.896515,4.2592244,0.0,0.0,0.0
21614025831792,-0.5455636,8.9013,4.2687955,0.0,0.0,0.0
21614028210802,-0.53599226,8.867801,4.278367,0.0,0.0,0.0
21614030589813,-0.5455636,8.882157,4.2831526,0.0,0.0,0.0
21614032968771,-0.56470615,8.891729,4.278367,0.0,0.0,0.0
21614035347781,-0.526421,8.906086,4.287938,0.0,0.0,0.0
21614037726792,-0.526421,8.891729,4.2831526,0.0,0.0,0.0
21614040105802,-0.55513483,8.9108715,4.2687955,0.0,0.0,0.0
21614042484813,-0.5455636,8.896515,4.2831526,0.0,0.0,0.0
21614044863823,-0.55513483,8.920443,4.2831526,0.0,0.0,0.0
21614047242781,-0.56470615,8.925228,4.287938,0.0,0.0,0.0
21614049621792,-0.57906306,8.906086,4.249653,0.0,0.0,0.0
21614052000802,-0.6029913,8.891729,4.254439,0.0,0.0,0.0
21614054379813,-0.6029913,8.896515,4.2352962,0.0,0.0,0.0
21614056758823,-0.6125626,8.867801,4.220939,0.0,0.0,0.0
21614059137834,-0.61734825,8.896515,4.211368,0.0,0.0,0.0
21614061516792,-0.60777694,8.886943,4.211368,0.0,0.0,0.0
21614063895802,-0.6029913,8.896515,4.2161536,0.0,0.0,0.0
21614066274813,-0.5838487,8.906086,4.220939,0.0,0.0,0.0
21614068653823,-0.55513483,8.9108715,4.23051,0.0,0.0,0.0
21614071032834,-0.53599226,8.925228,4.2257247,0.0,0.0,0.0
21614073411792,-0.51206404,8.915657,4.23051,0.0,0.0,0.0
21614075790802,-0.51206404,8.9348,4.240082,0.0,0.0,0.0
21614078169813,-0.47377887,8.939586,4.2352962,0.0,0.0,0.0
21614080548823,-0.46899325,8.949157,4.249653,0.0,0.0,0.0
21614082927834,-0.4546363,8.963513,4.254439,0.0,0.0,0.0
21614085306844,-0.44506502,8.963513,4.26401,0.0,0.0,0.0
21614087685802,-0.4642076,8.925228,4.273581,0.0,0.0,0.0
21614090064813,-0.44506502,8.925228,4.2687955,0.0,0.0,0.0
21614092443823,-0.4642076,8.906086,4.2592244,0.0,0.0,0.0
21614094822834,-0.4833502,8.867801,4.273581,0.0,0.0,0.0
21614097201844,-0.4881358,8.872586,4.302295,0.0,0.0,0.0
21614099580854,-0.4833502,8.886943,4.316652,0.0,0.0,0.0
21614101959813,-0.5312066,8.882157,4.3405805,0.0,0.0,0.0
21614104338823,-0.56470615,8.867801,4.3501515,0.0,0.0,0.0
21614106717834,-0.5694918,8.853444,4.3645086,0.0,0.0,0.0
21614109096844,-0.57906306,8.882157,4.3788652,0.0,0.0,0.0
21614111475802,-0.61734825,8.9108715,4.388437,0.0,0.0,0.0
21614113854813,-0.6412765,8.896515,4.402794,0.0,0.0,0.0
21614116233823,-0.6269195,8.867801,4.4075794,0.0,0.0,0.0
21614118612834,-0.63170516,8.886943,4.388437,0.0,0.0,0.0
21614120991844,-0.6125626,8.886943,4.3740797,0.0,0.0,0.0
21614123370854,-0.6221339,8.9013,4.369294,0.0,0.0,0.0
21614125749813,-0.6125626,8.882157,4.3501515,0.0,0.0,0.0
21614128128823,-0.6029913,8.872586,4.3405805,0.0,0.0,0.0
21614130507834,-0.57906306,8.882157,4.3262234,0.0,0.0,0.0
21614132886844,-0.55513483,8.85823,4.3405805,0.0,0.0,0.0
21614135265854,-0.53599226,8.853444,4.345366,0.0,0.0,0.0
21614137644813,-0.5072784,8.839087,4.331009,0.0,0.0,0.0
21614140023823,-0.5024927,8.829515,4.316652,0.0,0.0,0.0
21614142402834,-0.47377887,8.839087,4.287938,0.0,0.0,0.0
21614144781844,-0.4546363,8.867801,4.273581,0.0,0.0,0.0
21614147160854,-0.4546363,8.843872,4.2687955,0.0,0.0,0.0
21614149539865,-0.45942193,8.834301,4.273581,0.0,0.0,0.0
21614151918823,-0.43070808,8.848659,4.2831526,0.0,0.0,0.0
21614154297834,-0.44506502,8.85823,4.273581,0.0,0.0,0.0
21614156676844,-0.46899325,8.839087,4.2687955,0.0,0.0,0.0
21614159055854,-0.49292147,8.834301,4.249653,0.0,0.0,0.0
21614161434865,-0.4881358,8.819944,4.2352962,0.0,0.0,0.0
21614163813771,-0.4977071,8.819944,4.220939,0.0,0.0,0.0
21614166192834,-0.5312066,8.82473,4.23051,0.0,0.0,0.0
21614168571844,-0.53599226,8.843872,4.2257247,0.0,0.0,0.0
21614170950802,-0.5168497,8.839087,4.220939,0.0,0.0,0.0
21614173329865,-0.5312066,8.815159,4.220939,0.0,0.0,0.0
21614175708823,-0.52163535,8.834301,4.2257247,0.0,0.0,0.0
21614178087834,-0.4977071,8.82473,4.2017965,0.0,0.0,0.0
21614180466844,-0.46899325,8.829515,4.1922255,0.0,0.0,0.0
21614182845854,-0.4354937,8.815159,4.1922255,0.0,0.0,0.0
21614185224865,-0.40677986,8.82473,4.211368,0.0,0.0,0.0
21614187603875,-0.3493521,8.834301,4.211368,0.0,0.0,0.0
21614189982834,-0.30149564,8.843872,4.206582,0.0,0.0,0.0
21614192361844,-0.2536392,8.829515,4.1922255,0.0,0.0,0.0
21614194740854,-0.21535404,8.882157,4.1922255,0.0,0.0,0.0
21614197119865,-0.2009971,8.872586,4.1874394,0.0,0.0,0.0
21614199498875,-0.17706887,8.877372,4.206582,0.0,0.0,0.0
21614201877834,-0.124426775,8.867801,4.211368,0.0,0.0,0.0
21614204256844,-0.11964113,8.872586,4.220939,0.0,0.0,0.0
21614206635854,-0.13878371,8.877372,4.211368,0.0,0.0,0.0
21614209014865,-0.16271193,8.882157,4.240082,0.0,0.0,0.0
21614211393875,-0.16271193,8.882157,4.240082,0.0,0.0,0.0
21614213772886,-0.18185452,8.867801,4.254439,0.0,0.0,0.0
21614216151844,-0.23928227,8.853444,4.254439,0.0,0.0,0.0
21614218530854,-0.28713873,8.872586,4.273581,0.0,0.0,0.0
21614220909865,-0.3589234,8.9013,4.3070807,0.0,0.0,0.0
21614223288875,-0.3924229,8.925228,4.316652,0.0,0.0,0.0
21614225667886,-0.44506502,8.915657,4.3262234,0.0,0.0,0.0
21614228046844,-0.5024927,8.896515,4.3262234,0.0,0.0,0.0
21614230425854,-0.5312066,8.920443,4.331009,0.0,0.0,0.0
21614232804865,-0.57427746,8.920443,4.316652,0.0,0.0,0.0
21614235183875,-0.5838487,8.939586,4.3262234,0.0,0.0,0.0
21614237562886,-0.60777694,8.9348,4.3405805,0.0,0.0,0.0
21614239941896,-0.6221339,8.9108715,4.345366,0.0,0.0,0.0
21614242320854,-0.6269195,8.882157,4.3740797,0.0,0.0,0.0
21614244699865,-0.6221339,8.872586,4.4075794,0.0,0.0,0.0
21614247078875,-0.60777694,8.886943,4.426722,0.0,0.0,0.0
21614249457886,-0.59342,8.891729,4.4315076,0.0,0.0,0.0
21614251836896,-0.56470615,8.872586,4.4315076,0.0,0.0,0.0
21614254215854,-0.5407779,8.886943,4.421936,0.0,0.0,0.0
21614256594865,-0.53599226,8.891729,4.426722,0.0,0.0,0.0
21614258973875,-0.5072784,8.863015,4.4315076,0.0,0.0,0.0
21614261352886,-0.4881358,8.85823,4.436293,0.0,0.0,0.0
21614263731896,-0.4546363,8.848659,4.426722,0.0,0.0,0.0
21614266110906,-0.44506502,8.829515,4.4075794,0.0,0.0,0.0
21614268489865,-0.44506502,8.848659,4.398008,0.0,0.0,0.0
21614270868875,-0.4354937,8.843872,4.3740797,0.0,0.0,0.0
21614273247886,-0.43070808,8.819944,4.359723,0.0,0.0,0.0
21614275626584,-0.41635114,8.805588,4.3357944,0.0,0.0,0.0
21614278005906,-0.41156548,8.810373,4.321438,0.0,0.0,0.0
21614280384865,-0.39720857,8.805588,4.287938,0.0,0.0,0.0
21614282763875,-0.40677986,8.805588,4.278367,0.0,0.0,0.0
21614285142886,-0.3924229,8.810373,4.2687955,0.0,0.0,0.0
21614287521896,-0.40677986,8.82473,4.249653,0.0,0.0,0.0
21614289900854,-0.40677986,8.843872,4.254439,0.0,0.0,0.0
21614292279917,-0.3924229,8.848659,4.249653,0.0,0.0,0.0
21614294658875,-0.40677986,8.843872,4.254439,0.0,0.0,0.0
21614297037886,-0.41156548,8.863015,4.254439,0.0,0.0,0.0
21614299416896,-0.41156548,8.872586,4.2592244,0.0,0.0,0.0
21614301795906,-0.42592242,8.863015,4.2448673,0.0,0.0,0.0
21614304174865,-0.43070808,8.863015,4.254439,0.0,0.0,0.0
21614306553875,-0.44506502,8.877372,4.2257247,0.0,0.0,0.0
21614308932886,-0.44506502,8.891729,4.220939,0.0,0.0,0.0
21614311311896,-0.44985065,8.9108715,4.220939,0.0,0.0,0.0
21614313690906,-0.44506502,8.9013,4.2161536,0.0,0.0,0.0
21614316069917,-0.44506502,8.886943,4.2017965,0.0,0.0,0.0
21614318448927,-0.42592242,8.906086,4.2017965,0.0,0.0,0.0
21614320827886,-0.43070808,8.9108715,4.211368,0.0,0.0,0.0
21614323206896,-0.44506502,8.920443,4.211368,0.0,0.0,0.0
21614325585906,-0.47377887,8.9348,4.1922255,0.0,0.0,0.0
21614327964917,-0.44985065,8.920443,4.211368,0.0,0.0,0.0
21614330343927,-0.44027936,8.925228,4.206582,0.0,0.0,0.0
21614332722886,-0.44506502,8.9348,4.23051,0.0,0.0,0.0
21614335101896,-0.45942193,8.920443,4.278367,0.0,0.0,0.0
21614337480906,-0.44506502,8.930014,4.278367,0.0,0.0,0.0
21614339859917,-0.44027936,8.9348,4.2831526,0.0,0.0,0.0
21614342238927,-0.4354937,8.930014,4.302295,0.0,0.0,0.0
21614344617886,-0.4211368,8.9108715,4.3118663,0.0,0.0,0.0
21614346996896,-0.42592242,8.9108715,4.321438,0.0,0.0,0.0
21614349375906,-0.4211368,8.9013,4.331009,0.0,0.0,0.0
21614351754917,-0.38285163,8.930014,4.3405805,0.0,0.0,0.0
21614354133927,-0.35413775,8.915657,4.359723,0.0,0.0,0.0
21614356512938,-0.33020952,8.925228,4.369294,0.0,0.0,0.0
21614358891896,-0.3062813,8.906086,4.3740797,0.0,0.0,0.0
21614361270906,-0.29671,8.906086,4.3836513,0.0,0.0,0.0
21614363649917,-0.28235307,8.906086,4.388437,0.0,0.0,0.0
21614366028927,-0.25842485,8.896515,4.3788652,0.0,0.0,0.0
21614368407938,-0.22971097,8.896515,4.369294,0.0,0.0,0.0
21614370786896,-0.21535404,8.896515,4.359723,0.0,0.0,0.0
21614373165906,-0.2009971,8.925228,4.3501515,0.0,0.0,0.0
21614375544917,-0.2009971,8.920443,4.359723,0.0,0.0,0.0
21614377923927,-0.19621146,8.9013,4.3357944,0.0,0.0,0.0
21614380302938,-0.20578274,8.886943,4.3501515,0.0,0.0,0.0
21614382681948,-0.22492532,8.877372,4.354937,0.0,0.0,0.0
21614385060906,-0.22013968,8.872586,4.3357944,0.0,0.0,0.0
21614387439917,-0.24885355,8.877372,4.316652,0.0,0.0,0.0
21614389818927,-0.25842485,8.872586,4.302295,0.0,0.0,0.0
21614392197938,-0.27756742,8.882157,4.26401,0.0,0.0,0.0
21614394576948,-0.32063824,8.85823,4.2592244,0.0,0.0,0.0
21614396955959,-0.3397808,8.853444,4.273581,0.0,0.0,0.0
21614399334917,-0.37328035,8.867801,4.2448673,0.0,0.0,0.0
21614401713927,-0.37806597,8.853444,4.240082,0.0,0.0,0.0
21614404092938,-0.3924229,8.872586,4.220939,0.0,0.0,0.0
21614406471948,-0.41635114,8.85823,4.2257247,0.0,0.0,0.0
21614408850854,-0.44027936,8.863015,4.2017965,0.0,0.0,0.0
21614411229917,-0.4354937,8.85823,4.2161536,0.0,0.0,0.0
21614413608927,-0.43070808,8.863015,4.211368,0.0,0.0,0.0
21614415987938,-0.4211368,8.891729,4.220939,0.0,0.0,0.0
21614418366948,-0.40677986,8.877372,4.220939,0.0,0.0,0.0
21614420745959,-0.4019942,8.872586,4.2161536,0.0,0.0,0.0
21614423124917,-0.4019942,8.886943,4.2161536,0.0,0.0,0.0
21614425503927,-0.40677986,8.872586,4.2257247,0.0,0.0,0.0
21614427882938,-0.3924229,8.872586,4.23051,0.0,0.0,0.0
21614430261948,-0.37806597,8.85823,4.2592244,0.0,0.0,0.0
21614432640959,-0.34456646,8.853444,4.2831526,0.0,0.0,0.0
21614435019969,-0.37328035,8.848659,4.26401,0.0,0.0,0.0
21614437398927,-0.38763726,8.843872,4.2687955,0.0,0.0,0.0
21614439777886,-0.3397808,8.848659,4.2831526,0.0,0.0,0.0
21614442156948,-0.3397808,8.882157,4.302295,0.0,0.0,0.0
21614444535959,-0.3493521,8.848659,4.3070807,0.0,0.0,0.0
21614446914969,-0.37328035,8.848659,4.3357944,0.0,0.0,0.0
21614449293927,-0.37328035,8.834301,4.3405805,0.0,0.0,0.0
21614451672938,-0.39720857,8.839087,4.331009,0.0,0.0,0.0
21614454051948,-0.4019942,8.848659,4.321438,0.0,0.0,0.0
21614456430959,-0.3924229,8.853444,4.3118663,0.0,0.0,0.0
21614458809969,-0.41635114,8.872586,4.302295,0.0,0.0,0.0
21614461188927,-0.4354937,8.843872,4.302295,0.0,0.0,0.0
21614463567938,-0.4211368,8.834301,4.316652,0.0,0.0,0.0
21614465946948,-0.42592242,8.834301,4.302295,0.0,0.0,0.0
21614468325959,-0.41635114,8.863015,4.3070807,0.0,0.0,0.0
21614470704969,-0.42592242,8.882157,4.3118663,0.0,0.0,0.0
21614473083927,-0.40677986,8.882157,4.3262234,0.0,0.0,0.0
21614475462938,-0.4019942,8.863015,4.3262234,0.0,0.0,0.0
21614477841948,-0.4019942,8.863015,4.321438,0.0,0.0,0.0
21614480220959,-0.41156548,8.867801,4.316652,0.0,0.0,0.0
21614482599969,-0.39720857,8.882157,4.316652,0.0,0.0,0.0
21614484978979,-0.41156548,8.872586,4.3070807,0.0,0.0,0.0
21614487357938,-0.38763726,8.891729,4.3070807,0.0,0.0,0.0
21614489736948,-0.40677986,8.9108715,4.302295,0.0,0.0,0.0
21614492115959,-0.3924229,8.9108715,4.302295,0.0,0.0,0.0
21614494494969,-0.38285163,8.915657,4.2927237,0.0,0.0,0.0
21614496873979,-0.41156548,8.915657,4.26401,0.0,0.0,0.0
21614499252990,-0.42592242,8.9348,4.2592244,0.0,0.0,0.0
21614501631948,-0.43070808,8.9348,4.249653,0.0,0.0,0.0
21614504010959,-0.4354937,8.9013,4.240082,0.0,0.0,0.0
21614506389969,-0.44506502,8.896515,4.273581,0.0,0.0,0.0
21614508768979,-0.4546363,8.9108715,4.273581,0.0,0.0,0.0
21614511147990,-0.45942193,8.9108715,4.2448673,0.0,0.0,0.0
21614513526948,-0.47856453,8.9108715,4.2448673,0.0,0.0,0.0
21614515905959,-0.49292147,8.9013,4.254439,0.0,0.0,0.0
21614518284969,-0.47856453,8.906086,4.240082,0.0,0.0,0.0
21614520663979,-0.4881358,8.896515,4.2448673,0.0,0.0,0.0
21614523042990,-0.47377887,8.906086,4.249653,0.0,0.0,0.0
21614525422000,-0.44506502,8.9108715,4.2448673,0.0,0.0,0.0
21614527800959,-0.44027936,8.906086,4.2687955,0.0,0.0,0.0
21614530179969,-0.4211368,8.886943,4.2687955,0.0,0.0,0.0
21614532558979,-0.40677986,8.915657,4.273581,0.0,0.0,0.0
21614534937990,-0.3589234,8.915657,4.254439,0.0,0.0,0.0
21614537317000,-0.31585258,8.896515,4.2592244,0.0,0.0,0.0
21614539696011,-0.28713873,8.920443,4.278367,0.0,0.0,0.0
21614542074969,-0.2727818,8.896515,4.278367,0.0,0.0,0.0
21614544453979,-0.2536392,8.886943,4.278367,0.0,0.0,0.0
21614546832990,-0.25842485,8.9108715,4.2927237,0.0,0.0,0.0
21614549212000,-0.2440679,8.896515,4.273581,0.0,0.0,0.0
21614551591011,-0.2727818,8.886943,4.2831526,0.0,0.0,0.0
21614553969969,-0.29671,8.863015,4.2831526,0.0,0.0,0.0
21614556348979,-0.32542387,8.872586,4.2927237,0.0,0.0,0.0
21614558727990,-0.35413775,8.886943,4.302295,0.0,0.0,0.0
21614561107000,-0.38763726,8.877372,4.302295,0.0,0.0,0.0
21614563486011,-0.42592242,8.872586,4.2975097,0.0,0.0,0.0
21614565864969,-0.44027936,8.863015,4.302295,0.0,0.0,0.0
21614568243979,-0.4977071,8.877372,4.2927237,0.0,0.0,0.0
21614570622990,-0.5312066,8.886943,4.3118663,0.0,0.0,0.0
21614573002000,-0.5455636,8.896515,4.2927237,0.0,0.0,0.0
21614575381011,-0.5599205,8.906086,4.2927237,0.0,0.0,0.0
21614577760021,-0.56470615,8.906086,4.273581,0.0,0.0,0.0
21614580138979,-0.61734825,8.9013,4.287938,0.0,0.0,0.0
21614582517990,-0.61734825,8.925228,4.2975097,0.0,0.0,0.0
21614584897000,-0.5982057,8.906086,4.2831526,0.0,0.0,0.0
21614587276011,-0.5886344,8.915657,4.287938,0.0,0.0,0.0
21614589655021,-0.5599205,8.9108715,4.278367,0.0,0.0,0.0
21614592033979,-0.55034924,8.9108715,4.278367,0.0,0.0,0.0
21614594412990,-0.53599226,8.896515,4.26401,0.0,0.0,0.0
21614596792000,-0.4977071,8.877372,4.2687955,0.0,0.0,0.0
21614599171011,-0.46899325,8.877372,4.2687955,0.0,0.0,0.0
21614601550021,-0.46899325,8.882157,4.273581,0.0,0.0,0.0
21614603929031,-0.46899325,8.886943,4.273581,0.0,0.0,0.0
21614606307990,-0.45942193,8.877372,4.273581,0.0,0.0,0.0
21614608687000,-0.4642076,8.891729,4.273581,0.0,0.0,0.0
21614611066011,-0.46899325,8.882157,4.2831526,0.0,0.0,0.0
21614613445021,-0.4642076,8.9013,4.2687955,0.0,0.0,0.0
21614615824031,-0.46899325,8.915657,4.287938,0.0,0.0,0.0
21614618202990,-0.4546363,8.9013,4.273581,0.0,0.0,0.0
21614620582000,-0.4546363,8.9013,4.2687955,0.0,0.0,0.0
21614622961011,-0.44506502,8.906086,4.2927237,0.0,0.0,0.0
21614625340021,-0.44506502,8.882157,4.287938,0.0,0.0,0.0
21614627719031,-0.4546363,8.877372,4.2975097,0.0,0.0,0.0
21614630097990,-0.4642076,8.882157,4.302295,0.0,0.0,0.0
21614632476948,-0.4881358,8.867801,4.302295,0.0,0.0,0.0
21614634856011,-0.46899325,8.853444,4.2975097,0.0,0.0,0.0
21614637235021,-0.4546363,8.872586,4.316652,0.0,0.0,0.0
21614639614031,-0.4354937,8.877372,4.3070807,0.0,0.0,0.0
21614641993042,-0.4354937,8.863015,4.302295,0.0,0.0,0.0
21614644372000,-0.41156548,8.867801,4.321438,0.0,0.0,0.0
21614646751011,-0.41635114,8.863015,4.2927237,0.0,0.0,0.0
21614649129969,-0.4211368,8.863015,4.3118663,0.0,0.0,0.0
21614651509031,-0.4019942,8.872586,4.3118663,0.0,0.0,0.0
21614653888042,-0.40677986,8.867801,4.2975097,0.0,0.0,0.0
21614656267052,-0.43070808,8.872586,4.287938,0.0,0.0,0.0
21614658646011,-0.41635114,8.872586,4.287938,0.0,0.0,0.0
21614661025021,-0.42592242,8.863015,4.302295,0.0,0.0,0.0
21614663404031,-0.44506502,8.863015,4.2975097,0.0,0.0,0.0
21614665783042,-0.44985065,8.872586,4.278367,0.0,0.0,0.0
21614668162052,-0.47856453,8.886943,4.26401,0.0,0.0,0.0
21614670540959,-0.4977071,8.863015,4.26401,0.0,0.0,0.0
21614672920021,-0.47856453,8.85823,4.2687955,0.0,0.0,0.0
21614675299031,-0.52163535,8.872586,4.2687955,0.0,0.0,0.0
21614677678042,-0.55513483,8.85823,4.273581,0.0,0.0,0.0
21614680057052,-0.55034924,8.85823,4.302295,0.0,0.0,0.0
21614682436011,-0.53599226,8.877372,4.2975097,0.0,0.0,0.0
21614684814969,-0.51206404,8.85823,4.2831526,0.0,0.0,0.0
21614687194031,-0.52163535,8.867801,4.287938,0.0,0.0,0.0
21614689573042,-0.5168497,8.843872,4.2975097,0.0,0.0,0.0
21614691952052,-0.4881358,8.834301,4.2831526,0.0,0.0,0.0
21614694331063,-0.47377887,8.863015,4.2975097,0.0,0.0,0.0
21614696710021,-0.4546363,8.867801,4.273581,0.0,0.0,0.0
21614699089031,-0.43070808,8.853444,4.2687955,0.0,0.0,0.0
21614701468042,-0.40677986,8.85823,4.2592244,0.0,0.0,0.0
21614703847052,-0.38285163,8.886943,4.254439,0.0,0.0,0.0
21614706226063,-0.3589234,8.891729,4.2687955,0.0,0.0,0.0
21614708605073,-0.33020952,8.877372,4.2831526,0.0,0.0,0.0
21614710984031,-0.33020952,8.886943,4.278367,0.0,0.0,0.0
21614713363042,-0.32063824,8.872586,4.2831526,0.0,0.0,0.0
21614715742052,-0.31106696,8.891729,4.302295,0.0,0.0,0.0
21614718121063,-0.31585258,8.872586,4.3070807,0.0,0.0,0.0
21614720500073,-0.34456646,8.896515,4.3405805,0.0,0.0,0.0
21614722879031,-0.3589234,8.863015,4.3357944,0.0,0.0,0.0
21614725258042,-0.37806597,8.863015,4.3405805,0.0,0.0,0.0
21614727637052,-0.37328035,8.867801,4.321438,0.0,0.0,0.0
21614730016063,-0.39720857,8.877372,4.3357944,0.0,0.0,0.0
21614732395073,-0.4211368,8.872586,4.331009,0.0,0.0,0.0
21614734774084,-0.41635114,8.839087,4.3405805,0.0,0.0,0.0
21614737153042,-0.42592242,8.85823,4.3262234,0.0,0.0,0.0
21614739532052,-0.45942193,8.872586,4.3357944,0.0,0.0,0.0
21614741911063,-0.46899325,8.877372,4.3405805,0.0,0.0,0.0
21614744290073,-0.47377887,8.863015,4.3262234,0.0,0.0,0.0
21614746669084,-0.47377887,8.85823,4.3118663,0.0,0.0,0.0
21614749048042,-0.44985065,8.872586,4.316652,0.0,0.0,0.0
21614751427052,-0.44506502,8.877372,4.287938,0.0,0.0,0.0
21614753806063,-0.4354937,8.867801,4.2927237,0.0,0.0,0.0
21614756185073,-0.41635114,8.886943,4.2831526,0.0,0.0,0.0
21614758564084,-0.38285163,8.867801,4.2831526,0.0,0.0,0.0
21614760943042,-0.3684947,8.867801,4.278367,0.0,0.0,0.0
21614763322052,-0.3589234,8.877372,4.273581,0.0,0.0,0.0
21614765701063,-0.32542387,8.872586,4.273581,0.0,0.0,0.0
21614768080073,-0.32063824,8.85823,4.26401,0.0,0.0,0.0
21614770459084,-0.29671,8.843872,4.254439,0.0,0.0,0.0
21614772838094,-0.29192436,8.877372,4.26401,0.0,0.0,0.0
21614775217052,-0.2632105,8.877372,4.273581,0.0,0.0,0.0
21614777596063,-0.26799613,8.872586,4.2592244,0.0,0.0,0.0
21614779975073,-0.2632105,8.896515,4.2831526,0.0,0.0,0.0
21614782354084,-0.28235307,8.882157,4.254439,0.0,0.0,0.0
21614784733094,-0.27756742,8.9108715,4.240082,0.0,0.0,0.0
21614787112052,-0.29671,8.906086,4.23051,0.0,0.0,0.0
21614789491063,-0.29671,8.906086,4.254439,0.0,0.0,0.0
21614791870073,-0.30149564,8.9108715,4.26401,0.0,0.0,0.0
21614794249084,-0.35413775,8.920443,4.254439,0.0,0.0,0.0
21614796628094,-0.36370903,8.920443,4.2592244,0.0,0.0,0.0
21614799007104,-0.3589234,8.925228,4.2927237,0.0,0.0,0.0
21614801386063,-0.37806597,8.891729,4.302295,0.0,0.0,0.0
21614803765073,-0.37806597,8.872586,4.3118663,0.0,0.0,0.0
21614806144084,-0.4019942,8.85823,4.3118663,0.0,0.0,0.0
21614808523094,-0.4019942,8.867801,4.3070807,0.0,0.0,0.0
21614810902104,-0.43070808,8.877372,4.321438,0.0,0.0,0.0
21614813281115,-0.43070808,8.843872,4.3070807,0.0,0.0,0.0
21614815660073,-0.44985065,8.85823,4.316652,0.0,0.0,0.0
21614818039084,-0.4546363,8.834301,4.3118663,0.0,0.0,0.0
21614820418094,-0.4546363,8.85823,4.3070807,0.0,0.0,0.0
21614822797104,-0.47856453,8.891729,4.3118663,0.0,0.0,0.0
21614825176115,-0.4977071,8.872586,4.3357944,0.0,0.0,0.0
21614827555073,-0.51206404,8.877372,4.3357944,0.0,0.0,0.0
21614829934084,-0.5168497,8.863015,4.3357944,0.0,0.0,0.0
21614832313094,-0.526421,8.872586,4.3118663,0.0,0.0,0.0
21614834692104,-0.52163535,8.839087,4.321438,0.0,0.0,0.0
21614837071115,-0.53599226,8.829515,4.345366,0.0,0.0,0.0
21614839450073,-0.5599205,8.834301,4.3262234,0.0,0.0,0.0
21614841829084,-0.5407779,8.82473,4.316652,0.0,0.0,0.0
21614844208094,-0.5455636,8.843872,4.3070807,0.0,0.0,0.0
21614846587104,-0.53599226,8.839087,4.3070807,0.0,0.0,0.0
21614848966115,-0.5024927,8.863015,4.2927237,0.0,0.0,0.0
21614851345125,-0.47856453,8.839087,4.273581,0.0,0.0,0.0
21614853724084,-0.51206404,8.863015,4.2687955,0.0,0.0,0.0
21614856103094,-0.4642076,8.886943,4.273581,0.0,0.0,0.0
21614858482104,-0.41635114,8.891729,4.254439,0.0,0.0,0.0
21614860861115,-0.38763726,8.891729,4.2448673,0.0,0.0,0.0
21614863240125,-0.37328035,8.877372,4.2448673,0.0,0.0,0.0
21614865619136,-0.31106696,8.896515,4.2592244,0.0,0.0,0.0
21614867998094,-0.32542387,8.891729,4.249653,0.0,0.0,0.0
21614870377104,-0.3062813,8.9108715,4.2448673,0.0,0.0,0.0
21614872756115,-0.2727818,8.9013,4.240082,0.0,0.0,0.0
21614875135125,-0.23449662,8.896515,4.2592244,0.0,0.0,0.0
21614877514136,-0.22971097,8.896515,4.26401,0.0,0.0,0.0
21614879893146,-0.23449662,8.891729,4.273581,0.0,0.0,0.0
21614882272104,-0.22492532,8.886943,4.287938,0.0,0.0,0.0
21614884651115,-0.25842485,8.863015,4.273581,0.0,0.0,0.0
21614887030021,-0.25842485,8.853444,4.2687955,0.0,0.0,0.0
21614889409136,-0.2536392,8.853444,4.2687955,0.0,0.0,0.0
21614891788146,-0.2440679,8.877372,4.2687955,0.0,0.0,0.0
21614894167104,-0.27756742,8.872586,4.26401,0.0,0.0,0.0
21614896546115,-0.28235307,8.882157,4.273581,0.0,0.0,0.0
21614898925125,-0.28713873,8.882157,4.273581,0.0,0.0,0.0
21614901304136,-0.28235307,8.896515,4.26401,0.0,0.0,0.0
21614903683146,-0.32542387,8.906086,4.26401,0.0,0.0,0.0
21614906062104,-0.3493521,8.915657,4.278367,0.0,0.0,0.0
21614908441115,-0.35413775,8.939586,4.273581,0.0,0.0,0.0
21614910820125,-0.36370903,8.9013,4.254439,0.0,0.0,0.0
21614913199136,-0.3589234,8.9013,4.2687955,0.0,0.0,0.0
21614915578146,-0.3397808,8.915657,4.2592244,0.0,0.0,0.0
21614917957156,-0.3589234,8.939586,4.254439,0.0,0.0,0.0
21614920336115,-0.34456646,8.925228,4.240082,0.0,0.0,0.0
21614922715125,-0.3397808,8.9108715,4.254439,0.0,0.0,0.0
21614925094136,-0.3589234,8.9108715,4.2687955,0.0,0.0,0.0
21614927473146,-0.3684947,8.9108715,4.287938,0.0,0.0,0.0
21614929852156,-0.36370903,8.915657,4.2831526,0.0,0.0,0.0
21614932231115,-0.3493521,8.9108715,4.302295,0.0,0.0,0.0
21614934610125,-0.3397808,8.896515,4.2927237,0.0,0.0,0.0
21614936989136,-0.33499518,8.896515,4.2831526,0.0,0.0,0.0
21614939368146,-0.31585258,8.896515,4.2927237,0.0,0.0,0.0
21614941747156,-0.32542387,8.886943,4.2927237,0.0,0.0,0.0
21614944126167,-0.3062813,8.891729,4.273581,0.0,0.0,0.0
21614946505125,-0.28713873,8.896515,4.278367,0.0,0.0,0.0
21614948884136,-0.30149564,8.9108715,4.2687955,0.0,0.0,0.0
21614951263146,-0.27756742,8.915657,4.26401,0.0,0.0,0.0
21614953642156,-0.2632105,8.906086,4.2831526,0.0,0.0,0.0
21614956021167,-0.2440679,8.915657,4.26401,0.0,0.0,0.0
21614958400125,-0.23928227,8.906086,4.273581,0.0,0.0,0.0
21614960779136,-0.23928227,8.896515,4.278367,0.0,0.0,0.0
21614963158146,-0.22013968,8.906086,4.302295,0.0,0.0,0.0
21614965537156,-0.2440679,8.882157,4.316652,0.0,0.0,0.0
21614967916167,-0.2632105,8.886943,4.3262234,0.0,0.0,0.0
21614970295125,-0.28235307,8.872586,4.316652,0.0,0.0,0.0
21614972674136,-0.3062813,8.886943,4.316652,0.0,0.0,0.0
21614975053146,-0.33499518,8.867801,4.321438,0.0,0.0,0.0
21614977432156,-0.36370903,8.882157,4.321438,0.0,0.0,0.0
21614979811167,-0.3924229,8.85823,4.321438,0.0,0.0,0.0
21614982190177,-0.40677986,8.867801,4.3262234,0.0,0.0,0.0
21614984569188,-0.44506502,8.85823,4.321438,0.0,0.0,0.0
21614986948146,-0.4833502,8.863015,4.3262234,0.0,0.0,0.0
21614989327156,-0.52163535,8.877372,4.321438,0.0,0.0,0.0
21614991706167,-0.5599205,8.9013,4.3118663,0.0,0.0,0.0
21614994085177,-0.55034924,8.896515,4.3118663,0.0,0.0,0.0
21614996464188,-0.57427746,8.9013,4.2927237,0.0,0.0,0.0
21614998844761,-0.5982057,8.9013,4.3118663,0.0,0.0,0.0
21615001222156,-0.60777694,8.915657,4.321438,0.0,0.0,0.0
21615003601167,-0.6269195,8.896515,4.3070807,0.0,0.0,0.0
21615005980125,-0.60777694,8.906086,4.3070807,0.0,0.0,0.0
21615008359188,-0.5886344,8.9108715,4.2831526,0.0,0.0,0.0
21615010738198,-0.5886344,8.886943,4.2687955,0.0,0.0,0.0
21615013117156,-0.55513483,8.872586,4.249653,0.0,0.0,0.0
21615015496167,-0.51206404,8.867801,4.2352962,0.0,0.0,0.0
21615017875177,-0.5024927,8.877372,4.249653,0.0,0.0,0.0
21615020254136,-0.49292147,8.886943,4.249653,0.0,0.0,0.0
21615022633198,-0.46899325,8.867801,4.240082,0.0,0.0,0.0
21615025012156,-0.44027936,8.872586,4.240082,0.0,0.0,0.0
21615027391167,-0.44506502,8.867801,4.2448673,0.0,0.0,0.0
21615029770177,-0.43070808,8.891729,4.2448673,0.0,0.0,0.0
21615032149188,-0.43070808,8.882157,4.2592244,0.0,0.0,0.0
21615034528198,-0.42592242,8.896515,4.2687955,0.0,0.0,0.0
21615036907209,-0.4211368,8.896515,4.2592244,0.0,0.0,0.0
21615039286167,-0.41156548,8.863015,4.26401,0.0,0.0,0.0
21615041665177,-0.42592242,8.848659,4.287938,0.0,0.0,0.0
21615044044188,-0.4546363,8.867801,4.278367,0.0,0.0,0.0
21615046423198,-0.45942193,8.886943,4.287938,0.0,0.0,0.0
21615048802209,-0.5024927,8.915657,4.287938,0.0,0.0,0.0
21615051181167,-0.5072784,8.886943,4.278367,0.0,0.0,0.0
21615053560177,-0.526421,8.877372,4.2927237,0.0,0.0,0.0
21615055939188,-0.5455636,8.85823,4.2975097,0.0,0.0,0.0
21615058318198,-0.5599205,8.85823,4.302295,0.0,0.0,0.0
21615060697209,-0.5599205,8.872586,4.2927237,0.0,0.0,0.0
21615063076167,-0.56470615,8.882157,4.287938,0.0,0.0,0.0
21615065455177,-0.5694918,8.877372,4.2975097,0.0,0.0,0.0
21615067834188,-0.55513483,8.886943,4.287938,0.0,0.0,0.0
21615070213198,-0.55034924,8.882157,4.2975097,0.0,0.0,0.0
21615072592209,-0.55034924,8.877372,4.278367,0.0,0.0,0.0
21615074971219,-0.5599205,8.863015,4.2927237,0.0,0.0,0.0
21615077350229,-0.5694918,8.848659,4.2975097,0.0,0.0,0.0
21615079729188,-0.5694918,8.863015,4.287938,0.0,0.0,0.0
21615082108198,-0.5455636,8.877372,4.287938,0.0,0.0,0.0
21615084487209,-0.55513483,8.863015,4.278367,0.0,0.0,0.0
21615086866219,-0.5599205,8.853444,4.278367,0.0,0.0,0.0
21615089245229,-0.5312066,8.863015,4.254439,0.0,0.0,0.0
21615091624188,-0.53599226,8.834301,4.2687955,0.0,0.0,0.0
21615094003198,-0.52163535,8.853444,4.278367,0.0,0.0,0.0
21615096382209,-0.49292147,8.863015,4.287938,0.0,0.0,0.0
21615098761219,-0.4881358,8.85823,4.2975097,0.0,0.0,0.0
21615101140229,-0.49292147,8.867801,4.2975097,0.0,0.0,0.0
21615103519188,-0.5072784,8.848659,4.3118663,0.0,0.0,0.0
21615105898198,-0.4881358,8.853444,4.302295,0.0,0.0,0.0
21615108277209,-0.4642076,8.872586,4.2831526,0.0,0.0,0.0
21615110656219,-0.4354937,8.867801,4.278367,0.0,0.0,0.0
21615113035229,-0.43070808,8.886943,4.278367,0.0,0.0,0.0
21615115414240,-0.41156548,8.877372,4.287938,0.0,0.0,0.0
21615117793198,-0.37806597,8.872586,4.287938,0.0,0.0,0.0
21615120172209,-0.35413775,8.872586,4.2927237,0.0,0.0,0.0
21615122551219,-0.32063824,8.882157,4.302295,0.0,0.0,0.0
21615124930229,-0.31106696,8.863015,4.302295,0.0,0.0,0.0
21615127309240,-0.31106696,8.882157,4.2975097,0.0,0.0,0.0
21615129688198,-0.31585258,8.882157,4.3118663,0.0,0.0,0.0
21615132067209,-0.3062813,8.896515,4.3405805,0.0,0.0,0.0
21615134446219,-0.32063824,8.882157,4.3405805,0.0,0.0,0.0
21615136825229,-0.32542387,8.872586,4.345366,0.0,0.0,0.0
21615139204240,-0.32542387,8.85823,4.359723,0.0,0.0,0.0
21615141583250,-0.32542387,8.853444,4.3405805,0.0,0.0,0.0
21615143962209,-0.33499518,8.834301,4.331009,0.0,0.0,0.0
21615146341219,-0.3397808,8.843872,4.3405805,0.0,0.0,0.0
21615148720229,-0.3684947,8.839087,4.3501515,0.0,0.0,0.0
21615151099240,-0.3924229,8.839087,4.359723,0.0,0.0,0.0
21615153478250,-0.40677986,8.85823,4.3262234,0.0,0.0,0.0
21615155857209,-0.45942193,8.867801,4.3070807,0.0,0.0,0.0
21615158236219,-0.45942193,8.882157,4.2927237,0.0,0.0,0.0
21615160615229,-0.4833502,8.891729,4.2927237,0.0,0.0,0.0
21615162994240,-0.47856453,8.9013,4.3070807,0.0,0.0,0.0
21615165373250,-0.4833502,8.906086,4.316652,0.0,0.0,0.0
21615167752261,-0.47856453,8.9013,4.302295,0.0,0.0,0.0
21615170131219,-0.4642076,8.925228,4.278367,0.0,0.0,0.0
21615172510229,-0.44985065,8.925228,4.2687955,0.0,0.0,0.0
21615174889240,-0.42592242,8.9108715,4.26401,0.0,0.0,0.0
21615177268250,-0.4211368,8.9108715,4.278367,0.0,0.0,0.0
21615179647261,-0.3924229,8.925228,4.2592244,0.0,0.0,0.0
21615182026219,-0.38763726,8.9348,4.249653,0.0,0.0,0.0
21615184405229,-0.3684947,8.906086,4.2257247,0.0,0.0,0.0
21615186784240,-0.33499518,8.877372,4.254439,0.0,0.0,0.0
21615189163250,-0.3493521,8.872586,4.220939,0.0,0.0,0.0
21615191542261,-0.32063824,8.886943,4.2257247,0.0,0.0,0.0
21615193921271,-0.34456646,8.872586,4.2448673,0.0,0.0,0.0
21615196300229,-0.35413775,8.867801,4.254439,0.0,0.0,0.0
21615198679240,-0.36370903,8.867801,4.26401,0.0,0.0,0.0
21615201058250,-0.3589234,8.85823,4.2448673,0.0,0.0,0.0
21615203437261,-0.37806597,8.872586,4.249653,0.0,0.0,0.0
21615205816271,-0.4019942,8.877372,4.2448673,0.0,0.0,0.0
21615208195229,-0.41635114,8.872586,4.249653,0.0,0.0,0.0
21615210574240,-0.4354937,8.886943,4.26401,0.0,0.0,0.0
21615212953250,-0.4354937,8.896515,4.273581,0.0,0.0,0.0
21615215332209,-0.44506502,8.896515,4.287938,0.0,0.0,0.0
21615217711271,-0.45942193,8.877372,4.2975097,0.0,0.0,0.0
21615220090281,-0.44506502,8.863015,4.3118663,0.0,0.0,0.0
21615222469240,-0.45942193,8.867801,4.2975097,0.0,0.0,0.0
21615224848198,-0.4881358,8.85823,4.321438,0.0,0.0,0.0
21615227227261,-0.44506502,8.863015,4.3357944,0.0,0.0,0.0
21615229606271,-0.4019942,8.882157,4.316652,0.0,0.0,0.0
21615231985281,-0.41635114,8.886943,4.321438,0.0,0.0,0.0
21615234364240,-0.3924229,8.886943,4.321438,0.0,0.0,0.0
21615236743250,-0.41156548,8.891729,4.316652,0.0,0.0,0.0
21615239122261,-0.41156548,8.882157,4.316652,0.0,0.0,0.0
21615241501271,-0.3924229,8.886943,4.321438,0.0,0.0,0.0
21615243880281,-0.39720857,8.882157,4.3357944,0.0,0.0,0.0
21615246259292,-0.3684947,8.896515,4.3405805,0.0,0.0,0.0
21615248638250,-0.38763726,8.877372,4.3405805,0.0,0.0,0.0
21615251017261,-0.40677986,8.877372,4.3118663,0.0,0.0,0.0
21615253396271,-0.41156548,8.848659,4.3118663,0.0,0.0,0.0
21615255775281,-0.4354937,8.867801,4.3070807,0.0,0.0,0.0
21615258154292,-0.44027936,8.877372,4.2975097,0.0,0.0,0.0
21615260533250,-0.4642076,8.853444,4.3070807,0.0,0.0,0.0
21615262912261,-0.5168497,8.863015,4.2927237,0.0,0.0,0.0
21615265291271,-0.5455636,8.886943,4.3118663,0.0,0.0,0.0
21615267670281,-0.526421,8.896515,4.2975097,0.0,0.0,0.0
21615270049292,-0.5407779,8.882157,4.2831526,0.0,0.0,0.0
21615272428302,-0.5455636,8.886943,4.2927237,0.0,0.0,0.0
21615274807261,-0.5407779,8.867801,4.273581,0.0,0.0,0.0
21615277186271,-0.5455636,8.882157,4.26401,0.0,0.0,0.0
21615279565281,-0.526421,8.886943,4.2592244,0.0,0.0,0.0
21615281944292,-0.53599226,8.891729,4.273581,0.0,0.0,0.0
21615284323302,-0.5072784,8.886943,4.2592244,0.0,0.0,0.0
21615286702313,-0.47856453,8.896515,4.273581,0.0,0.0,0.0
21615289081271,-0.41635114,8.891729,4.2687955,0.0,0.0,0.0
21615291460281,-0.4019942,8.872586,4.249653,0.0,0.0,0.0
21615293839292,-0.38285163,8.848659,4.26401,0.0,0.0,0.0
21615296218302,-0.37328035,8.863015,4.2687955,0.0,0.0,0.0
21615298597313,-0.3589234,8.882157,4.2687955,0.0,0.0,0.0
21615300976323,-0.3493521,8.872586,4.273581,0.0,0.0,0.0
21615303355281,-0.34456646,8.872586,4.273581,0.0,0.0,0.0
21615305734292,-0.3397808,8.863015,4.26401,0.0,0.0,0.0
21615308113250,-0.3589234,8.877372,4.287938,0.0,0.0,0.0
21615310492313,-0.3493521,8.863015,4.302295,0.0,0.0,0.0
21615312871323,-0.37328035,8.867801,4.287938,0.0,0.0,0.0
21615315250281,-0.41156548,8.877372,4.278367,0.0,0.0,0.0
21615317629292,-0.44027936,8.85823,4.2831526,0.0,0.0,0.0
21615320008302,-0.4642076,8.872586,4.2831526,0.0,0.0,0.0
21615322387313,-0.4881358,8.834301,4.3070807,0.0,0.0,0.0
21615324766323,-0.526421,8.848659,4.3118663,0.0,0.0,0.0
21615327145281,-0.53599226,8.872586,4.302295,0.0,0.0,0.0
21615329524292,-0.5312066,8.882157,4.2975097,0.0,0.0,0.0
21615331903302,-0.5407779,8.872586,4.2975097,0.0,0.0,0.0
21615334282313,-0.55513483,8.863015,4.2975097,0.0,0.0,0.0
21615336661323,-0.57427746,8.867801,4.2927237,0.0,0.0,0.0
21615339040334,-0.56470615,8.85823,4.2975097,0.0,0.0,0.0
21615341419292,-0.5455636,8.863015,4.287938,0.0,0.0,0.0
21615343798302,-0.5407779,8.872586,4.2975097,0.0,0.0,0.0
21615346177313,-0.51206404,8.882157,4.287938,0.0,0.0,0.0
21615348556323,-0.49292147,8.877372,4.2975097,0.0,0.0,0.0
21615350935334,-0.4833502,8.877372,4.2927237,0.0,0.0,0.0
21615353314344,-0.44027936,8.872586,4.302295,0.0,0.0,0.0
