t_ns,ax,ay,az,bx,by,bz
28489730937283,0.9762716,8.963513,4.2017965,0.0,0.0,0.0
28489733314106,0.89491564,9.001799,4.125226,0.0,0.0,0.0
28489735693168,0.76570326,9.044869,3.8476589,0.0,0.0,0.0
28489738071085,0.59342,9.064013,3.574877,0.0,0.0,0.0
28489740451397,0.4833502,9.08794,3.5413775,0.0,0.0,0.0
28489742830512,0.44027936,9.08794,3.6897326,0.0,0.0,0.0
28489745209627,0.43070808,9.049655,3.9433718,0.0,0.0,0.0
28489747588741,0.4977071,9.035298,4.106084,0.0,0.0,0.0
28489749967856,0.57906306,9.049655,4.0869412,0.0,0.0,0.0
28489752346970,0.6221339,9.040084,3.9146578,0.0,0.0,0.0
28489754726085,0.66041905,9.059227,3.7088752,0.0,0.0,0.0
28489757105199,0.7513463,9.111869,3.5988052,0.0,0.0,0.0
28489759484262,0.83748794,9.073584,3.6610186,0.0,0.0,0.0
28489761863377,0.93320084,9.020942,3.7854455,0.0,0.0,0.0
28489764242491,1.0049855,9.035298,3.9433718,0.0,0.0,0.0
28489766621606,1.0671989,9.035298,3.9625144,0.0,0.0,0.0
28489769000720,1.0624132,9.044869,3.8907297,0.0,0.0,0.0
28489771379835,1.0336994,9.059227,3.7471602,0.0,0.0,0.0
28489773758949,0.9762716,9.092726,3.656233,0.0,0.0,0.0
28489776138064,0.9092726,9.083155,3.6658044,0.0,0.0,0.0
28489778517179,0.82313097,9.049655,3.7663028,0.0,0.0,0.0
28489780896241,0.7322037,9.059227,3.8955152,0.0,0.0,0.0
28489783275356,0.66041905,9.083155,3.9577286,0.0,0.0,0.0
28489785654470,0.5982057,9.078369,3.9242291,0.0,0.0,0.0
28489788033585,0.5312066,9.097511,3.8668015,0.0,0.0,0.0
28489790412647,0.52163535,9.111869,3.8141594,0.0,0.0,0.0
28489792791762,0.5072784,9.116654,3.7950168,0.0,0.0,0.0
28489795170929,0.5168497,9.102298,3.8237305,0.0,0.0,0.0
28489797550043,0.55034924,9.107083,3.885944,0.0,0.0,0.0
28489799929158,0.5982057,9.116654,3.9577286,0.0,0.0,0.0
28489802308220,0.66041905,9.073584,3.938586,0.0,0.0,0.0
28489804687335,0.7322037,9.0544405,3.8763726,0.0,0.0,0.0
28489807066449,0.7752745,9.092726,3.8093736,0.0,0.0,0.0
28489809445564,0.8279166,9.078369,3.790231,0.0,0.0,0.0
28489811824679,0.8470592,9.040084,3.7854455,0.0,0.0,0.0
28489814203793,0.89491564,9.044869,3.8333018,0.0,0.0,0.0
28489816582908,0.90448695,9.035298,3.8668015,0.0,0.0,0.0
28489818962022,0.89013004,9.030513,3.871587,0.0,0.0,0.0
28489821341137,0.86141616,9.040084,3.8476589,0.0,0.0,0.0
28489823720199,0.83748794,9.059227,3.7950168,0.0,0.0,0.0
28489826099314,0.7848458,9.064013,3.7758741,0.0,0.0,0.0
28489828478429,0.7369894,9.064013,3.790231,0.0,0.0,0.0
28489830857543,0.7082755,9.0544405,3.8476589,0.0,0.0,0.0
28489833236658,0.66999036,9.049655,3.885944,0.0,0.0,0.0
28489835615772,0.6556334,9.059227,3.9146578,0.0,0.0,0.0
28489837994887,0.64606214,9.064013,3.8955152,0.0,0.0,0.0
28489840374002,0.6125626,9.083155,3.8811584,0.0,0.0,0.0
28489842753116,0.61734825,9.083155,3.8380876,0.0,0.0,0.0
28489845132231,0.6412765,9.073584,3.8285162,0.0,0.0,0.0
28489847511293,0.6652047,9.059227,3.842873,0.0,0.0,0.0
28489849890408,0.6987042,9.064013,3.8476589,0.0,0.0,0.0
28489852269522,0.76570326,9.064013,3.8620157,0.0,0.0,0.0
28489854648637,0.8039884,9.059227,3.8811584,0.0,0.0,0.0
28489857027752,0.8470592,9.068798,3.8524444,0.0,0.0,0.0
28489859406866,0.89013004,9.044869,3.8141594,0.0,0.0,0.0
28489861785981,0.90448695,9.040084,3.8093736,0.0,0.0,0.0
28489864165095,0.8853444,9.035298,3.7950168,0.0,0.0,0.0
28489866544210,0.8805587,9.040084,3.8237305,0.0,0.0,0.0
28489868923272,0.8662018,9.059227,3.8285162,0.0,0.0,0.0
28489871302387,0.8470592,9.059227,3.8333018,0.0,0.0,0.0
28489873681502,0.82313097,9.059227,3.8237305,0.0,0.0,0.0
28489876060616,0.79920274,9.064013,3.804588,0.0,0.0,0.0
28489878439731,0.76570326,9.0544405,3.7950168,0.0,0.0,0.0
28489880818845,0.7322037,9.0544405,3.8093736,0.0,0.0,0.0
28489883197960,0.6891329,9.068798,3.8141594,0.0,0.0,0.0
28489885577074,0.6652047,9.083155,3.8141594,0.0,0.0,0.0
28489887956189,0.6939186,9.073584,3.7998023,0.0,0.0,0.0
28489890335304,0.6939186,9.035298,3.7998023,0.0,0.0,0.0
28489892714366,0.6843473,9.0544405,3.790231,0.0,0.0,0.0
28489895093481,0.6891329,9.064013,3.7950168,0.0,0.0,0.0
28489897472595,0.6939186,9.059227,3.7998023,0.0,0.0,0.0
28489899851710,0.7322037,9.0544405,3.7806597,0.0,0.0,0.0
28489902230824,0.75613195,9.0544405,3.7854455,0.0,0.0,0.0
28489904609939,0.7752745,9.035298,3.7854455,0.0,0.0,0.0
28489906989054,0.8279166,9.044869,3.7854455,0.0,0.0,0.0
28489909368168,0.9092726,8.9826565,3.7328033,0.0,0.0,0.0
28489911747283,1.0289137,9.064013,3.6993039,0.0,0.0,0.0
28489914126397,0.93320084,9.250652,3.7998023,0.0,0.0,0.0
28489916505460,0.7800602,8.872586,3.7567315,0.0,0.0,0.0
28489918884574,0.9619147,8.915657,3.7423747,0.0,0.0,0.0
28489921263689,0.9092726,9.346365,3.8620157,0.0,0.0,0.0
28489923642804,0.7082755,9.12144,3.737589,0.0,0.0,0.0
28489926021866,0.67477596,8.85823,3.7184465,0.0,0.0,0.0
28489928401033,0.74177504,9.12144,3.7998023,0.0,0.0,0.0
28489930780147,0.65084773,9.312865,3.885944,0.0,0.0,0.0
28489933159262,0.5455636,8.997013,3.8285162,0.0,0.0,0.0
28489935538377,0.5838487,8.944371,3.8285162,0.0,0.0,0.0
28489937917439,0.5982057,9.250652,3.8333018,0.0,0.0,0.0
28489940296554,0.57906306,9.174082,3.804588,0.0,0.0,0.0
28489942675668,0.5982057,8.949157,3.7567315,0.0,0.0,0.0
28489945054783,0.61734825,9.107083,3.8093736,0.0,0.0,0.0
28489947433897,0.64606214,9.236296,3.8333018,0.0,0.0,0.0
28489949813012,0.7178468,9.025727,3.7998023,0.0,0.0,0.0
28489952192127,0.7896315,9.01137,3.7758741,0.0,0.0,0.0
28489954571241,0.81834537,9.159725,3.7950168,0.0,0.0,0.0
28489956950356,0.83748794,9.097511,3.7758741,0.0,0.0,0.0
28489959329470,0.89491564,8.997013,3.7567315,0.0,0.0,0.0
28489961708533,0.8997013,9.083155,3.790231,0.0,0.0,0.0
28489964087647,0.8470592,9.12144,3.8093736,0.0,0.0,0.0
28489966466762,0.8566305,9.006584,3.8093736,0.0,0.0,0.0
28489968845877,0.8422736,9.020942,3.7950168,0.0,0.0,0.0
28489971224991,0.8039884,9.102298,3.804588,0.0,0.0,0.0
28489973604054,0.79441714,9.064013,3.790231,0.0,0.0,0.0
28489975983220,0.76570326,9.030513,3.790231,0.0,0.0,0.0
28489978362335,0.7322037,9.08794,3.8524444,0.0,0.0,0.0
28489980741449,0.71306115,9.08794,3.8620157,0.0,0.0,0.0
28489983120564,0.71306115,9.006584,3.8476589,0.0,0.0,0.0
28489985499679,0.6939186,9.064013,3.8285162,0.0,0.0,0.0
28489987878793,0.66999036,9.097511,3.8333018,0.0,0.0,0.0
28489990257856,0.67477596,9.044869,3.8380876,0.0,0.0,0.0
28489992636970,0.7082755,9.020942,3.818945,0.0,0.0,0.0
28489995016085,0.7322037,9.0544405,3.8285162,0.0,0.0,0.0
28489997395199,0.74177504,9.0544405,3.8476589,0.0,0.0,0.0
28489999774314,0.7609176,9.025727,3.842873,0.0,0.0,0.0
28490002153429,0.7465607,9.035298,3.8476589,0.0,0.0,0.0
28490004532543,0.7465607,9.064013,3.8572302,0.0,0.0,0.0
28490006911658,0.7465607,9.040084,3.842873,0.0,0.0,0.0
28490009290772,0.7465607,9.020942,3.8380876,0.0,0.0,0.0
28490011669835,0.72741807,9.064013,3.8572302,0.0,0.0,0.0
28490014048949,0.71306115,9.040084,3.8476589,0.0,0.0,0.0
28490016428064,0.7178468,9.025727,3.8572302,0.0,0.0,0.0
28490018807179,0.6795616,9.0544405,3.8572302,0.0,0.0,0.0
28490021186293,0.6939186,9.068798,3.871587,0.0,0.0,0.0
28490023565408,0.66999036,9.044869,3.8620157,0.0,0.0,0.0
28490025944522,0.67477596,9.040084,3.871587,0.0,0.0,0.0
28490028323637,0.6843473,9.064013,3.885944,0.0,0.0,0.0
28490030702752,0.6939186,9.025727,3.885944,0.0,0.0,0.0
28490033081866,0.7178468,9.035298,3.900301,0.0,0.0,0.0
28490035460981,0.7082755,9.064013,3.900301,0.0,0.0,0.0
28490037840043,0.7082755,9.044869,3.900301,0.0,0.0,0.0
28490040219158,0.7369894,9.040084,3.885944,0.0,0.0,0.0
28490042598272,0.7322037,9.035298,3.885944,0.0,0.0,0.0
28490044977387,0.7513463,9.035298,3.8811584,0.0,0.0,0.0
28490047356502,0.7800602,9.030513,3.885944,0.0,0.0,0.0
28490049735616,0.7800602,9.035298,3.8955152,0.0,0.0,0.0
28490052114731,0.7752745,9.025727,3.9098723,0.0,0.0,0.0
28490054493845,0.7752745,9.035298,3.9050865,0.0,0.0,0.0
28490056872960,0.75613195,9.040084,3.885944,0.0,0.0,0.0
28490059252074,0.7848458,9.025727,3.871587,0.0,0.0,0.0
28490061631189,0.7896315,9.040084,3.8907297,0.0,0.0,0.0
28490064010304,0.79441714,9.025727,3.900301,0.0,0.0,0.0
28490066389366,0.7800602,9.030513,3.9194436,0.0,0.0,0.0
28490068768481,0.7752745,9.016156,3.8955152,0.0,0.0,0.0
28490071147595,0.75613195,9.030513,3.900301,0.0,0.0,0.0
28490073526710,0.75613195,9.049655,3.900301,0.0,0.0,0.0
28490075905824,0.7465607,9.035298,3.8907297,0.0,0.0,0.0
28490078284939,0.7369894,9.025727,3.8955152,0.0,0.0,0.0
28490080664054,0.70348984,9.016156,3.9098723,0.0,0.0,0.0
28490083043168,0.70348984,9.01137,3.9194436,0.0,0.0,0.0
28490085422283,0.7082755,9.035298,3.9242291,0.0,0.0,0.0
28490087801397,0.70348984,9.016156,3.9242291,0.0,0.0,0.0
28490090180460,0.6652047,9.016156,3.9146578,0.0,0.0,0.0
28490092559574,0.6843473,9.01137,3.9050865,0.0,0.0,0.0
28490094938689,0.6939186,9.020942,3.900301,0.0,0.0,0.0
28490097317804,0.70348984,9.020942,3.9050865,0.0,0.0,0.0
28490099696918,0.7082755,9.035298,3.8907297,0.0,0.0,0.0
28490102076033,0.7369894,9.044869,3.8763726,0.0,0.0,0.0
28490104455147,0.79920274,9.020942,3.8811584,0.0,0.0,0.0
28490106834262,0.8327023,9.035298,3.8811584,0.0,0.0,0.0
28490109213377,0.8709874,9.044869,3.8811584,0.0,0.0,0.0
28490111592491,0.8997013,9.040084,3.8907297,0.0,0.0,0.0
28490113971606,0.94755775,9.044869,3.8955152,0.0,0.0,0.0
28490116350668,0.95712906,9.030513,3.8907297,0.0,0.0,0.0
28490118729783,0.93320084,9.040084,3.8763726,0.0,0.0,0.0
28490121108897,0.8997013,9.030513,3.8524444,0.0,0.0,0.0
28490123488012,0.8709874,9.016156,3.842873,0.0,0.0,0.0
28490125867127,0.82313097,9.001799,3.8524444,0.0,0.0,0.0
28490128246241,0.80877405,9.025727,3.8811584,0.0,0.0,0.0
28490130625356,0.7513463,9.035298,3.885944,0.0,0.0,0.0
28490133004470,0.6987042,9.030513,3.900301,0.0,0.0,0.0
28490135383585,0.66999036,9.020942,3.8763726,0.0,0.0,0.0
28490137762699,0.6364908,9.030513,3.885944,0.0,0.0,0.0
28490140141814,0.6029913,9.035298,3.8572302,0.0,0.0,0.0
28490142520877,0.6125626,9.083155,3.8476589,0.0,0.0,0.0
28490144899991,0.6364908,9.049655,3.8668015,0.0,0.0,0.0
28490147279106,0.67477596,9.040084,3.8620157,0.0,0.0,0.0
28490149658220,0.71306115,9.059227,3.871587,0.0,0.0,0.0
28490152037335,0.7369894,9.059227,3.8763726,0.0,0.0,0.0
28490154416397,0.8039884,9.0544405,3.8572302,0.0,0.0,0.0
28490156795564,0.8422736,9.064013,3.8476589,0.0,0.0,0.0
28490159174679,0.8709874,9.059227,3.8380876,0.0,0.0,0.0
28490161553793,0.89013004,9.025727,3.8380876,0.0,0.0,0.0
28490163932908,0.8997013,9.016156,3.8476589,0.0,0.0,0.0
28490166312022,0.9092726,9.030513,3.8380876,0.0,0.0,0.0
28490168691137,0.90448695,9.040084,3.8380876,0.0,0.0,0.0
28490171070199,0.89013004,9.035298,3.8285162,0.0,0.0,0.0
28490173449314,0.86141616,9.040084,3.8285162,0.0,0.0,0.0
28490175828429,0.83748794,9.044869,3.8285162,0.0,0.0,0.0
28490178207543,0.8039884,9.0544405,3.842873,0.0,0.0,0.0
28490180586658,0.7800602,9.068798,3.8524444,0.0,0.0,0.0
28490182965772,0.74177504,9.049655,3.8380876,0.0,0.0,0.0
28490185344887,0.71306115,9.059227,3.842873,0.0,0.0,0.0
28490187724002,0.66999036,9.068798,3.8380876,0.0,0.0,0.0
28490190103116,0.6939186,9.064013,3.8285162,0.0,0.0,0.0
28490192482231,0.6939186,9.059227,3.8285162,0.0,0.0,0.0
28490194861293,0.7178468,9.073584,3.8093736,0.0,0.0,0.0
28490197240408,0.7465607,9.059227,3.804588,0.0,0.0,0.0
28490199619522,0.7465607,9.044869,3.8141594,0.0,0.0,0.0
28490201998637,0.7800602,9.064013,3.804588,0.0,0.0,0.0
28490204377752,0.80877405,9.073584,3.804588,0.0,0.0,0.0
28490206756866,0.80877405,9.078369,3.790231,0.0,0.0,0.0
28490209135981,0.81834537,9.035298,3.804588,0.0,0.0,0.0
28490211515095,0.8135597,9.035298,3.7854455,0.0,0.0,0.0
28490213894210,0.79920274,9.044869,3.7950168,0.0,0.0,0.0
28490216273324,0.79441714,9.040084,3.8093736,0.0,0.0,0.0
28490218652439,0.79920274,9.044869,3.8141594,0.0,0.0,0.0
28490221031554,0.7848458,9.059227,3.8141594,0.0,0.0,0.0
28490223410616,0.7465607,9.064013,3.818945,0.0,0.0,0.0
28490225789731,0.7082755,9.073584,3.8141594,0.0,0.0,0.0
28490228168845,0.6843473,9.078369,3.7998023,0.0,0.0,0.0
28490230547960,0.6795616,9.073584,3.8141594,0.0,0.0,0.0
28490232927074,0.6652047,9.068798,3.818945,0.0,0.0,0.0
28490235306189,0.63170516,9.059227,3.8141594,0.0,0.0,0.0
28490237685304,0.6364908,9.08794,3.8093736,0.0,0.0,0.0
28490240064418,0.66999036,9.078369,3.790231,0.0,0.0,0.0
28490242443533,0.6939186,9.073584,3.7854455,0.0,0.0,0.0
28490244822647,0.70348984,9.073584,3.790231,0.0,0.0,0.0
28490247201762,0.7082755,9.08794,3.8093736,0.0,0.0,0.0
28490249580877,0.75613195,9.083155,3.8093736,0.0,0.0,0.0
28490251959939,0.76570326,9.078369,3.790231,0.0,0.0,0.0
28490254339054,0.7752745,9.078369,3.7663028,0.0,0.0,0.0
28490256718168,0.7848458,9.092726,3.7710886,0.0,0.0,0.0
28490259097283,0.79920274,9.097511,3.7854455,0.0,0.0,0.0
28490261476397,0.7848458,9.107083,3.8141594,0.0,0.0,0.0
28490263855512,0.7848458,9.107083,3.7950168,0.0,0.0,0.0
28490266234627,0.79920274,9.107083,3.790231,0.0,0.0,0.0
28490268613741,0.7752745,9.08794,3.7806597,0.0,0.0,0.0
28490270992856,0.7896315,9.08794,3.7806597,0.0,0.0,0.0
28490273371970,0.7752745,9.083155,3.790231,0.0,0.0,0.0
28490275751085,0.7513463,9.059227,3.790231,0.0,0.0,0.0
28490278130199,0.75613195,9.073584,3.8141594,0.0,0.0,0.0
28490280509262,0.75613195,9.073584,3.804588,0.0,0.0,0.0
28490282888377,0.75613195,9.068798,3.8285162,0.0,0.0,0.0
28490285267491,0.7513463,9.044869,3.8141594,0.0,0.0,0.0
28490287646606,0.7896315,9.068798,3.8237305,0.0,0.0,0.0
28490290025720,0.8135597,9.083155,3.8093736,0.0,0.0,0.0
28490292404783,0.76570326,9.083155,3.818945,0.0,0.0,0.0
28490294783949,0.7752745,9.073584,3.818945,0.0,0.0,0.0
28490297163064,0.79441714,9.059227,3.8285162,0.0,0.0,0.0
28490299542179,0.80877405,9.0544405,3.818945,0.0,0.0,0.0
28490301921293,0.7800602,9.059227,3.8333018,0.0,0.0,0.0
28490304300408,0.7513463,9.073584,3.8333018,0.0,0.0,0.0
28490306679522,0.7609176,9.073584,3.8380876,0.0,0.0,0.0
28490309058533,0.7513463,9.035298,3.8285162,0.0,0.0,0.0
28490311437699,0.7322037,9.049655,3.8380876,0.0,0.0,0.0
28490313816814,0.7082755,9.040084,3.8620157,0.0,0.0,0.0
28490316195929,0.6843473,9.049655,3.8524444,0.0,0.0,0.0
28490318575043,0.67477596,9.049655,3.8524444,0.0,0.0,0.0
28490320954158,0.6652047,9.025727,3.842873,0.0,0.0,0.0
28490323333272,0.64606214,9.040084,3.8524444,0.0,0.0,0.0
28490325712387,0.64606214,9.040084,3.8572302,0.0,0.0,0.0
28490328091502,0.65084773,9.030513,3.8476589,0.0,0.0,0.0
28490330470616,0.67477596,9.044869,3.8524444,0.0,0.0,0.0
28490332849731,0.6987042,9.044869,3.8620157,0.0,0.0,0.0
28490335228845,0.7369894,9.059227,3.8811584,0.0,0.0,0.0
28490337607908,0.7465607,9.068798,3.8763726,0.0,0.0,0.0
28490339987022,0.76570326,9.044869,3.8572302,0.0,0.0,0.0
28490342366137,0.7800602,9.044869,3.8572302,0.0,0.0,0.0
28490344745252,0.8039884,9.040084,3.8524444,0.0,0.0,0.0
28490347124366,0.8039884,9.035298,3.8380876,0.0,0.0,0.0
28490349503481,0.79920274,9.049655,3.842873,0.0,0.0,0.0
28490351882595,0.79920274,9.035298,3.8524444,0.0,0.0,0.0
28490354261710,0.7848458,9.025727,3.8620157,0.0,0.0,0.0
28490356640824,0.7465607,9.049655,3.8476589,0.0,0.0,0.0
28490359019939,0.72263247,9.040084,3.8476589,0.0,0.0,0.0
28490361399054,0.71306115,9.044869,3.8572302,0.0,0.0,0.0
28490363778168,0.6843473,9.040084,3.8572302,0.0,0.0,0.0
28490366157283,0.65084773,9.078369,3.8668015,0.0,0.0,0.0
28490368536345,0.65084773,9.083155,3.8524444,0.0,0.0,0.0
28490370915460,0.65084773,9.0544405,3.8572302,0.0,0.0,0.0
28490373294574,0.6652047,9.040084,3.8572302,0.0,0.0,0.0
28490375673689,0.67477596,9.044869,3.8620157,0.0,0.0,0.0
28490378052804,0.72263247,9.035298,3.8572302,0.0,0.0,0.0
28490380431918,0.7609176,9.025727,3.8572302,0.0,0.0,0.0
28490382811033,0.7752745,9.025727,3.8476589,0.0,0.0,0.0
28490385190147,0.79441714,9.040084,3.8333018,0.0,0.0,0.0
28490387569262,0.81834537,9.044869,3.8333018,0.0,0.0,0.0
28490389948377,0.8470592,9.044869,3.8237305,0.0,0.0,0.0
28490392327491,0.8566305,9.044869,3.818945,0.0,0.0,0.0
28490394706606,0.8279166,9.059227,3.8237305,0.0,0.0,0.0
28490397085720,0.8135597,9.049655,3.818945,0.0,0.0,0.0
28490399464783,0.79441714,9.0544405,3.8285162,0.0,0.0,0.0
28490401843897,0.7800602,9.068798,3.8141594,0.0,0.0,0.0
28490404223012,0.75613195,9.064013,3.8237305,0.0,0.0,0.0
28490406602127,0.7082755,9.0544405,3.8333018,0.0,0.0,0.0
28490408981241,0.7082755,9.049655,3.8285162,0.0,0.0,0.0
28490411360356,0.71306115,9.030513,3.8285162,0.0,0.0,0.0
28490413739470,0.72263247,9.049655,3.842873,0.0,0.0,0.0
28490416118585,0.7369894,9.049655,3.842873,0.0,0.0,0.0
28490418497699,0.74177504,9.059227,3.8620157,0.0,0.0,0.0
28490420876814,0.7609176,9.035298,3.8380876,0.0,0.0,0.0
28490423255929,0.7609176,9.068798,3.818945,0.0,0.0,0.0
28490425635043,0.7800602,9.059227,3.818945,0.0,0.0,0.0
28490428014158,0.80877405,9.0544405,3.8093736,0.0,0.0,0.0
28490430393220,0.79920274,9.044869,3.818945,0.0,0.0,0.0
28490432772335,0.83748794,9.025727,3.8093736,0.0,0.0,0.0
28490435151449,0.85184485,9.044869,3.8141594,0.0,0.0,0.0
28490437530564,0.85184485,9.049655,3.804588,0.0,0.0,0.0
28490439909679,0.8566305,9.059227,3.7998023,0.0,0.0,0.0
28490442288793,0.8566305,9.049655,3.7950168,0.0,0.0,0.0
28490444667908,0.86141616,9.049655,3.7950168,0.0,0.0,0.0
28490447047022,0.81834537,9.044869,3.8093736,0.0,0.0,0.0
28490449426137,0.81834537,9.068798,3.804588,0.0,0.0,0.0
28490451805252,0.79441714,9.064013,3.804588,0.0,0.0,0.0
28490454184366,0.7800602,9.073584,3.804588,0.0,0.0,0.0
28490456563481,0.7752745,9.073584,3.7998023,0.0,0.0,0.0
28490458942595,0.7848458,9.0544405,3.7854455,0.0,0.0,0.0
28490461321658,0.7896315,9.049655,3.804588,0.0,0.0,0.0
28490463700772,0.79441714,9.035298,3.7950168,0.0,0.0,0.0
28490466079887,0.7848458,9.035298,3.7998023,0.0,0.0,0.0
28490468459002,0.7704889,9.044869,3.7854455,0.0,0.0,0.0
28490470838116,0.7752745,9.064013,3.7710886,0.0,0.0,0.0
28490473217231,0.79441714,9.078369,3.7663028,0.0,0.0,0.0
28490475596345,0.79441714,9.068798,3.7663028,0.0,0.0,0.0
28490477975460,0.8039884,9.049655,3.7567315,0.0,0.0,0.0
28490480354574,0.81834537,9.044869,3.7806597,0.0,0.0,0.0
28490482733689,0.8135597,9.078369,3.7950168,0.0,0.0,0.0
28490485112804,0.8279166,9.068798,3.7998023,0.0,0.0,0.0
28490487491918,0.80877405,9.073584,3.7950168,0.0,0.0,0.0
28490489871033,0.7513463,9.097511,3.8285162,0.0,0.0,0.0
28490492250147,0.5982057,9.116654,3.7806597,0.0,0.0,0.0
28490494629210,0.6125626,9.049655,3.7423747,0.0,0.0,0.0
28490497008324,0.61734825,9.097511,3.8093736,0.0,0.0,0.0
28490499387387,0.5072784,9.169296,3.8380876,0.0,0.0,0.0
28490501766554,0.5168497,9.131011,3.8620157,0.0,0.0,0.0
28490504145668,0.59342,9.08794,3.8380876,0.0,0.0,0.0
28490506524783,0.6029913,9.150154,3.8285162,0.0,0.0,0.0
28490508903897,0.6029913,9.164511,3.7806597,0.0,0.0,0.0
28490511283012,0.67477596,9.097511,3.7615173,0.0,0.0,0.0
28490513662127,0.6891329,9.097511,3.7710886,0.0,0.0,0.0
28490516041241,0.67477596,9.135797,3.7854455,0.0,0.0,0.0
28490518420356,0.7513463,9.12144,3.8093736,0.0,0.0,0.0
28490520799470,0.7704889,9.068798,3.7950168,0.0,0.0,0.0
28490523178585,0.76570326,9.092726,3.804588,0.0,0.0,0.0
28490525557699,0.7465607,9.111869,3.7663028,0.0,0.0,0.0
28490527936762,0.7322037,9.083155,3.7184465,0.0,0.0,0.0
28490530315877,0.6939186,9.083155,3.7328033,0.0,0.0,0.0
28490532694991,0.6843473,9.097511,3.7615173,0.0,0.0,0.0
28490535074106,0.6652047,9.083155,3.7710886,0.0,0.0,0.0
28490537453220,0.6364908,9.102298,3.8237305,0.0,0.0,0.0
28490539832335,0.57906306,9.135797,3.8237305,0.0,0.0,0.0
28490542211449,0.5312066,9.111869,3.7471602,0.0,0.0,0.0
28490544590564,0.5838487,9.08794,3.6658044,0.0,0.0,0.0
28490546969679,0.60777694,9.116654,3.6466618,0.0,0.0,0.0
28490549348793,0.6029913,9.102298,3.694518,0.0,0.0,0.0
28490551727908,0.64606214,9.08794,3.7663028,0.0,0.0,0.0
28490554107022,0.6795616,9.073584,3.8093736,0.0,0.0,0.0
28490556486137,0.7082755,9.083155,3.7854455,0.0,0.0,0.0
28490558865252,0.7369894,9.083155,3.7136607,0.0,0.0,0.0
28490561244314,0.79920274,9.092726,3.641876,0.0,0.0,0.0
28490563623429,0.7752745,9.092726,3.6227336,0.0,0.0,0.0
28490566002543,0.7896315,9.092726,3.641876,0.0,0.0,0.0
28490568381658,0.81834537,9.073584,3.6993039,0.0,0.0,0.0
28490570760772,0.8135597,9.078369,3.737589,0.0,0.0,0.0
28490573139887,0.7704889,9.083155,3.7280176,0.0,0.0,0.0
28490575518949,0.76570326,9.078369,3.6849468,0.0,0.0,0.0
28490577898116,0.7178468,9.078369,3.6370904,0.0,0.0,0.0
28490580277231,0.6891329,9.126225,3.6275191,0.0,0.0,0.0
28490582656345,0.66999036,9.107083,3.6514473,0.0,0.0,0.0
28490585035460,0.6556334,9.08794,3.6993039,0.0,0.0,0.0
28490587414574,0.64606214,9.102298,3.737589,0.0,0.0,0.0
28490589793689,0.59342,9.116654,3.7423747,0.0,0.0,0.0
28490592172804,0.57906306,9.111869,3.7088752,0.0,0.0,0.0
28490594551918,0.57427746,9.126225,3.6610186,0.0,0.0,0.0
28490596930981,0.5599205,9.140582,3.6323047,0.0,0.0,0.0
28490599310095,0.57906306,9.135797,3.6370904,0.0,0.0,0.0
28490601689210,0.6029913,9.131011,3.6801612,0.0,0.0,0.0
28490604068324,0.6269195,9.12144,3.7040894,0.0,0.0,0.0
28490606447439,0.65084773,9.12144,3.7184465,0.0,0.0,0.0
28490608826554,0.6891329,9.12144,3.6897326,0.0,0.0,0.0
28490611205668,0.7178468,9.126225,3.6610186,0.0,0.0,0.0
28490613584783,0.7369894,9.126225,3.6275191,0.0,0.0,0.0
28490615963897,0.7513463,9.131011,3.6275191,0.0,0.0,0.0
28490618342960,0.76570326,9.12144,3.6514473,0.0,0.0,0.0
28490620722127,0.7704889,9.131011,3.694518,0.0,0.0,0.0
28490623101241,0.7513463,9.140582,3.723232,0.0,0.0,0.0
28490625480356,0.75613195,9.150154,3.7184465,0.0,0.0,0.0
28490627859470,0.72741807,9.15494,3.6658044,0.0,0.0,0.0
28490630238533,0.6795616,9.140582,3.6370904,0.0,0.0,0.0
28490632617647,0.65084773,9.150154,3.6466618,0.0,0.0,0.0
28490634996762,0.6364908,9.150154,3.67059,0.0,0.0,0.0
28490637375877,0.5982057,9.145369,3.6897326,0.0,0.0,0.0
28490639754991,0.5838487,9.126225,3.7328033,0.0,0.0,0.0
28490642134106,0.5838487,9.140582,3.7328033,0.0,0.0,0.0
28490644513220,0.5838487,9.116654,3.7136607,0.0,0.0,0.0
28490646892335,0.59342,9.116654,3.6897326,0.0,0.0,0.0
28490649271449,0.6269195,9.150154,3.6801612,0.0,0.0,0.0
28490651650564,0.63170516,9.12144,3.6897326,0.0,0.0,0.0
28490654029679,0.6556334,9.12144,3.6993039,0.0,0.0,0.0
28490656408793,0.66999036,9.12144,3.694518,0.0,0.0,0.0
28490658787908,0.6795616,9.111869,3.7184465,0.0,0.0,0.0
28490661167022,0.7178468,9.097511,3.7136607,0.0,0.0,0.0
28490663546137,0.72741807,9.102298,3.6993039,0.0,0.0,0.0
28490665925252,0.74177504,9.092726,3.7088752,0.0,0.0,0.0
28490668304314,0.75613195,9.08794,3.7136607,0.0,0.0,0.0
28490670683429,0.72263247,9.092726,3.7280176,0.0,0.0,0.0
28490673062543,0.7369894,9.083155,3.7423747,0.0,0.0,0.0
28490675441658,0.7465607,9.111869,3.7471602,0.0,0.0,0.0
28490677820720,0.74177504,9.102298,3.7663028,0.0,0.0,0.0
28490680199887,0.7513463,9.092726,3.751946,0.0,0.0,0.0
28490682579002,0.7704889,9.097511,3.7328033,0.0,0.0,0.0
28490684958116,0.76570326,9.097511,3.737589,0.0,0.0,0.0
28490687337231,0.75613195,9.126225,3.751946,0.0,0.0,0.0
28490689716345,0.75613195,9.116654,3.7615173,0.0,0.0,0.0
28490692095460,0.7848458,9.116654,3.790231,0.0,0.0,0.0
28490694474574,0.7465607,9.102298,3.790231,0.0,0.0,0.0
28490696853689,0.72263247,9.111869,3.7854455,0.0,0.0,0.0
28490699232804,0.70348984,9.102298,3.7758741,0.0,0.0,0.0
28490701611918,0.70348984,9.12144,3.7854455,0.0,0.0,0.0
28490703991033,0.6843473,9.111869,3.7998023,0.0,0.0,0.0
28490706370147,0.67477596,9.107083,3.8093736,0.0,0.0,0.0
28490708749210,0.7178468,9.097511,3.8333018,0.0,0.0,0.0
28490711128324,0.7704889,9.078369,3.8093736,0.0,0.0,0.0
28490713507439,0.79441714,9.083155,3.7854455,0.0,0.0,0.0
28490715886554,0.80877405,9.083155,3.7806597,0.0,0.0,0.0
28490718265668,0.82313097,9.08794,3.7806597,0.0,0.0,0.0
28490720644783,0.8135597,9.064013,3.804588,0.0,0.0,0.0
28490723023897,0.8327023,9.059227,3.8333018,0.0,0.0,0.0
28490725403012,0.79920274,9.059227,3.8333018,0.0,0.0,0.0
28490727782127,0.7704889,9.0544405,3.8333018,0.0,0.0,0.0
28490730161241,0.7322037,9.059227,3.818945,0.0,0.0,0.0
28490732540356,0.70348984,9.064013,3.818945,0.0,0.0,0.0
28490734919470,0.6652047,9.059227,3.8285162,0.0,0.0,0.0
28490737298585,0.61734825,9.049655,3.842873,0.0,0.0,0.0
28490739677699,0.5886344,9.059227,3.8476589,0.0,0.0,0.0
28490742056814,0.57906306,9.059227,3.8572302,0.0,0.0,0.0
28490744435929,0.57906306,9.059227,3.8620157,0.0,0.0,0.0
28490746814991,0.5886344,9.0544405,3.8572302,0.0,0.0,0.0
28490749194106,0.5886344,9.064013,3.871587,0.0,0.0,0.0
28490751573220,0.6125626,9.059227,3.8668015,0.0,0.0,0.0
28490753952335,0.63170516,9.059227,3.8668015,0.0,0.0,0.0
28490756331449,0.66041905,9.068798,3.8811584,0.0,0.0,0.0
28490758710564,0.6556334,9.059227,3.885944,0.0,0.0,0.0
28490761089679,0.6652047,9.059227,3.900301,0.0,0.0,0.0
28490763468793,0.70348984,9.083155,3.8763726,0.0,0.0,0.0
28490765847908,0.70348984,9.073584,3.8620157,0.0,0.0,0.0
28490768227022,0.6843473,9.049655,3.8620157,0.0,0.0,0.0
28490770606137,0.6795616,9.035298,3.8763726,0.0,0.0,0.0
28490772985252,0.6556334,9.035298,3.871587,0.0,0.0,0.0
28490775364366,0.65084773,9.020942,3.8620157,0.0,0.0,0.0
28490777743481,0.6556334,9.016156,3.885944,0.0,0.0,0.0
28490780122595,0.6556334,9.044869,3.8668015,0.0,0.0,0.0
28490782501710,0.6556334,9.059227,3.8763726,0.0,0.0,0.0
28490784880824,0.66041905,9.073584,3.8811584,0.0,0.0,0.0
28490787259887,0.66999036,9.040084,3.885944,0.0,0.0,0.0
28490789639002,0.6795616,9.040084,3.900301,0.0,0.0,0.0
28490792018116,0.6939186,9.035298,3.8955152,0.0,0.0,0.0
28490794397231,0.7082755,9.025727,3.871587,0.0,0.0,0.0
28490796776293,0.7082755,9.030513,3.8620157,0.0,0.0,0.0
28490799155460,0.72263247,9.059227,3.8811584,0.0,0.0,0.0
28490801534574,0.72263247,9.068798,3.8668015,0.0,0.0,0.0
28490803913689,0.74177504,9.068798,3.8811584,0.0,0.0,0.0
28490806292804,0.74177504,9.0544405,3.871587,0.0,0.0,0.0
28490808671918,0.7465607,9.0544405,3.871587,0.0,0.0,0.0
28490811051033,0.74177504,9.035298,3.8811584,0.0,0.0,0.0
28490813430147,0.74177504,9.040084,3.871587,0.0,0.0,0.0
28490815809262,0.7513463,9.040084,3.8620157,0.0,0.0,0.0
28490818188377,0.79441714,9.030513,3.8620157,0.0,0.0,0.0
28490820567491,0.8135597,9.020942,3.8524444,0.0,0.0,0.0
28490822946606,0.79441714,9.016156,3.8668015,0.0,0.0,0.0
28490825325720,0.7896315,9.025727,3.8763726,0.0,0.0,0.0
28490827704835,0.7752745,9.035298,3.8620157,0.0,0.0,0.0
28490830083897,0.74177504,9.025727,3.8620157,0.0,0.0,0.0
28490832463012,0.7369894,9.016156,3.8668015,0.0,0.0,0.0
28490834842127,0.7178468,9.016156,3.8524444,0.0,0.0,0.0
28490837221241,0.7082755,9.030513,3.871587,0.0,0.0,0.0
28490839600356,0.6843473,9.030513,3.871587,0.0,0.0,0.0
28490841979002,0.67477596,9.030513,3.8811584,0.0,0.0,0.0
28490844358585,0.6891329,9.040084,3.871587,0.0,0.0,0.0
28490846737699,0.6843473,9.016156,3.8620157,0.0,0.0,0.0
28490849116814,0.6939186,9.016156,3.871587,0.0,0.0,0.0
28490851495929,0.6795616,9.030513,3.8811584,0.0,0.0,0.0
28490853875043,0.6987042,9.044869,3.8763726,0.0,0.0,0.0
28490856254158,0.6891329,9.025727,3.8620157,0.0,0.0,0.0
28490858633272,0.6891329,9.025727,3.8524444,0.0,0.0,0.0
28490861012387,0.6843473,9.044869,3.8524444,0.0,0.0,0.0
28490863391502,0.6891329,9.059227,3.8524444,0.0,0.0,0.0
28490865770616,0.6843473,9.049655,3.842873,0.0,0.0,0.0
28490868149731,0.7082755,9.044869,3.8476589,0.0,0.0,0.0
28490870528845,0.6891329,9.044869,3.8524444,0.0,0.0,0.0
28490872907908,0.6939186,9.049655,3.8380876,0.0,0.0,0.0
28490875287022,0.6891329,9.059227,3.8333018,0.0,0.0,0.0
28490877666137,0.6795616,9.068798,3.8333018,0.0,0.0,0.0
28490880045252,0.66999036,9.059227,3.8380876,0.0,0.0,0.0
28490882424366,0.6652047,9.049655,3.8380876,0.0,0.0,0.0
28490884803481,0.67477596,9.068798,3.842873,0.0,0.0,0.0
28490887182595,0.6795616,9.064013,3.8476589,0.0,0.0,0.0
28490889561710,0.7082755,9.0544405,3.8524444,0.0,0.0,0.0
28490891940824,0.71306115,9.049655,3.8572302,0.0,0.0,0.0
28490894319939,0.70348984,9.0544405,3.8572302,0.0,0.0,0.0
28490896699054,0.72741807,9.068798,3.8572302,0.0,0.0,0.0
28490899078168,0.71306115,9.059227,3.8476589,0.0,0.0,0.0
28490901457283,0.70348984,9.0544405,3.8476589,0.0,0.0,0.0
28490903836397,0.7322037,9.0544405,3.8380876,0.0,0.0,0.0
28490906215512,0.72741807,9.064013,3.8380876,0.0,0.0,0.0
28490908594627,0.7513463,9.0544405,3.8333018,0.0,0.0,0.0
28490910973741,0.7369894,9.064013,3.818945,0.0,0.0,0.0
28490913352856,0.7513463,9.044869,3.8093736,0.0,0.0,0.0
28490915731970,0.7513463,9.0544405,3.8141594,0.0,0.0,0.0
28490918111085,0.7800602,9.040084,3.8141594,0.0,0.0,0.0
28490920490147,0.7704889,9.044869,3.7950168,0.0,0.0,0.0
28490922869262,0.7752745,9.059227,3.7758741,0.0,0.0,0.0
28490925248377,0.7896315,9.044869,3.7806597,0.0,0.0,0.0
28490927627491,0.80877405,9.040084,3.7998023,0.0,0.0,0.0
28490930006554,0.7704889,9.035298,3.7998023,0.0,0.0,0.0
28490932385720,0.75613195,9.049655,3.8093736,0.0,0.0,0.0
28490934764835,0.7465607,9.040084,3.7998023,0.0,0.0,0.0
28490937143949,0.75613195,9.049655,3.7998023,0.0,0.0,0.0
28490939523064,0.7465607,9.040084,3.790231,0.0,0.0,0.0
28490941902179,0.7609176,9.0544405,3.7950168,0.0,0.0,0.0
28490944281293,0.7465607,9.030513,3.7806597,0.0,0.0,0.0
28490946660408,0.7369894,9.040084,3.7663028,0.0,0.0,0.0
28490949039522,0.7465607,9.049655,3.7758741,0.0,0.0,0.0
28490951418637,0.7609176,9.044869,3.7806597,0.0,0.0,0.0
28490953797752,0.76570326,9.059227,3.7950168,0.0,0.0,0.0
28490956176866,0.7800602,9.059227,3.7950168,0.0,0.0,0.0
28490958555981,0.7800602,9.064013,3.7758741,0.0,0.0,0.0
28490960935095,0.76570326,9.073584,3.790231,0.0,0.0,0.0
28490963314210,0.7369894,9.0544405,3.7950168,0.0,0.0,0.0
28490965693272,0.7369894,9.049655,3.804588,0.0,0.0,0.0
28490968072387,0.7369894,9.059227,3.8093736,0.0,0.0,0.0
28490970451502,0.75613195,9.078369,3.818945,0.0,0.0,0.0
28490972830616,0.7513463,9.068798,3.7998023,0.0,0.0,0.0
28490975209731,0.7178468,9.083155,3.790231,0.0,0.0,0.0
28490977588845,0.74177504,9.059227,3.7950168,0.0,0.0,0.0
28490979967960,0.76570326,9.044869,3.790231,0.0,0.0,0.0
28490982347074,0.7704889,9.035298,3.790231,0.0,0.0,0.0
28490984726189,0.7848458,9.025727,3.7806597,0.0,0.0,0.0
28490987105304,0.80877405,9.006584,3.7854455,0.0,0.0,0.0
28490989484418,0.8279166,9.025727,3.7758741,0.0,0.0,0.0
28490991863533,0.8470592,9.035298,3.7710886,0.0,0.0,0.0
28490994242647,0.86141616,9.030513,3.751946,0.0,0.0,0.0
28490996621762,0.8662018,9.01137,3.7423747,0.0,0.0,0.0
28490999000877,0.8662018,9.020942,3.7471602,0.0,0.0,0.0
28491001379991,0.8662018,9.016156,3.7471602,0.0,0.0,0.0
28491003759106,0.86141616,9.030513,3.7423747,0.0,0.0,0.0
28491006138220,0.8470592,9.0544405,3.7423747,0.0,0.0,0.0
28491008517335,0.8279166,9.064013,3.7663028,0.0,0.0,0.0
28491010896449,0.8135597,9.068798,3.7663028,0.0,0.0,0.0
28491013275564,0.8135597,9.073584,3.7854455,0.0,0.0,0.0
28491015654627,0.8135597,9.073584,3.7758741,0.0,0.0,0.0
28491018033793,0.80877405,9.097511,3.7950168,0.0,0.0,0.0
28491020412856,0.82313097,9.135797,3.804588,0.0,0.0,0.0
28491022791970,0.81834537,9.159725,3.804588,0.0,0.0,0.0
28491025171085,0.83748794,9.145369,3.8141594,0.0,0.0,0.0
28491027550199,0.86141616,9.145369,3.8141594,0.0,0.0,0.0
28491029929314,0.86141616,9.107083,3.818945,0.0,0.0,0.0
28491032308429,0.8662018,9.145369,3.8237305,0.0,0.0,0.0
28491034687543,0.9092726,9.135797,3.8333018,0.0,0.0,0.0
28491037066658,0.9523434,9.140582,3.8380876,0.0,0.0,0.0
28491039445772,0.94755775,9.12144,3.8285162,0.0,0.0,0.0
28491041824887,0.9906286,9.111869,3.8237305,0.0,0.0,0.0
28491044203949,0.9954142,9.097511,3.842873,0.0,0.0,0.0
28491046583116,0.9906286,9.083155,3.8380876,0.0,0.0,0.0
28491048962231,0.9762716,9.0544405,3.8380876,0.0,0.0,0.0
28491051341345,1.0097711,9.035298,3.8285162,0.0,0.0,0.0
28491053720460,1.0001999,9.025727,3.8572302,0.0,0.0,0.0
28491056099574,0.9906286,9.020942,3.8524444,0.0,0.0,0.0
28491058478689,0.971486,9.001799,3.8524444,0.0,0.0,0.0
28491060857804,0.9284152,8.992228,3.8476589,0.0,0.0,0.0
28491063236918,0.9379865,8.973084,3.8333018,0.0,0.0,0.0
28491065616033,0.89491564,8.973084,3.842873,0.0,0.0,0.0
28491067995147,0.8805587,8.963513,3.8572302,0.0,0.0,0.0
28491070374262,0.89013004,8.9348,3.8524444,0.0,0.0,0.0
28491072753324,0.8566305,8.925228,3.842873,0.0,0.0,0.0
28491075132439,0.8566305,8.9013,3.842873,0.0,0.0,0.0
28491077511554,0.8662018,8.930014,3.8380876,0.0,0.0,0.0
28491079890668,0.85184485,8.953942,3.842873,0.0,0.0,0.0
28491082269783,0.8470592,8.944371,3.8476589,0.0,0.0,0.0
28491084648897,0.85184485,8.939586,3.8524444,0.0,0.0,0.0
28491087028012,0.86141616,8.9348,3.8285162,0.0,0.0,0.0
28491089407127,0.8853444,8.949157,3.8333018,0.0,0.0,0.0
28491091786241,0.89491564,8.949157,3.8333018,0.0,0.0,0.0
28491094165304,0.8997013,8.968299,3.8380876,0.0,0.0,0.0
28491096544470,0.9092726,8.977871,3.8476589,0.0,0.0,0.0
28491098923585,0.9236295,8.968299,3.8476589,0.0,0.0,0.0
28491101302699,0.9379865,8.9826565,3.8380876,0.0,0.0,0.0
28491103681814,0.95712906,8.987442,3.8333018,0.0,0.0,0.0
28491106060929,0.94755775,8.973084,3.8380876,0.0,0.0,0.0
28491108440043,0.91884387,8.977871,3.8285162,0.0,0.0,0.0
28491110819158,0.9092726,8.973084,3.8237305,0.0,0.0,0.0
28491113198272,0.91405827,8.987442,3.8141594,0.0,0.0,0.0
28491115577387,0.9092726,8.992228,3.818945,0.0,0.0,0.0
28491117956502,0.9236295,8.987442,3.790231,0.0,0.0,0.0
28491120335616,0.9284152,9.016156,3.804588,0.0,0.0,0.0
28491122714731,0.9236295,9.040084,3.7854455,0.0,0.0,0.0
28491125093793,0.9236295,9.025727,3.790231,0.0,0.0,0.0
28491127472908,0.9284152,9.044869,3.7806597,0.0,0.0,0.0
28491129852022,0.93320084,9.078369,3.7758741,0.0,0.0,0.0
28491132231137,0.93320084,9.078369,3.7615173,0.0,0.0,0.0
28491134610252,0.9523434,9.102298,3.751946,0.0,0.0,0.0
28491136989366,0.95712906,9.131011,3.7280176,0.0,0.0,0.0
28491139368481,0.94755775,9.140582,3.7136607,0.0,0.0,0.0
28491141747595,0.95712906,9.15494,3.7136607,0.0,0.0,0.0
28491144126710,0.9667004,9.188439,3.723232,0.0,0.0,0.0
28491146505824,0.9667004,9.178867,3.7328033,0.0,0.0,0.0
28491148884939,0.95712906,9.2075815,3.7280176,0.0,0.0,0.0
28491151264054,0.971486,9.217153,3.723232,0.0,0.0,0.0
28491153643168,1.0049855,9.245867,3.7567315,0.0,0.0,0.0
28491156022283,1.0576276,9.245867,3.7423747,0.0,0.0,0.0
28491158401397,1.0624132,9.217153,3.7615173,0.0,0.0,0.0
28491160780512,1.1581261,9.236296,3.7806597,0.0,0.0,0.0
28491163159627,1.1820544,9.2075815,3.7615173,0.0,0.0,0.0
28491165538741,1.2011969,9.202796,3.7088752,0.0,0.0,0.0
28491167917856,1.2394822,9.23151,3.7567315,0.0,0.0,0.0
28491170296970,1.2634103,9.2075815,3.7854455,0.0,0.0,0.0
28491172676085,1.268196,9.150154,3.7471602,0.0,0.0,0.0
28491175055199,1.268196,9.174082,3.7567315,0.0,0.0,0.0
28491177434314,1.2442678,9.169296,3.7950168,0.0,0.0,0.0
28491179813429,1.2251252,9.135797,3.7950168,0.0,0.0,0.0
28491182192543,1.2107682,9.083155,3.751946,0.0,0.0,0.0
28491184571606,1.1724831,9.102298,3.7806597,0.0,0.0,0.0
28491186950720,1.0959128,9.102298,3.8093736,0.0,0.0,0.0
28491189329835,1.052842,9.068798,3.8141594,0.0,0.0,0.0
28491191708949,0.98584294,9.049655,3.804588,0.0,0.0,0.0
28491194088064,0.91405827,9.059227,3.8237305,0.0,0.0,0.0
28491196467179,0.8709874,9.064013,3.804588,0.0,0.0,0.0
28491198846293,0.8135597,9.068798,3.8093736,0.0,0.0,0.0
28491201225408,0.75613195,9.068798,3.8141594,0.0,0.0,0.0
28491203604522,0.70348984,9.092726,3.8237305,0.0,0.0,0.0
28491205983637,0.6843473,9.092726,3.8285162,0.0,0.0,0.0
28491208362752,0.6987042,9.078369,3.8524444,0.0,0.0,0.0
28491210741866,0.7465607,9.068798,3.8620157,0.0,0.0,0.0
28491213120981,0.7369894,9.073584,3.8668015,0.0,0.0,0.0
28491215500095,0.7896315,9.073584,3.8333018,0.0,0.0,0.0
28491217879210,0.7752745,9.097511,3.8333018,0.0,0.0,0.0
28491220258324,0.8039884,9.08794,3.8380876,0.0,0.0,0.0
28491222637439,0.8135597,9.083155,3.8285162,0.0,0.0,0.0
28491225016554,0.79920274,9.068798,3.842873,0.0,0.0,0.0
28491227395668,0.81834537,9.064013,3.8620157,0.0,0.0,0.0
28491229774783,0.8039884,9.078369,3.8620157,0.0,0.0,0.0
28491232153897,0.7848458,9.068798,3.8524444,0.0,0.0,0.0
28491234533012,0.7465607,9.073584,3.8476589,0.0,0.0,0.0
28491236912127,0.72263247,9.08794,3.8285162,0.0,0.0,0.0
28491239291241,0.6939186,9.083155,3.818945,0.0,0.0,0.0
28491241670356,0.66041905,9.078369,3.8333018,0.0,0.0,0.0
28491244049470,0.64606214,9.059227,3.8285162,0.0,0.0,0.0
28491246428533,0.6364908,9.092726,3.7998023,0.0,0.0,0.0
28491248807699,0.65084773,9.08794,3.7710886,0.0,0.0,0.0
28491251186762,0.6987042,9.102298,3.7710886,0.0,0.0,0.0
28491253565877,0.70348984,9.097511,3.7615173,0.0,0.0,0.0
28491255944991,0.72741807,9.135797,3.7471602,0.0,0.0,0.0
28491258324106,0.7609176,9.102298,3.737589,0.0,0.0,0.0
28491260703220,0.79441714,9.111869,3.737589,0.0,0.0,0.0
28491263082335,0.8279166,9.111869,3.7280176,0.0,0.0,0.0
28491265461449,0.83748794,9.150154,3.7328033,0.0,0.0,0.0
28491267840564,0.8997013,9.140582,3.7328033,0.0,0.0,0.0
28491270219679,0.9523434,9.140582,3.7088752,0.0,0.0,0.0
28491272598793,0.94755775,9.178867,3.7088752,0.0,0.0,0.0
28491274977908,0.971486,9.169296,3.723232,0.0,0.0,0.0
28491277357022,1.0145568,9.159725,3.7088752,0.0,0.0,0.0
28491279736137,1.0289137,9.169296,3.7136607,0.0,0.0,0.0
28491282115252,1.0480564,9.15494,3.7136607,0.0,0.0,0.0
28491284494366,1.0911272,9.150154,3.7280176,0.0,0.0,0.0
28491286873481,1.0671989,9.145369,3.7280176,0.0,0.0,0.0
28491289252595,1.0671989,9.174082,3.723232,0.0,0.0,0.0
28491291631710,1.0624132,9.164511,3.7423747,0.0,0.0,0.0
28491294010824,1.0624132,9.12144,3.737589,0.0,0.0,0.0
28491296389939,1.0624132,9.12144,3.723232,0.0,0.0,0.0
28491298769054,1.0576276,9.08794,3.7328033,0.0,0.0,0.0
28491301148168,1.0432707,9.078369,3.7423747,0.0,0.0,0.0
28491303527283,1.038485,9.064013,3.7184465,0.0,0.0,0.0
28491305906397,1.0241281,9.064013,3.7184465,0.0,0.0,0.0
28491308285512,0.9906286,9.068798,3.7280176,0.0,0.0,0.0
28491310664627,0.9954142,9.049655,3.7328033,0.0,0.0,0.0
28491313043741,0.9906286,9.025727,3.7328033,0.0,0.0,0.0
28491315422856,0.9810573,9.025727,3.7088752,0.0,0.0,0.0
28491317801918,0.971486,9.044869,3.694518,0.0,0.0,0.0
28491320181085,1.0145568,9.020942,3.6849468,0.0,0.0,0.0
28491322560147,1.038485,9.035298,3.6801612,0.0,0.0,0.0
28491324939262,1.0576276,9.064013,3.7136607,0.0,0.0,0.0
28491327318377,1.0480564,9.083155,3.7136607,0.0,0.0,0.0
28491329697491,1.0336994,9.092726,3.7040894,0.0,0.0,0.0
28491332076606,1.0241281,9.059227,3.6993039,0.0,0.0,0.0
28491334455720,1.0289137,9.01137,3.7040894,0.0,0.0,0.0
28491336834835,1.0432707,9.016156,3.6993039,0.0,0.0,0.0
28491339213949,1.0241281,9.01137,3.7088752,0.0,0.0,0.0
28491341593064,1.0097711,9.020942,3.7328033,0.0,0.0,0.0
28491343972179,1.0289137,9.044869,3.737589,0.0,0.0,0.0
28491346351293,1.0241281,9.035298,3.7423747,0.0,0.0,0.0
28491348730408,0.9906286,9.044869,3.7663028,0.0,0.0,0.0
28491351109522,0.9906286,9.073584,3.7806597,0.0,0.0,0.0
28491353488637,0.9810573,9.078369,3.7950168,0.0,0.0,0.0
28491355867752,0.9810573,9.083155,3.790231,0.0,0.0,0.0
28491358246866,0.9523434,9.08794,3.7806597,0.0,0.0,0.0
28491360625981,0.9523434,9.083155,3.7758741,0.0,0.0,0.0
28491363005095,0.9523434,9.107083,3.790231,0.0,0.0,0.0
28491365384210,0.94755775,9.102298,3.7710886,0.0,0.0,0.0
28491367763324,1.0049855,9.102298,3.7806597,0.0,0.0,0.0
28491370142439,1.0336994,9.073584,3.7806597,0.0,0.0,0.0
28491372521502,1.0576276,9.044869,3.7854455,0.0,0.0,0.0
28491374900668,1.0959128,9.0544405,3.7758741,0.0,0.0,0.0
28491377279783,1.1437693,9.064013,3.7758741,0.0,0.0,0.0
28491379658897,1.18684,9.0544405,3.7710886,0.0,0.0,0.0
28491382038012,1.1820544,9.01137,3.7806597,0.0,0.0,0.0
28491384417127,1.1772687,9.016156,3.8093736,0.0,0.0,0.0
28491386796241,1.2011969,9.006584,3.818945,0.0,0.0,0.0
28491389175356,1.2011969,8.997013,3.8093736,0.0,0.0,0.0
28491391554470,1.1772687,8.958728,3.818945,0.0,0.0,0.0
28491393933585,1.1437693,8.949157,3.804588,0.0,0.0,0.0
28491396312647,1.1246266,8.973084,3.818945,0.0,0.0,0.0
28491398691814,1.0863415,8.977871,3.8237305,0.0,0.0,0.0
28491401070877,1.0480564,8.963513,3.8285162,0.0,0.0,0.0
28491403449991,1.0241281,8.958728,3.8524444,0.0,0.0,0.0
28491405829106,1.0049855,8.958728,3.8572302,0.0,0.0,0.0
28491408208220,0.9954142,8.930014,3.8620157,0.0,0.0,0.0
28491410587335,0.9762716,8.930014,3.8572302,0.0,0.0,0.0
28491412966449,0.9810573,8.930014,3.8668015,0.0,0.0,0.0
28491415345564,1.0193424,8.930014,3.8668015,0.0,0.0,0.0
28491417724679,0.9954142,8.906086,3.8811584,0.0,0.0,0.0
28491420103793,0.9906286,8.939586,3.900301,0.0,0.0,0.0
28491422482908,1.0049855,8.949157,3.900301,0.0,0.0,0.0
28491424862022,1.0097711,8.920443,3.8955152,0.0,0.0,0.0
28491427241137,1.0432707,8.9108715,3.9242291,0.0,0.0,0.0
28491429620252,1.0289137,8.9108715,3.9194436,0.0,0.0,0.0
28491431999366,1.0480564,8.9348,3.9146578,0.0,0.0,0.0
28491434378481,1.0432707,8.949157,3.900301,0.0,0.0,0.0
28491436757595,1.0432707,8.963513,3.9194436,0.0,0.0,0.0
28491439136710,1.0289137,8.987442,3.9338005,0.0,0.0,0.0
28491441515824,1.0289137,8.997013,3.9481573,0.0,0.0,0.0
28491443894939,1.0193424,9.006584,3.9433718,0.0,0.0,0.0
28491446274054,1.0241281,9.025727,3.9194436,0.0,0.0,0.0
28491448653168,1.0049855,9.059227,3.9338005,0.0,0.0,0.0
28491451032283,0.98584294,9.064013,3.9338005,0.0,0.0,0.0
28491453411397,0.9906286,9.068798,3.9194436,0.0,0.0,0.0
28491455790512,0.971486,9.059227,3.9338005,0.0,0.0,0.0
28491458169627,0.9619147,9.059227,3.9577286,0.0,0.0,0.0
28491460548741,0.9523434,9.073584,3.9673,0.0,0.0,0.0
28491462927856,0.9379865,9.064013,3.9625144,0.0,0.0,0.0
28491465306970,0.9379865,9.068798,3.9673,0.0,0.0,0.0
28491467686085,0.9284152,9.035298,3.9481573,0.0,0.0,0.0
28491470065199,0.9379865,9.040084,3.9481573,0.0,0.0,0.0
28491472444314,0.91884387,9.016156,3.9290147,0.0,0.0,0.0
28491474823429,0.89491564,9.01137,3.9433718,0.0,0.0,0.0
28491477202543,0.90448695,9.016156,3.938586,0.0,0.0,0.0
28491479581658,0.9236295,9.001799,3.9050865,0.0,0.0,0.0
28491481960772,0.9236295,8.987442,3.9050865,0.0,0.0,0.0
28491484339835,0.93320084,8.992228,3.8763726,0.0,0.0,0.0
28491486719002,0.9092726,8.987442,3.8572302,0.0,0.0,0.0
28491489098064,0.8805587,8.968299,3.8476589,0.0,0.0,0.0
28491491477179,0.8662018,8.9826565,3.8524444,0.0,0.0,0.0
28491493856293,0.8853444,8.977871,3.8285162,0.0,0.0,0.0
28491496235408,0.8470592,8.992228,3.8333018,0.0,0.0,0.0
28491498614522,0.8327023,8.992228,3.8285162,0.0,0.0,0.0
28491500993637,0.83748794,9.006584,3.8237305,0.0,0.0,0.0
28491503372752,0.81834537,9.030513,3.8285162,0.0,0.0,0.0
28491505751866,0.79920274,9.049655,3.8237305,0.0,0.0,0.0
28491508130981,0.79920274,9.0544405,3.8093736,0.0,0.0,0.0
28491510510095,0.79920274,9.044869,3.804588,0.0,0.0,0.0
28491512889158,0.8039884,9.073584,3.8093736,0.0,0.0,0.0
28491515268324,0.8135597,9.08794,3.8093736,0.0,0.0,0.0
28491517647439,0.8279166,9.102298,3.7998023,0.0,0.0,0.0
28491520026554,0.8422736,9.102298,3.7950168,0.0,0.0,0.0
28491522405668,0.8327023,9.111869,3.804588,0.0,0.0,0.0
28491524784783,0.83748794,9.097511,3.8093736,0.0,0.0,0.0
28491527163897,0.8422736,9.107083,3.7998023,0.0,0.0,0.0
28491529543012,0.8327023,9.126225,3.7998023,0.0,0.0,0.0
28491531922127,0.8327023,9.150154,3.7950168,0.0,0.0,0.0
28491534301241,0.82313097,9.126225,3.7710886,0.0,0.0,0.0
28491536680356,0.80877405,9.107083,3.7567315,0.0,0.0,0.0
28491539059470,0.7800602,9.116654,3.7663028,0.0,0.0,0.0
28491541438585,0.7896315,9.126225,3.737589,0.0,0.0,0.0
28491543817699,0.7609176,9.135797,3.751946,0.0,0.0,0.0
28491546196814,0.7800602,9.116654,3.7471602,0.0,0.0,0.0
28491548575929,0.75613195,9.092726,3.7471602,0.0,0.0,0.0
28491550954991,0.7369894,9.126225,3.7615173,0.0,0.0,0.0
28491553334158,0.7513463,9.12144,3.751946,0.0,0.0,0.0
28491555713272,0.7082755,9.107083,3.7471602,0.0,0.0,0.0
28491558092387,0.7178468,9.12144,3.7280176,0.0,0.0,0.0
28491560471502,0.6987042,9.097511,3.7471602,0.0,0.0,0.0
28491562850616,0.6987042,9.08794,3.7328033,0.0,0.0,0.0
28491565229731,0.6795616,9.097511,3.723232,0.0,0.0,0.0
28491567608845,0.6795616,9.097511,3.7184465,0.0,0.0,0.0
28491569987960,0.6987042,9.107083,3.7040894,0.0,0.0,0.0
28491572367074,0.6939186,9.097511,3.6993039,0.0,0.0,0.0
28491574746189,0.6987042,9.097511,3.7280176,0.0,0.0,0.0
28491577125304,0.71306115,9.073584,3.7280176,0.0,0.0,0.0
28491579504418,0.7082755,9.073584,3.7280176,0.0,0.0,0.0
28491581883533,0.71306115,9.08794,3.737589,0.0,0.0,0.0
28491584262647,0.7322037,9.078369,3.7328033,0.0,0.0,0.0
28491586641762,0.7178468,9.068798,3.737589,0.0,0.0,0.0
28491589020877,0.72741807,9.078369,3.7615173,0.0,0.0,0.0
28491591399991,0.7322037,9.078369,3.7663028,0.0,0.0,0.0
28491593779054,0.6891329,9.073584,3.7854455,0.0,0.0,0.0
28491596158168,0.6795616,9.073584,3.790231,0.0,0.0,0.0
28491598537283,0.6795616,9.083155,3.7663028,0.0,0.0,0.0
28491600916397,0.64606214,9.08794,3.7615173,0.0,0.0,0.0
28491603295512,0.63170516,9.068798,3.7710886,0.0,0.0,0.0
28491605674627,0.6029913,9.0544405,3.7950168,0.0,0.0,0.0
28491608053741,0.5982057,9.078369,3.790231,0.0,0.0,0.0
28491610432856,0.57906306,9.073584,3.7950168,0.0,0.0,0.0
28491612811970,0.5694918,9.064013,3.790231,0.0,0.0,0.0
28491615191085,0.5455636,9.073584,3.804588,0.0,0.0,0.0
28491617570199,0.5407779,9.068798,3.8093736,0.0,0.0,0.0
28491619949314,0.5312066,9.0544405,3.818945,0.0,0.0,0.0
28491622328429,0.526421,9.044869,3.8093736,0.0,0.0,0.0
28491624707543,0.526421,9.025727,3.8141594,0.0,0.0,0.0
28491627086658,0.51206404,9.030513,3.818945,0.0,0.0,0.0
28491629465772,0.5072784,9.064013,3.818945,0.0,0.0,0.0
28491631844887,0.5072784,9.064013,3.8285162,0.0,0.0,0.0
28491634224002,0.53599226,9.0544405,3.8141594,0.0,0.0,0.0
28491636603116,0.5312066,9.049655,3.7998023,0.0,0.0,0.0
28491638982231,0.56470615,9.059227,3.7998023,0.0,0.0,0.0
28491641361345,0.57906306,9.044869,3.790231,0.0,0.0,0.0
28491643740460,0.5982057,9.064013,3.804588,0.0,0.0,0.0
28491646119574,0.6125626,9.059227,3.7998023,0.0,0.0,0.0
28491648498689,0.6269195,9.068798,3.8141594,0.0,0.0,0.0
28491650877804,0.6412765,9.068798,3.8093736,0.0,0.0,0.0
28491653256918,0.6652047,9.08794,3.7998023,0.0,0.0,0.0
28491655636033,0.70348984,9.064013,3.7998023,0.0,0.0,0.0
28491658015147,0.72263247,9.068798,3.8141594,0.0,0.0,0.0
28491660394262,0.71306115,9.078369,3.8141594,0.0,0.0,0.0
28491662773377,0.7322037,9.092726,3.8237305,0.0,0.0,0.0
28491665152491,0.7704889,9.08794,3.818945,0.0,0.0,0.0
28491667531606,0.7752745,9.073584,3.8237305,0.0,0.0,0.0
28491669910720,0.7800602,9.107083,3.8141594,0.0,0.0,0.0
28491672289835,0.7896315,9.107083,3.8141594,0.0,0.0,0.0
28491674668949,0.82313097,9.111869,3.8093736,0.0,0.0,0.0
28491677048064,0.8470592,9.102298,3.818945,0.0,0.0,0.0
28491679427179,0.8662018,9.12144,3.8285162,0.0,0.0,0.0
28491681806293,0.86141616,9.111869,3.8285162,0.0,0.0,0.0
28491684185408,0.8805587,9.126225,3.818945,0.0,0.0,0.0
28491686564522,0.8470592,9.102298,3.818945,0.0,0.0,0.0
28491688943637,0.85184485,9.107083,3.8141594,0.0,0.0,0.0
28491691322752,0.8566305,9.12144,3.818945,0.0,0.0,0.0
28491693701866,0.8566305,9.083155,3.8285162,0.0,0.0,0.0
28491696080981,0.86141616,9.08794,3.8141594,0.0,0.0,0.0
28491698460095,0.8709874,9.078369,3.7998023,0.0,0.0,0.0
28491700839210,0.83748794,9.0544405,3.8093736,0.0,0.0,0.0
28491703218324,0.81834537,9.049655,3.8093736,0.0,0.0,0.0
28491705597439,0.80877405,9.0544405,3.804588,0.0,0.0,0.0
28491707976554,0.8327023,9.0544405,3.8333018,0.0,0.0,0.0
28491710355668,0.8327023,9.030513,3.842873,0.0,0.0,0.0
28491712734783,0.82313097,9.030513,3.8380876,0.0,0.0,0.0
28491715113897,0.8135597,9.035298,3.8476589,0.0,0.0,0.0
28491717493012,0.79920274,9.040084,3.8476589,0.0,0.0,0.0
28491719872127,0.7896315,9.030513,3.8380876,0.0,0.0,0.0
28491722251241,0.7896315,9.049655,3.8380876,0.0,0.0,0.0
28491724630356,0.7800602,9.044869,3.842873,0.0,0.0,0.0
28491727009470,0.7609176,9.044869,3.8620157,0.0,0.0,0.0
28491729388585,0.74177504,9.035298,3.8668015,0.0,0.0,0.0
28491731767699,0.6939186,9.044869,3.8955152,0.0,0.0,0.0
28491734146814,0.6987042,9.035298,3.8907297,0.0,0.0,0.0
28491736525929,0.6795616,9.035298,3.8907297,0.0,0.0,0.0
28491738905043,0.66041905,9.059227,3.9050865,0.0,0.0,0.0
28491741284106,0.6125626,9.0544405,3.9050865,0.0,0.0,0.0
28491743663220,0.57427746,9.0544405,3.9194436,0.0,0.0,0.0
28491746042335,0.5312066,9.016156,3.9481573,0.0,0.0,0.0
28491748421449,0.5168497,9.035298,3.9625144,0.0,0.0,0.0
28491750800564,0.4881358,9.025727,3.9673,0.0,0.0,0.0
28491753179679,0.4642076,9.016156,3.9625144,0.0,0.0,0.0
28491755558793,0.44027936,9.020942,3.9625144,0.0,0.0,0.0
28491757937908,0.41635114,9.040084,3.9816568,0.0,0.0,0.0
28491760317022,0.41156548,9.044869,3.991228,0.0,0.0,0.0
28491762696137,0.4019942,9.040084,4.005585,0.0,0.0,0.0
28491765075252,0.41156548,9.035298,3.9816568,0.0,0.0,0.0
28491767454366,0.44027936,9.044869,3.9816568,0.0,0.0,0.0
28491769833481,0.47856453,9.049655,3.9768713,0.0,0.0,0.0
28491772212595,0.51206404,9.035298,3.9625144,0.0,0.0,0.0
28491774591710,0.52163535,9.025727,3.9625144,0.0,0.0,0.0
28491776970824,0.52163535,9.025727,3.9768713,0.0,0.0,0.0
28491779349939,0.5407779,9.01137,3.9864426,0.0,0.0,0.0
28491781729054,0.53599226,8.992228,3.9960139,0.0,0.0,0.0
28491784108168,0.5312066,8.9826565,3.991228,0.0,0.0,0.0
28491786487283,0.52163535,8.987442,3.991228,0.0,0.0,0.0
28491788866397,0.5024927,8.987442,4.0007997,0.0,0.0,0.0
28491791245512,0.5072784,8.987442,4.019942,0.0,0.0,0.0
28491793624627,0.5168497,8.992228,4.019942,0.0,0.0,0.0
28491796003741,0.526421,9.001799,4.0390844,0.0,0.0,0.0
28491798382856,0.55513483,8.992228,4.0534415,0.0,0.0,0.0
28491800761970,0.57906306,8.9826565,4.063013,0.0,0.0,0.0
28491803141085,0.63170516,8.9826565,4.058227,0.0,0.0,0.0
28491805520199,0.6556334,9.001799,4.0534415,0.0,0.0,0.0
28491807899314,0.6939186,8.987442,4.034299,0.0,0.0,0.0
28491810278429,0.75613195,8.997013,4.0390844,0.0,0.0,0.0
28491812657543,0.7848458,8.997013,4.063013,0.0,0.0,0.0
28491815036658,0.82313097,8.9826565,4.0438704,0.0,0.0,0.0
28491817415772,0.8279166,8.968299,4.0534415,0.0,0.0,0.0
28491819794887,0.8279166,8.963513,4.0295134,0.0,0.0,0.0
28491822174002,0.8135597,8.9826565,4.0103707,0.0,0.0,0.0
28491824553116,0.79441714,8.968299,4.024728,0.0,0.0,0.0
28491826932231,0.76570326,8.949157,4.0390844,0.0,0.0,0.0
28491829311345,0.7369894,8.977871,4.058227,0.0,0.0,0.0
28491831690460,0.6987042,8.9826565,4.0534415,0.0,0.0,0.0
28491834069574,0.6795616,9.001799,4.0438704,0.0,0.0,0.0
28491836448689,0.6556334,8.939586,4.0677986,0.0,0.0,0.0
28491838827804,0.7513463,8.958728,4.063013,0.0,0.0,0.0
28491841206918,0.7848458,8.9826565,4.0534415,0.0,0.0,0.0
28491843586033,0.8997013,8.949157,4.0151563,0.0,0.0,0.0
28491845965147,1.0097711,8.944371,4.0103707,0.0,0.0,0.0
28491848344262,1.134198,8.920443,3.9768713,0.0,0.0,0.0
28491850723377,1.1964114,8.930014,3.9816568,0.0,0.0,0.0
28491853102491,1.268196,8.9013,3.9481573,0.0,0.0,0.0
28491855481606,1.2873386,8.9013,3.9768713,0.0,0.0,0.0
28491857860720,1.2634103,8.882157,3.938586,0.0,0.0,0.0
28491860239783,1.2299109,8.920443,3.9433718,0.0,0.0,0.0
28491862618949,1.1676974,8.891729,3.9290147,0.0,0.0,0.0
28491864998064,1.052842,8.925228,3.9625144,0.0,0.0,0.0
28491867377179,0.98584294,8.930014,3.9720855,0.0,0.0,0.0
28491869756293,0.91405827,8.944371,3.9960139,0.0,0.0,0.0
28491872135408,0.8662018,8.9348,4.0007997,0.0,0.0,0.0
28491874514522,0.79441714,8.949157,3.9960139,0.0,0.0,0.0
28491876893637,0.7848458,8.958728,3.9816568,0.0,0.0,0.0
28491879272752,0.8757731,8.968299,3.9625144,0.0,0.0,0.0
28491881651866,0.91405827,8.992228,3.9481573,0.0,0.0,0.0
28491884030981,0.9619147,8.997013,3.9481573,0.0,0.0,0.0
28491886410095,1.0289137,8.9826565,3.952943,0.0,0.0,0.0
28491888789210,1.0959128,8.963513,3.9338005,0.0,0.0,0.0
28491891168324,1.1437693,8.963513,3.9290147,0.0,0.0,0.0
28491893547439,1.1820544,8.9826565,3.9290147,0.0,0.0,0.0
28491895926554,1.1964114,8.968299,3.9242291,0.0,0.0,0.0
28491898305668,1.18684,8.973084,3.9098723,0.0,0.0,0.0
28491900684783,1.1629118,8.968299,3.9194436,0.0,0.0,0.0
28491903063897,1.134198,8.968299,3.938586,0.0,0.0,0.0
28491905443012,1.0671989,8.963513,3.9242291,0.0,0.0,0.0
28491907822127,0.9954142,8.958728,3.9194436,0.0,0.0,0.0
28491910201241,0.89491564,8.977871,3.9242291,0.0,0.0,0.0
28491912580356,0.8422736,8.987442,3.9146578,0.0,0.0,0.0
28491914959470,0.80877405,8.992228,3.9338005,0.0,0.0,0.0
28491917338585,0.7704889,9.01137,3.9577286,0.0,0.0,0.0
28491919717699,0.7609176,9.020942,3.9625144,0.0,0.0,0.0
28491922096814,0.7369894,9.01137,3.9290147,0.0,0.0,0.0
28491924475929,0.79441714,9.016156,3.9481573,0.0,0.0,0.0
28491926855043,0.79920274,9.020942,3.9338005,0.0,0.0,0.0
28491929234158,0.79920274,9.016156,3.9098723,0.0,0.0,0.0
28491931613272,0.8327023,9.01137,3.8907297,0.0,0.0,0.0
28491933992387,0.8566305,9.020942,3.9050865,0.0,0.0,0.0
28491936371502,0.9092726,9.020942,3.8955152,0.0,0.0,0.0
28491938750616,0.9236295,9.040084,3.8811584,0.0,0.0,0.0
28491941129731,0.9619147,9.035298,3.8668015,0.0,0.0,0.0
28491943508845,1.0145568,9.035298,3.842873,0.0,0.0,0.0
28491945887960,1.0241281,8.997013,3.8572302,0.0,0.0,0.0
28491948267074,1.0480564,8.9826565,3.8524444,0.0,0.0,0.0
28491950646189,1.0767702,8.992228,3.8572302,0.0,0.0,0.0
28491953025304,1.1006985,8.977871,3.871587,0.0,0.0,0.0
28491955404418,1.119841,8.977871,3.8572302,0.0,0.0,0.0
28491957783533,1.119841,8.977871,3.8476589,0.0,0.0,0.0
28491960162647,1.0959128,8.997013,3.8524444,0.0,0.0,0.0
28491962541762,1.0815558,9.016156,3.8524444,0.0,0.0,0.0
28491964920877,1.0480564,9.016156,3.8668015,0.0,0.0,0.0
28491967299991,1.0001999,9.044869,3.8524444,0.0,0.0,0.0
28491969679106,0.971486,9.044869,3.8668015,0.0,0.0,0.0
28491972058220,0.93320084,9.078369,3.8524444,0.0,0.0,0.0
28491974437335,0.9236295,9.078369,3.842873,0.0,0.0,0.0
28491976816449,0.9236295,9.083155,3.8380876,0.0,0.0,0.0
28491979195564,0.94755775,9.073584,3.8285162,0.0,0.0,0.0
28491981574679,0.95712906,9.097511,3.8237305,0.0,0.0,0.0
28491983953793,1.0097711,9.083155,3.8093736,0.0,0.0,0.0
28491986332908,1.0624132,9.0544405,3.8237305,0.0,0.0,0.0
28491988712022,1.1150553,9.0544405,3.818945,0.0,0.0,0.0
28491991091137,1.1485549,9.020942,3.8141594,0.0,0.0,0.0
28491993470252,1.1820544,9.016156,3.8093736,0.0,0.0,0.0
28491995849366,1.2011969,9.016156,3.8141594,0.0,0.0,0.0
28491998228481,1.1916257,9.006584,3.8093736,0.0,0.0,0.0
28492000607595,1.1772687,9.006584,3.818945,0.0,0.0,0.0
28492002986710,1.1485549,9.016156,3.8285162,0.0,0.0,0.0
28492005365824,1.1150553,9.001799,3.8333018,0.0,0.0,0.0
28492007744939,1.0719845,9.016156,3.8333018,0.0,0.0,0.0
28492010124054,1.0049855,9.030513,3.8237305,0.0,0.0,0.0
28492012503168,0.9810573,9.040084,3.8141594,0.0,0.0,0.0
28492014882283,0.9379865,9.0544405,3.7998023,0.0,0.0,0.0
28492017261397,0.9236295,9.040084,3.804588,0.0,0.0,0.0
28492019640512,0.9092726,9.040084,3.8093736,0.0,0.0,0.0
28492022019627,0.91884387,9.040084,3.8237305,0.0,0.0,0.0
28492024398741,0.9092726,9.073584,3.8285162,0.0,0.0,0.0
28492026777856,0.9284152,9.064013,3.8237305,0.0,0.0,0.0
28492029156970,0.971486,9.059227,3.8237305,0.0,0.0,0.0
28492031536085,0.9762716,9.059227,3.8380876,0.0,0.0,0.0
28492033915199,0.9954142,9.044869,3.8380876,0.0,0.0,0.0
28492036294314,1.0001999,9.040084,3.8380876,0.0,0.0,0.0
28492038673429,1.0241281,9.035298,3.842873,0.0,0.0,0.0
28492041052543,1.0289137,9.040084,3.8476589,0.0,0.0,0.0
28492043431658,1.0289137,9.040084,3.8380876,0.0,0.0,0.0
28492045810772,1.0336994,9.044869,3.8476589,0.0,0.0,0.0
28492048189887,1.0336994,9.040084,3.8524444,0.0,0.0,0.0
28492050569002,1.052842,9.040084,3.8476589,0.0,0.0,0.0
28492052948116,1.0241281,9.030513,3.8380876,0.0,0.0,0.0
28492055327231,1.0049855,9.035298,3.8524444,0.0,0.0,0.0
28492057706345,0.98584294,9.025727,3.8476589,0.0,0.0,0.0
28492060085460,0.9762716,9.020942,3.8333018,0.0,0.0,0.0
28492062464574,0.9523434,9.016156,3.8476589,0.0,0.0,0.0
28492064843689,0.95712906,9.068798,3.8572302,0.0,0.0,0.0
28492067222804,0.94755775,9.040084,3.871587,0.0,0.0,0.0
28492069601918,0.91884387,9.044869,3.871587,0.0,0.0,0.0
28492071981033,0.91405827,9.044869,3.871587,0.0,0.0,0.0
28492074360147,0.9379865,9.0544405,3.8572302,0.0,0.0,0.0
28492076739262,0.94277215,9.059227,3.8524444,0.0,0.0,0.0
28492079118377,0.971486,9.020942,3.885944,0.0,0.0,0.0
28492081497491,1.0145568,9.030513,3.885944,0.0,0.0,0.0
28492083876606,1.0241281,9.035298,3.8620157,0.0,0.0,0.0
28492086255720,1.0432707,9.025727,3.8524444,0.0,0.0,0.0
28492088634835,1.0863415,9.020942,3.8620157,0.0,0.0,0.0
28492091013897,1.0815558,9.001799,3.8620157,0.0,0.0,0.0
28492093393064,1.105484,8.987442,3.8524444,0.0,0.0,0.0
28492095772179,1.1294123,8.977871,3.8620157,0.0,0.0,0.0
28492098151293,1.1246266,9.001799,3.871587,0.0,0.0,0.0
28492100530408,1.0911272,9.001799,3.885944,0.0,0.0,0.0
28492102909470,1.0719845,8.968299,3.900301,0.0,0.0,0.0
28492105288637,1.0624132,8.968299,3.9050865,0.0,0.0,0.0
28492107667752,1.0289137,8.968299,3.9050865,0.0,0.0,0.0
28492110046866,1.0097711,8.963513,3.9194436,0.0,0.0,0.0
28492112425981,1.0241281,8.949157,3.9290147,0.0,0.0,0.0
28492114805095,1.0336994,8.939586,3.9290147,0.0,0.0,0.0
28492117184210,1.0193424,8.925228,3.9290147,0.0,0.0,0.0
28492119563324,1.0097711,8.953942,3.9481573,0.0,0.0,0.0
28492121942439,1.038485,8.9348,3.9481573,0.0,0.0,0.0
28492124321554,1.0719845,8.944371,3.9481573,0.0,0.0,0.0
28492126700668,1.0767702,8.925228,3.9481573,0.0,0.0,0.0
28492129079783,1.0959128,8.9348,3.9290147,0.0,0.0,0.0
28492131458897,1.105484,8.925228,3.9098723,0.0,0.0,0.0
28492133838012,1.134198,8.920443,3.9338005,0.0,0.0,0.0
28492136217127,1.119841,8.944371,3.938586,0.0,0.0,0.0
28492138596241,1.0863415,8.939586,3.9481573,0.0,0.0,0.0
28492140975356,1.0767702,8.963513,3.9481573,0.0,0.0,0.0
28492143354470,1.052842,8.977871,3.952943,0.0,0.0,0.0
28492145733585,1.0289137,8.968299,3.9720855,0.0,0.0,0.0
28492148112699,1.0049855,8.963513,3.9864426,0.0,0.0,0.0
28492150491814,0.9667004,8.963513,3.9720855,0.0,0.0,0.0
28492152870929,0.91884387,8.968299,3.9960139,0.0,0.0,0.0
28492155250043,0.9092726,8.977871,4.0007997,0.0,0.0,0.0
28492157629158,0.89491564,8.997013,4.0007997,0.0,0.0,0.0
28492160008272,0.89013004,9.006584,4.0151563,0.0,0.0,0.0
28492162387387,0.89491564,8.992228,4.005585,0.0,0.0,0.0
28492164766502,0.8853444,9.01137,4.0151563,0.0,0.0,0.0
28492167145564,0.89491564,9.020942,4.005585,0.0,0.0,0.0
28492169524731,0.89491564,9.006584,3.9960139,0.0,0.0,0.0
28492171903845,0.9236295,9.006584,3.991228,0.0,0.0,0.0
28492174282908,0.9762716,9.006584,4.0007997,0.0,0.0,0.0
28492176662074,1.0432707,9.006584,3.991228,0.0,0.0,0.0
28492179041189,1.052842,8.992228,3.991228,0.0,0.0,0.0
28492181420304,1.0624132,9.006584,3.9864426,0.0,0.0,0.0
28492183799418,1.0911272,9.001799,3.9768713,0.0,0.0,0.0
28492186178533,1.1102697,9.001799,3.9720855,0.0,0.0,0.0
28492188557595,1.1246266,9.006584,3.9673,0.0,0.0,0.0
28492190936762,1.1294123,9.001799,3.952943,0.0,0.0,0.0
28492193315877,1.1246266,8.958728,3.9433718,0.0,0.0,0.0
28492195694991,1.1294123,8.953942,3.9433718,0.0,0.0,0.0
28492198074106,1.1150553,8.968299,3.9433718,0.0,0.0,0.0
28492200453220,1.1437693,8.977871,3.952943,0.0,0.0,0.0
28492202832335,1.0911272,8.992228,3.9577286,0.0,0.0,0.0
28492205211449,1.0815558,9.006584,3.9481573,0.0,0.0,0.0
28492207590564,1.0767702,8.997013,3.9481573,0.0,0.0,0.0
28492209969679,1.0719845,9.001799,3.9338005,0.0,0.0,0.0
28492212348793,1.0911272,9.020942,3.9050865,0.0,0.0,0.0
28492214727908,1.1006985,9.025727,3.8955152,0.0,0.0,0.0
28492217107022,1.1150553,9.025727,3.9050865,0.0,0.0,0.0
28492219486137,1.1294123,9.020942,3.8811584,0.0,0.0,0.0
28492221865252,1.1676974,9.040084,3.8620157,0.0,0.0,0.0
28492224244366,1.1581261,9.044869,3.8572302,0.0,0.0,0.0
28492226623481,1.1772687,9.0544405,3.885944,0.0,0.0,0.0
28492229002595,1.2011969,9.016156,3.8907297,0.0,0.0,0.0
28492231381710,1.2346965,9.020942,3.8811584,0.0,0.0,0.0
28492233760824,1.2203395,9.01137,3.8524444,0.0,0.0,0.0
28492236139939,1.1820544,9.020942,3.871587,0.0,0.0,0.0
28492238519054,1.1964114,9.025727,3.8572302,0.0,0.0,0.0
28492240898168,1.18684,9.030513,3.8572302,0.0,0.0,0.0
28492243277283,1.1772687,9.006584,3.8572302,0.0,0.0,0.0
28492245656345,1.1676974,8.992228,3.8380876,0.0,0.0,0.0
28492248035512,1.1581261,8.992228,3.8380876,0.0,0.0,0.0
28492250414627,1.1485549,8.992228,3.8285162,0.0,0.0,0.0
28492252793741,1.1246266,9.006584,3.8380876,0.0,0.0,0.0
28492255172856,1.1150553,9.001799,3.8285162,0.0,0.0,0.0
28492257551970,1.1437693,9.020942,3.8380876,0.0,0.0,0.0
28492259931085,1.1581261,9.016156,3.8285162,0.0,0.0,0.0
28492262310147,1.1389836,9.059227,3.8333018,0.0,0.0,0.0
28492264689314,1.1389836,9.035298,3.8285162,0.0,0.0,0.0
28492267068429,1.1246266,9.049655,3.8476589,0.0,0.0,0.0
28492269447491,1.1389836,9.073584,3.8476589,0.0,0.0,0.0
28492271826658,1.1246266,9.049655,3.8380876,0.0,0.0,0.0
28492274205772,1.1246266,9.059227,3.8476589,0.0,0.0,0.0
28492276584887,1.0911272,9.064013,3.8333018,0.0,0.0,0.0
28492278964002,1.0767702,9.078369,3.8333018,0.0,0.0,0.0
28492281343116,1.0911272,9.068798,3.842873,0.0,0.0,0.0
28492283722231,1.0671989,9.059227,3.8333018,0.0,0.0,0.0
28492286101345,1.052842,9.035298,3.8333018,0.0,0.0,0.0
28492288480460,1.0289137,9.006584,3.8476589,0.0,0.0,0.0
28492290859574,1.0049855,9.016156,3.8237305,0.0,0.0,0.0
28492293238689,0.9762716,9.044869,3.8285162,0.0,0.0,0.0
28492295617804,0.95712906,9.044869,3.8333018,0.0,0.0,0.0
28492297996918,0.9236295,9.049655,3.8380876,0.0,0.0,0.0
28492300376033,0.89491564,9.035298,3.8572302,0.0,0.0,0.0
28492302755147,0.8997013,9.030513,3.842873,0.0,0.0,0.0
28492305134262,0.9092726,9.01137,3.8237305,0.0,0.0,0.0
28492307513377,0.8662018,9.016156,3.818945,0.0,0.0,0.0
28492309892491,0.8566305,9.030513,3.8141594,0.0,0.0,0.0
28492312271606,0.8662018,9.030513,3.8285162,0.0,0.0,0.0
28492314650720,0.85184485,9.035298,3.818945,0.0,0.0,0.0
28492317029835,0.8709874,9.068798,3.8285162,0.0,0.0,0.0
28492319408949,0.8662018,9.0544405,3.8093736,0.0,0.0,0.0
28492321788064,0.8757731,9.049655,3.8237305,0.0,0.0,0.0
28492324167179,0.89491564,9.064013,3.8141594,0.0,0.0,0.0
28492326546293,0.8662018,9.049655,3.7950168,0.0,0.0,0.0
28492328925408,0.85184485,9.064013,3.804588,0.0,0.0,0.0
28492331304522,0.8566305,9.073584,3.8141594,0.0,0.0,0.0
28492333683637,0.8566305,9.059227,3.818945,0.0,0.0,0.0
28492336062752,0.82313097,9.068798,3.818945,0.0,0.0,0.0
28492338441866,0.79920274,9.059227,3.804588,0.0,0.0,0.0
28492340820981,0.7896315,9.078369,3.818945,0.0,0.0,0.0
28492343200095,0.7848458,9.068798,3.818945,0.0,0.0,0.0
28492345579210,0.79441714,9.040084,3.8141594,0.0,0.0,0.0
28492347958324,0.7752745,9.025727,3.804588,0.0,0.0,0.0
28492350337387,0.7848458,9.035298,3.7950168,0.0,0.0,0.0
28492352716606,0.7704889,9.030513,3.8093736,0.0,0.0,0.0
28492355095668,0.7752745,9.040084,3.7998023,0.0,0.0,0.0
28492357474783,0.79441714,9.049655,3.790231,0.0,0.0,0.0
28492359853897,0.8039884,9.049655,3.7854455,0.0,0.0,0.0
28492362233012,0.8279166,9.044869,3.7950168,0.0,0.0,0.0
28492364612127,0.81834537,9.0544405,3.790231,0.0,0.0,0.0
28492366991293,0.8470592,9.064013,3.7806597,0.0,0.0,0.0
28492369370408,0.8327023,9.083155,3.7950168,0.0,0.0,0.0
28492371749470,0.85184485,9.068798,3.7758741,0.0,0.0,0.0
28492374128637,0.85184485,9.068798,3.7854455,0.0,0.0,0.0
28492376507752,0.83748794,9.083155,3.7663028,0.0,0.0,0.0
28492378886866,0.85184485,9.078369,3.7806597,0.0,0.0,0.0
28492381265981,0.8757731,9.083155,3.7854455,0.0,0.0,0.0
28492383645095,0.8662018,9.107083,3.7806597,0.0,0.0,0.0
28492386024210,0.85184485,9.092726,3.7663028,0.0,0.0,0.0
28492388403324,0.83748794,9.092726,3.7710886,0.0,0.0,0.0
28492390782439,0.82313097,9.083155,3.7998023,0.0,0.0,0.0
28492393161554,0.8422736,9.078369,3.790231,0.0,0.0,0.0
28492395540668,0.83748794,9.0544405,3.7806597,0.0,0.0,0.0
28492397919783,0.85184485,9.064013,3.7615173,0.0,0.0,0.0
28492400298897,0.8470592,9.073584,3.7710886,0.0,0.0,0.0
28492402678012,0.85184485,9.078369,3.7854455,0.0,0.0,0.0
28492405057127,0.8662018,9.064013,3.7710886,0.0,0.0,0.0
28492407436241,0.8709874,9.064013,3.7758741,0.0,0.0,0.0
28492409815356,0.90448695,9.035298,3.7806597,0.0,0.0,0.0
28492412194470,0.9092726,9.059227,3.7567315,0.0,0.0,0.0
28492414573585,0.89013004,9.073584,3.7567315,0.0,0.0,0.0
28492416952699,0.91405827,9.059227,3.7567315,0.0,0.0,0.0
28492419331814,0.91884387,9.073584,3.7663028,0.0,0.0,0.0
28492421710929,0.91884387,9.073584,3.7663028,0.0,0.0,0.0
28492424090043,0.9092726,9.073584,3.751946,0.0,0.0,0.0
28492426469158,0.8997013,9.064013,3.7663028,0.0,0.0,0.0
28492428848272,0.8853444,9.0544405,3.7710886,0.0,0.0,0.0
28492431227387,0.89491564,9.08794,3.7758741,0.0,0.0,0.0
28492433606502,0.8757731,9.073584,3.7950168,0.0,0.0,0.0
28492435985616,0.8805587,9.08794,3.7998023,0.0,0.0,0.0
28492438364731,0.8422736,9.078369,3.8093736,0.0,0.0,0.0
28492440743845,0.8470592,9.068798,3.8093736,0.0,0.0,0.0
28492443122960,0.85184485,9.08794,3.8093736,0.0,0.0,0.0
28492445502074,0.86141616,9.08794,3.8141594,0.0,0.0,0.0
28492447881189,0.85184485,9.078369,3.8285162,0.0,0.0,0.0
28492450260304,0.8566305,9.083155,3.804588,0.0,0.0,0.0
28492452639418,0.85184485,9.0544405,3.7998023,0.0,0.0,0.0
28492455018533,0.8422736,9.049655,3.8237305,0.0,0.0,0.0
28492457397647,0.85184485,9.059227,3.8333018,0.0,0.0,0.0
28492459776762,0.8709874,9.059227,3.8285162,0.0,0.0,0.0
28492462155877,0.89013004,9.078369,3.8524444,0.0,0.0,0.0
28492464534991,0.8997013,9.059227,3.842873,0.0,0.0,0.0
28492466914106,0.89491564,9.049655,3.8524444,0.0,0.0,0.0
28492469293220,0.8853444,9.020942,3.8476589,0.0,0.0,0.0
28492471672335,0.8757731,9.016156,3.842873,0.0,0.0,0.0
28492474051449,0.8470592,9.035298,3.8572302,0.0,0.0,0.0
28492476430564,0.86141616,9.044869,3.871587,0.0,0.0,0.0
28492478809679,0.8566305,9.049655,3.8763726,0.0,0.0,0.0
28492481188793,0.8470592,9.040084,3.885944,0.0,0.0,0.0
28492483567908,0.8422736,9.035298,3.8668015,0.0,0.0,0.0
28492485947022,0.8470592,9.035298,3.8763726,0.0,0.0,0.0
28492488326137,0.8662018,9.020942,3.8763726,0.0,0.0,0.0
28492490705252,0.85184485,9.035298,3.8907297,0.0,0.0,0.0
28492493084366,0.8566305,9.0544405,3.885944,0.0,0.0,0.0
28492495463481,0.8709874,9.030513,3.8811584,0.0,0.0,0.0
28492497842595,0.8327023,9.040084,3.8620157,0.0,0.0,0.0
28492500221658,0.8422736,9.064013,3.8811584,0.0,0.0,0.0
28492502600824,0.8327023,9.044869,3.9050865,0.0,0.0,0.0
28492504979939,0.81834537,9.044869,3.9146578,0.0,0.0,0.0
28492507359106,0.8039884,9.040084,3.9338005,0.0,0.0,0.0
28492509738168,0.79920274,9.049655,3.9146578,0.0,0.0,0.0
28492512117335,0.7896315,9.078369,3.9194436,0.0,0.0,0.0
28492514496449,0.7848458,9.064013,3.9290147,0.0,0.0,0.0
28492516875564,0.7800602,9.0544405,3.9290147,0.0,0.0,0.0
28492519254679,0.7800602,9.049655,3.9290147,0.0,0.0,0.0
28492521633793,0.7848458,9.059227,3.9338005,0.0,0.0,0.0
28492524012908,0.7704889,9.049655,3.9338005,0.0,0.0,0.0
28492526392022,0.7800602,9.049655,3.9242291,0.0,0.0,0.0
28492528771137,0.7800602,9.035298,3.900301,0.0,0.0,0.0
28492531150199,0.7752745,9.016156,3.9050865,0.0,0.0,0.0
28492533529366,0.80877405,9.030513,3.9146578,0.0,0.0,0.0
28492535908481,0.80877405,9.020942,3.9098723,0.0,0.0,0.0
28492538287595,0.81834537,9.030513,3.900301,0.0,0.0,0.0
28492540666710,0.8327023,9.025727,3.900301,0.0,0.0,0.0
28492543045824,0.81834537,9.01137,3.9050865,0.0,0.0,0.0
28492545424939,0.8279166,9.016156,3.9242291,0.0,0.0,0.0
28492547804054,0.8327023,9.006584,3.8955152,0.0,0.0,0.0
28492550183168,0.83748794,9.006584,3.9050865,0.0,0.0,0.0
28492552562283,0.8327023,8.992228,3.900301,0.0,0.0,0.0
28492554941397,0.8135597,9.016156,3.9050865,0.0,0.0,0.0
28492557320512,0.7800602,9.035298,3.885944,0.0,0.0,0.0
28492559699627,0.74177504,9.025727,3.9050865,0.0,0.0,0.0
28492562078741,0.7465607,8.997013,3.8955152,0.0,0.0,0.0
28492564457856,0.7465607,8.997013,3.8907297,0.0,0.0,0.0
28492566836970,0.7322037,9.006584,3.900301,0.0,0.0,0.0
28492569216085,0.7513463,9.006584,3.885944,0.0,0.0,0.0
28492571595199,0.74177504,8.977871,3.885944,0.0,0.0,0.0
28492573974314,0.7465607,8.992228,3.8955152,0.0,0.0,0.0
28492576353429,0.7609176,8.997013,3.8907297,0.0,0.0,0.0
28492578732543,0.76570326,8.997013,3.8907297,0.0,0.0,0.0
28492581111658,0.7800602,9.01137,3.900301,0.0,0.0,0.0
28492583490772,0.7896315,9.035298,3.8907297,0.0,0.0,0.0
28492585869887,0.7896315,9.020942,3.8955152,0.0,0.0,0.0
28492588249002,0.8039884,9.016156,3.871587,0.0,0.0,0.0
28492590628116,0.82313097,9.020942,3.885944,0.0,0.0,0.0
28492593007231,0.79920274,9.030513,3.885944,0.0,0.0,0.0
28492595386345,0.8327023,9.040084,3.885944,0.0,0.0,0.0
28492597765460,0.80877405,9.030513,3.8811584,0.0,0.0,0.0
28492600144574,0.81834537,9.030513,3.8811584,0.0,0.0,0.0
28492602523689,0.7848458,9.020942,3.8811584,0.0,0.0,0.0
28492604902804,0.8135597,9.025727,3.8811584,0.0,0.0,0.0
28492607281918,0.79920274,9.049655,3.885944,0.0,0.0,0.0
28492609661033,0.76570326,9.0544405,3.8811584,0.0,0.0,0.0
28492612040147,0.7609176,9.035298,3.900301,0.0,0.0,0.0
28492614419262,0.7513463,9.040084,3.8955152,0.0,0.0,0.0
28492616798377,0.7513463,9.044869,3.8955152,0.0,0.0,0.0
28492619177543,0.76570326,9.035298,3.9146578,0.0,0.0,0.0
28492621556606,0.7800602,9.040084,3.9194436,0.0,0.0,0.0
28492623935772,0.7896315,9.049655,3.9050865,0.0,0.0,0.0
28492626314887,0.8135597,9.049655,3.885944,0.0,0.0,0.0
28492628694002,0.8135597,9.035298,3.8907297,0.0,0.0,0.0
28492631073116,0.8279166,9.030513,3.871587,0.0,0.0,0.0
28492633452231,0.82313097,9.020942,3.8811584,0.0,0.0,0.0
28492635831345,0.8566305,9.01137,3.8907297,0.0,0.0,0.0
28492638210460,0.8566305,8.992228,3.8763726,0.0,0.0,0.0
28492640589574,0.8566305,8.9826565,3.8524444,0.0,0.0,0.0
28492642968689,0.8470592,8.977871,3.871587,0.0,0.0,0.0
28492645347804,0.83748794,9.001799,3.8668015,0.0,0.0,0.0
28492647726918,0.8135597,9.006584,3.8811584,0.0,0.0,0.0
28492650105981,0.79441714,9.020942,3.8668015,0.0,0.0,0.0
28492652485147,0.76570326,9.016156,3.8572302,0.0,0.0,0.0
28492654864262,0.7704889,9.006584,3.8668015,0.0,0.0,0.0
28492657243324,0.79441714,9.025727,3.885944,0.0,0.0,0.0
28492659622491,0.7896315,9.035298,3.9098723,0.0,0.0,0.0
28492662001606,0.7848458,9.040084,3.900301,0.0,0.0,0.0
28492664380720,0.7704889,9.044869,3.9050865,0.0,0.0,0.0
28492666759835,0.7896315,9.044869,3.900301,0.0,0.0,0.0
28492669138949,0.79441714,9.044869,3.8955152,0.0,0.0,0.0
28492671518064,0.82313097,9.025727,3.8955152,0.0,0.0,0.0
28492673897179,0.8470592,9.040084,3.8955152,0.0,0.0,0.0
28492676276293,0.8709874,9.044869,3.8763726,0.0,0.0,0.0
28492678655408,0.86141616,9.059227,3.8668015,0.0,0.0,0.0
28492681034522,0.8853444,9.064013,3.8811584,0.0,0.0,0.0
28492683413637,0.89491564,9.049655,3.871587,0.0,0.0,0.0
28492685792752,0.8709874,9.049655,3.8572302,0.0,0.0,0.0
28492688171866,0.8853444,9.049655,3.8476589,0.0,0.0,0.0
28492690550981,0.8805587,9.059227,3.8476589,0.0,0.0,0.0
28492692930095,0.8757731,9.049655,3.8620157,0.0,0.0,0.0
28492695309210,0.85184485,9.025727,3.871587,0.0,0.0,0.0
28492697688324,0.8566305,9.016156,3.8620157,0.0,0.0,0.0
28492700067439,0.8279166,9.064013,3.8572302,0.0,0.0,0.0
28492702446554,0.82313097,9.068798,3.8476589,0.0,0.0,0.0
28492704825668,0.83748794,9.0544405,3.842873,0.0,0.0,0.0
28492707204783,0.8279166,9.068798,3.8524444,0.0,0.0,0.0
28492709583897,0.82313097,9.068798,3.8476589,0.0,0.0,0.0
28492711963012,0.81834537,9.073584,3.8524444,0.0,0.0,0.0
28492714342127,0.8566305,9.0544405,3.842873,0.0,0.0,0.0
28492716721293,0.8997013,9.059227,3.8333018,0.0,0.0,0.0
28492719100408,0.91884387,9.073584,3.8141594,0.0,0.0,0.0
28492721479522,0.95712906,9.044869,3.7998023,0.0,0.0,0.0
28492723858637,0.971486,9.035298,3.8141594,0.0,0.0,0.0
28492726237752,0.9906286,9.035298,3.8285162,0.0,0.0,0.0
28492728616866,0.9954142,9.030513,3.8333018,0.0,0.0,0.0
28492730995981,1.0001999,9.016156,3.8237305,0.0,0.0,0.0
28492733375095,0.9667004,9.035298,3.8333018,0.0,0.0,0.0
28492735754210,0.9379865,9.044869,3.818945,0.0,0.0,0.0
28492738133324,0.8997013,9.049655,3.8476589,0.0,0.0,0.0
28492740512439,0.8709874,9.040084,3.8380876,0.0,0.0,0.0
28492742891554,0.83748794,9.049655,3.8572302,0.0,0.0,0.0
28492745270668,0.8135597,9.040084,3.8620157,0.0,0.0,0.0
28492747649783,0.79441714,9.049655,3.8524444,0.0,0.0,0.0
28492750028897,0.8039884,9.035298,3.842873,0.0,0.0,0.0
28492752408012,0.8039884,9.030513,3.8572302,0.0,0.0,0.0
28492754787127,0.8279166,9.035298,3.8620157,0.0,0.0,0.0
28492757166241,0.8327023,9.035298,3.8524444,0.0,0.0,0.0
28492759545356,0.8279166,9.0544405,3.8572302,0.0,0.0,0.0
28492761924470,0.8662018,9.044869,3.8620157,0.0,0.0,0.0
28492764303585,0.8757731,9.020942,3.871587,0.0,0.0,0.0
28492766682699,0.8805587,9.016156,3.8668015,0.0,0.0,0.0
28492769061814,0.8853444,9.016156,3.8668015,0.0,0.0,0.0
28492771440929,0.8757731,9.016156,3.8620157,0.0,0.0,0.0
28492773820043,0.80877405,9.040084,3.8811584,0.0,0.0,0.0
28492776199158,0.8039884,9.030513,3.8955152,0.0,0.0,0.0
28492778578272,0.80877405,9.030513,3.9098723,0.0,0.0,0.0
28492780957387,0.81834537,9.01137,3.8955152,0.0,0.0,0.0
28492783336502,0.8135597,9.020942,3.9146578,0.0,0.0,0.0
28492785715616,0.79441714,9.001799,3.9098723,0.0,0.0,0.0
28492788094731,0.79441714,9.006584,3.8907297,0.0,0.0,0.0
28492790473845,0.79920274,9.006584,3.8955152,0.0,0.0,0.0
28492792852960,0.8039884,9.01137,3.900301,0.0,0.0,0.0
28492795232127,0.7896315,9.006584,3.9098723,0.0,0.0,0.0
28492797611241,0.8039884,9.001799,3.9242291,0.0,0.0,0.0
28492799990304,0.8279166,8.987442,3.900301,0.0,0.0,0.0
28492802369470,0.81834537,8.987442,3.9098723,0.0,0.0,0.0
28492804748585,0.81834537,8.992228,3.9194436,0.0,0.0,0.0
28492807127699,0.8422736,8.9826565,3.9050865,0.0,0.0,0.0
28492809506814,0.8279166,8.963513,3.9098723,0.0,0.0,0.0
28492811885929,0.8327023,8.944371,3.9242291,0.0,0.0,0.0
28492814265043,0.8279166,8.944371,3.9194436,0.0,0.0,0.0
28492816644158,0.8039884,8.949157,3.9146578,0.0,0.0,0.0
28492819023272,0.79920274,8.958728,3.938586,0.0,0.0,0.0
28492821402387,0.83748794,8.973084,3.9290147,0.0,0.0,0.0
28492823781502,0.8566305,8.949157,3.9577286,0.0,0.0,0.0
28492826160616,0.8327023,8.973084,3.952943,0.0,0.0,0.0
28492828539731,0.82313097,8.963513,3.9625144,0.0,0.0,0.0
28492830918845,0.80877405,8.939586,3.9625144,0.0,0.0,0.0
28492833297960,0.82313097,8.968299,3.9673,0.0,0.0,0.0
28492835677074,0.7896315,8.9826565,3.9768713,0.0,0.0,0.0
28492838056189,0.8039884,8.977871,3.9768713,0.0,0.0,0.0
28492840435304,0.80877405,8.997013,3.991228,0.0,0.0,0.0
28492842814418,0.8039884,8.992228,3.9864426,0.0,0.0,0.0
28492845193533,0.80877405,8.9826565,3.9960139,0.0,0.0,0.0
28492847572647,0.8039884,8.973084,3.9960139,0.0,0.0,0.0
28492849951762,0.8135597,8.968299,3.9816568,0.0,0.0,0.0
28492852330877,0.8135597,8.953942,4.0007997,0.0,0.0,0.0
28492854709991,0.8135597,8.949157,4.005585,0.0,0.0,0.0
28492857089106,0.79920274,8.944371,4.0103707,0.0,0.0,0.0
28492859468220,0.7896315,8.949157,4.0103707,0.0,0.0,0.0
28492861847335,0.7896315,8.949157,4.0151563,0.0,0.0,0.0
28492864226502,0.79441714,8.958728,4.0295134,0.0,0.0,0.0
28492866605616,0.7800602,8.9826565,4.024728,0.0,0.0,0.0
28492868984731,0.76570326,9.001799,4.024728,0.0,0.0,0.0
28492871363793,0.75613195,8.987442,4.0151563,0.0,0.0,0.0
28492873742960,0.75613195,9.01137,4.0103707,0.0,0.0,0.0
28492876122074,0.7369894,9.020942,4.024728,0.0,0.0,0.0
28492878501189,0.72263247,9.020942,4.0103707,0.0,0.0,0.0
28492880880304,0.7178468,9.006584,4.0007997,0.0,0.0,0.0
28492883259418,0.74177504,9.001799,3.9816568,0.0,0.0,0.0
28492885638533,0.7369894,9.020942,3.9816568,0.0,0.0,0.0
28492888017647,0.74177504,9.016156,3.9960139,0.0,0.0,0.0
28492890396762,0.7369894,9.035298,3.991228,0.0,0.0,0.0
28492892775877,0.7369894,9.025727,3.9816568,0.0,0.0,0.0
28492895154991,0.7369894,9.030513,3.9720855,0.0,0.0,0.0
28492897534106,0.72741807,9.049655,3.9768713,0.0,0.0,0.0
28492899913220,0.7322037,9.044869,3.9720855,0.0,0.0,0.0
28492902292335,0.75613195,9.020942,3.9673,0.0,0.0,0.0
28492904671449,0.74177504,9.035298,3.9720855,0.0,0.0,0.0
28492907050564,0.7369894,9.040084,3.9625144,0.0,0.0,0.0
28492909429679,0.7465607,9.030513,3.952943,0.0,0.0,0.0
28492911808793,0.72741807,9.035298,3.952943,0.0,0.0,0.0
28492914187908,0.7513463,9.044869,3.952943,0.0,0.0,0.0
28492916567022,0.7513463,9.025727,3.9433718,0.0,0.0,0.0
28492918946137,0.7513463,9.035298,3.9146578,0.0,0.0,0.0
28492921325252,0.75613195,9.044869,3.9194436,0.0,0.0,0.0
28492923704366,0.7322037,9.020942,3.9194436,0.0,0.0,0.0
28492926083481,0.7369894,9.0544405,3.900301,0.0,0.0,0.0
28492928462595,0.7465607,9.049655,3.9050865,0.0,0.0,0.0
28492930841710,0.75613195,9.040084,3.8811584,0.0,0.0,0.0
28492933220824,0.75613195,9.016156,3.8668015,0.0,0.0,0.0
28492935599939,0.7800602,9.059227,3.8524444,0.0,0.0,0.0
28492937979054,0.76570326,9.068798,3.8476589,0.0,0.0,0.0
28492940358220,0.7369894,9.073584,3.8476589,0.0,0.0,0.0
28492942737335,0.7322037,9.0544405,3.8380876,0.0,0.0,0.0
28492945116449,0.7322037,9.059227,3.842873,0.0,0.0,0.0
28492947495564,0.7513463,9.064013,3.8476589,0.0,0.0,0.0
28492949874679,0.7369894,9.083155,3.842873,0.0,0.0,0.0
28492952253793,0.7178468,9.083155,3.8285162,0.0,0.0,0.0
28492954632908,0.7178468,9.064013,3.8141594,0.0,0.0,0.0
28492957012022,0.7178468,9.064013,3.818945,0.0,0.0,0.0
28492959391137,0.72741807,9.0544405,3.7998023,0.0,0.0,0.0
28492961770252,0.71306115,9.049655,3.804588,0.0,0.0,0.0
28492964149366,0.71306115,9.068798,3.818945,0.0,0.0,0.0
28492966528481,0.70348984,9.059227,3.7950168,0.0,0.0,0.0
28492968907595,0.72741807,9.040084,3.7710886,0.0,0.0,0.0
28492971286710,0.7465607,9.064013,3.790231,0.0,0.0,0.0
28492973665824,0.7609176,9.078369,3.7998023,0.0,0.0,0.0
28492976044939,0.7704889,9.059227,3.7806597,0.0,0.0,0.0
28492978424054,0.7704889,9.044869,3.790231,0.0,0.0,0.0
28492980803168,0.7752745,9.025727,3.804588,0.0,0.0,0.0
28492983182283,0.76570326,9.020942,3.7998023,0.0,0.0,0.0
28492985561397,0.7848458,9.01137,3.7950168,0.0,0.0,0.0
28492987940512,0.79441714,9.016156,3.790231,0.0,0.0,0.0
28492990319627,0.79920274,9.020942,3.7710886,0.0,0.0,0.0
28492992698741,0.79920274,9.01137,3.7615173,0.0,0.0,0.0
28492995077856,0.7800602,9.025727,3.7710886,0.0,0.0,0.0
28492997456970,0.75613195,9.025727,3.7663028,0.0,0.0,0.0
28492999836085,0.7465607,9.040084,3.7663028,0.0,0.0,0.0
28493002215252,0.74177504,9.0544405,3.7471602,0.0,0.0,0.0
28493004594366,0.7178468,9.08794,3.751946,0.0,0.0,0.0
28493006973481,0.6987042,9.078369,3.7615173,0.0,0.0,0.0
28493009352595,0.6987042,9.064013,3.7567315,0.0,0.0,0.0
28493011731710,0.6795616,9.092726,3.7710886,0.0,0.0,0.0
28493014110824,0.70348984,9.107083,3.7854455,0.0,0.0,0.0
28493016489939,0.74177504,9.102298,3.7710886,0.0,0.0,0.0
28493018869054,0.74177504,9.107083,3.7806597,0.0,0.0,0.0
28493021248168,0.7513463,9.092726,3.7758741,0.0,0.0,0.0
28493023627283,0.7609176,9.102298,3.7710886,0.0,0.0,0.0
28493026006397,0.75613195,9.083155,3.7663028,0.0,0.0,0.0
28493028385512,0.7704889,9.083155,3.7615173,0.0,0.0,0.0
28493030764627,0.8039884,9.073584,3.751946,0.0,0.0,0.0
28493033143689,0.79441714,9.083155,3.7423747,0.0,0.0,0.0
28493035522856,0.79441714,9.078369,3.7328033,0.0,0.0,0.0
28493037901970,0.7896315,9.068798,3.737589,0.0,0.0,0.0
28493040281085,0.7848458,9.064013,3.7423747,0.0,0.0,0.0
28493042660199,0.81834537,9.08794,3.7280176,0.0,0.0,0.0
28493045039314,0.8135597,9.097511,3.7423747,0.0,0.0,0.0
28493047418429,0.82313097,9.08794,3.737589,0.0,0.0,0.0
28493049797543,0.8279166,9.08794,3.737589,0.0,0.0,0.0
28493052176658,0.8327023,9.073584,3.7471602,0.0,0.0,0.0
28493054555772,0.8662018,9.073584,3.737589,0.0,0.0,0.0
28493056934887,0.8566305,9.092726,3.7471602,0.0,0.0,0.0
28493059314002,0.8566305,9.111869,3.737589,0.0,0.0,0.0
28493061693168,0.8662018,9.111869,3.737589,0.0,0.0,0.0
28493064072283,0.89013004,9.116654,3.7280176,0.0,0.0,0.0
28493066451397,0.89491564,9.126225,3.7280176,0.0,0.0,0.0
28493068830512,0.8805587,9.12144,3.7136607,0.0,0.0,0.0
28493071209627,0.89491564,9.126225,3.7328033,0.0,0.0,0.0
28493073588741,0.8997013,9.107083,3.7088752,0.0,0.0,0.0
28493075967856,0.89013004,9.111869,3.7184465,0.0,0.0,0.0
28493078346970,0.8997013,9.092726,3.737589,0.0,0.0,0.0
28493080726085,0.89013004,9.08794,3.737589,0.0,0.0,0.0
28493083105199,0.89491564,9.107083,3.7280176,0.0,0.0,0.0
28493085484314,0.8853444,9.08794,3.7328033,0.0,0.0,0.0
28493087863429,0.8662018,9.08794,3.737589,0.0,0.0,0.0
28493090242543,0.8757731,9.097511,3.7184465,0.0,0.0,0.0
28493092621658,0.8422736,9.126225,3.7328033,0.0,0.0,0.0
28493095000772,0.8279166,9.131011,3.7423747,0.0,0.0,0.0
28493097379887,0.83748794,9.140582,3.751946,0.0,0.0,0.0
28493099759002,0.8470592,9.126225,3.751946,0.0,0.0,0.0
28493102138116,0.8566305,9.131011,3.7663028,0.0,0.0,0.0
28493104517231,0.8470592,9.145369,3.7423747,0.0,0.0,0.0
28493106896345,0.8470592,9.140582,3.7471602,0.0,0.0,0.0
28493109275460,0.85184485,9.159725,3.751946,0.0,0.0,0.0
28493111654574,0.8662018,9.135797,3.7615173,0.0,0.0,0.0
28493114033689,0.8757731,9.111869,3.7615173,0.0,0.0,0.0
28493116412804,0.8662018,9.107083,3.7567315,0.0,0.0,0.0
28493118791918,0.89013004,9.111869,3.751946,0.0,0.0,0.0
28493121171033,0.8853444,9.12144,3.751946,0.0,0.0,0.0
28493123550147,0.86141616,9.135797,3.751946,0.0,0.0,0.0
28493125929314,0.86141616,9.116654,3.7567315,0.0,0.0,0.0
28493128308429,0.86141616,9.126225,3.7663028,0.0,0.0,0.0
28493130687543,0.86141616,9.131011,3.7710886,0.0,0.0,0.0
28493133066658,0.83748794,9.126225,3.7854455,0.0,0.0,0.0
28493135445772,0.8470592,9.12144,3.7758741,0.0,0.0,0.0
28493137824887,0.8327023,9.107083,3.7854455,0.0,0.0,0.0
28493140204002,0.82313097,9.102298,3.7854455,0.0,0.0,0.0
28493142583116,0.79920274,9.092726,3.7854455,0.0,0.0,0.0
28493144962231,0.79441714,9.092726,3.7710886,0.0,0.0,0.0
28493147341345,0.79920274,9.083155,3.7758741,0.0,0.0,0.0
28493149720460,0.8135597,9.08794,3.7854455,0.0,0.0,0.0
28493152099522,0.80877405,9.064013,3.7998023,0.0,0.0,0.0
28493154478689,0.79920274,9.078369,3.804588,0.0,0.0,0.0
28493156857804,0.79920274,9.08794,3.804588,0.0,0.0,0.0
28493159236918,0.79920274,9.102298,3.7998023,0.0,0.0,0.0
28493161616033,0.79441714,9.107083,3.818945,0.0,0.0,0.0
28493163995147,0.8135597,9.08794,3.8285162,0.0,0.0,0.0
28493166374262,0.79920274,9.102298,3.8333018,0.0,0.0,0.0
28493168753377,0.8039884,9.092726,3.8620157,0.0,0.0,0.0
28493171132491,0.7896315,9.097511,3.8380876,0.0,0.0,0.0
28493173511554,0.7896315,9.097511,3.8476589,0.0,0.0,0.0
28493175890772,0.76570326,9.08794,3.8237305,0.0,0.0,0.0
28493178269835,0.7752745,9.092726,3.8285162,0.0,0.0,0.0
28493180649002,0.7609176,9.068798,3.8237305,0.0,0.0,0.0
28493183028116,0.7465607,9.064013,3.8285162,0.0,0.0,0.0
28493185407231,0.75613195,9.0544405,3.8524444,0.0,0.0,0.0
28493187786345,0.7369894,9.064013,3.8572302,0.0,0.0,0.0
28493190165460,0.72263247,9.064013,3.8572302,0.0,0.0,0.0
28493192544574,0.7369894,9.08794,3.8907297,0.0,0.0,0.0
28493194923689,0.7465607,9.08794,3.8668015,0.0,0.0,0.0
28493197302804,0.7704889,9.083155,3.8907297,0.0,0.0,0.0
28493199681918,0.7896315,9.068798,3.871587,0.0,0.0,0.0
28493202061033,0.80877405,9.078369,3.8955152,0.0,0.0,0.0
28493204440147,0.80877405,9.068798,3.8907297,0.0,0.0,0.0
28493206819262,0.8327023,9.044869,3.8907297,0.0,0.0,0.0
28493209198377,0.8327023,9.025727,3.871587,0.0,0.0,0.0
28493211577491,0.8470592,8.992228,3.8763726,0.0,0.0,0.0
28493213956606,0.83748794,8.9826565,3.8668015,0.0,0.0,0.0
28493216335720,0.8279166,8.977871,3.8620157,0.0,0.0,0.0
28493218714835,0.83748794,8.977871,3.8763726,0.0,0.0,0.0
28493221093949,0.8135597,8.973084,3.8907297,0.0,0.0,0.0
28493223473064,0.7896315,8.944371,3.885944,0.0,0.0,0.0
28493225852179,0.76570326,8.963513,3.8955152,0.0,0.0,0.0
28493228231345,0.7609176,8.968299,3.885944,0.0,0.0,0.0
28493230610460,0.72741807,8.963513,3.8763726,0.0,0.0,0.0
28493232989574,0.72263247,8.963513,3.8955152,0.0,0.0,0.0
28493235368689,0.71306115,8.973084,3.9098723,0.0,0.0,0.0
28493237747804,0.72263247,8.963513,3.9242291,0.0,0.0,0.0
28493240126918,0.72263247,8.968299,3.9290147,0.0,0.0,0.0
28493242506033,0.74177504,8.9826565,3.9146578,0.0,0.0,0.0
28493244885147,0.75613195,8.973084,3.938586,0.0,0.0,0.0
28493247264262,0.8039884,8.953942,3.9433718,0.0,0.0,0.0
28493249643377,0.8135597,8.9826565,3.9481573,0.0,0.0,0.0
28493252022491,0.86141616,8.992228,3.952943,0.0,0.0,0.0
28493254401606,0.8805587,8.963513,3.9768713,0.0,0.0,0.0
28493256780720,0.90448695,8.920443,3.9720855,0.0,0.0,0.0
28493259159835,0.91884387,8.944371,3.9673,0.0,0.0,0.0
28493261538949,0.9379865,8.949157,3.9577286,0.0,0.0,0.0
28493263918064,0.9619147,8.9348,3.9577286,0.0,0.0,0.0
28493266297179,0.9667004,8.886943,3.9816568,0.0,0.0,0.0
28493268676293,0.9667004,8.882157,3.9433718,0.0,0.0,0.0
28493271055408,0.94277215,8.853444,3.9433718,0.0,0.0,0.0
28493273434522,0.91405827,8.863015,3.9290147,0.0,0.0,0.0
28493275813637,0.8709874,8.867801,3.9290147,0.0,0.0,0.0
28493278192804,0.8327023,8.839087,3.9242291,0.0,0.0,0.0
28493280571918,0.79441714,8.848659,3.9194436,0.0,0.0,0.0
28493282951033,0.71306115,8.819944,3.8955152,0.0,0.0,0.0
28493285330147,0.6412765,8.834301,3.9194436,0.0,0.0,0.0
28493287709262,0.6029913,8.886943,3.9290147,0.0,0.0,0.0
28493290088377,0.5838487,8.915657,3.938586,0.0,0.0,0.0
28493292467491,0.55513483,8.925228,3.938586,0.0,0.0,0.0
28493294846606,0.51206404,8.958728,3.9577286,0.0,0.0,0.0
28493297225720,0.5168497,8.968299,3.9433718,0.0,0.0,0.0
28493299604835,0.5312066,8.997013,3.9481573,0.0,0.0,0.0
28493301983949,0.5168497,8.992228,3.9481573,0.0,0.0,0.0
28493304363064,0.57427746,9.059227,3.9673,0.0,0.0,0.0
28493306742179,0.526421,9.078369,3.9673,0.0,0.0,0.0
28493309121293,0.60777694,9.083155,3.9050865,0.0,0.0,0.0
28493311500408,0.57427746,9.092726,3.9146578,0.0,0.0,0.0
28493313879522,0.56470615,9.068798,3.8955152,0.0,0.0,0.0
28493316258637,0.6029913,9.083155,3.9577286,0.0,0.0,0.0
28493318637752,0.57427746,9.111869,4.0103707,0.0,0.0,0.0
28493321016866,0.57906306,9.150154,4.005585,0.0,0.0,0.0
28493323395981,0.55034924,9.145369,3.991228,0.0,0.0,0.0
28493325775095,0.5886344,9.140582,3.9433718,0.0,0.0,0.0
28493328154210,0.5455636,9.178867,3.9050865,0.0,0.0,0.0
28493330533377,0.526421,9.193225,3.8237305,0.0,0.0,0.0
28493332912491,0.526421,9.178867,3.842873,0.0,0.0,0.0
28493335291606,0.45942193,9.221938,3.900301,0.0,0.0,0.0
28493337670720,0.43070808,9.245867,3.9290147,0.0,0.0,0.0
28493340049835,0.39720857,9.23151,3.9098723,0.0,0.0,0.0
28493342428949,0.3589234,9.250652,3.9050865,0.0,0.0,0.0
28493344808064,0.29192436,9.250652,3.8620157,0.0,0.0,0.0
28493347187179,0.30149564,9.226724,3.8524444,0.0,0.0,0.0
28493349566293,0.32063824,9.202796,3.8524444,0.0,0.0,0.0
28493351945408,0.32542387,9.178867,3.8668015,0.0,0.0,0.0
28493354324522,0.34456646,9.164511,3.9050865,0.0,0.0,0.0
28493356703637,0.3684947,9.174082,3.9146578,0.0,0.0,0.0
28493359082752,0.38763726,9.15494,3.900301,0.0,0.0,0.0
28493361461866,0.40677986,9.126225,3.8572302,0.0,0.0,0.0
28493363840981,0.46899325,9.135797,3.8668015,0.0,0.0,0.0
28493366220095,0.47856453,9.140582,3.8572302,0.0,0.0,0.0
28493368599210,0.5072784,9.145369,3.8668015,0.0,0.0,0.0
28493370978324,0.55513483,9.159725,3.8907297,0.0,0.0,0.0
28493373357439,0.6221339,9.174082,3.8811584,0.0,0.0,0.0
28493375736554,0.6987042,9.126225,3.8668015,0.0,0.0,0.0
28493378115720,0.7752745,9.107083,3.8572302,0.0,0.0,0.0
28493380494835,0.82313097,9.111869,3.8668015,0.0,0.0,0.0
28493382873949,0.83748794,9.068798,3.885944,0.0,0.0,0.0
28493385253064,0.8566305,8.992228,3.8668015,0.0,0.0,0.0
28493387632179,0.8757731,9.01137,3.8811584,0.0,0.0,0.0
28493390011293,0.8709874,8.992228,3.8476589,0.0,0.0,0.0
28493392390408,0.8662018,8.973084,3.8380876,0.0,0.0,0.0
28493394769522,0.8422736,8.963513,3.8237305,0.0,0.0,0.0
28493397148637,0.7896315,9.01137,3.842873,0.0,0.0,0.0
28493399527752,0.7178468,9.0544405,3.8285162,0.0,0.0,0.0
28493401906866,0.6269195,9.025727,3.804588,0.0,0.0,0.0
28493404285981,0.57427746,9.078369,3.818945,0.0,0.0,0.0
28493406665095,0.4833502,9.126225,3.8285162,0.0,0.0,0.0
28493409044210,0.45942193,9.097511,3.790231,0.0,0.0,0.0
28493411423324,0.45942193,9.073584,3.790231,0.0,0.0,0.0
28493413802439,0.5072784,9.097511,3.7567315,0.0,0.0,0.0
28493416181502,0.5455636,9.111869,3.790231,0.0,0.0,0.0
28493418560668,0.6364908,9.083155,3.8237305,0.0,0.0,0.0
28493420939783,0.6843473,9.08794,3.8285162,0.0,0.0,0.0
28493423318949,0.75613195,9.068798,3.8141594,0.0,0.0,0.0
28493425698064,0.8757731,9.064013,3.7806597,0.0,0.0,0.0
28493428077179,0.9667004,9.064013,3.751946,0.0,0.0,0.0
28493430456293,1.0719845,9.073584,3.751946,0.0,0.0,0.0
28493432835408,1.1581261,9.102298,3.7806597,0.0,0.0,0.0
28493435214522,1.1772687,9.092726,3.7806597,0.0,0.0,0.0
28493437593637,1.1964114,9.111869,3.7615173,0.0,0.0,0.0
28493439972752,1.1772687,9.116654,3.7280176,0.0,0.0,0.0
28493442351866,1.1294123,9.150154,3.723232,0.0,0.0,0.0
28493444730981,1.0719845,9.164511,3.6993039,0.0,0.0,0.0
28493447110095,1.0097711,9.174082,3.7088752,0.0,0.0,0.0
28493449489210,0.9284152,9.183653,3.7184465,0.0,0.0,0.0
28493451868324,0.8470592,9.188439,3.7567315,0.0,0.0,0.0
28493454247439,0.8039884,9.193225,3.790231,0.0,0.0,0.0
28493456626554,0.7609176,9.2075815,3.7567315,0.0,0.0,0.0
28493459005668,0.71306115,9.2075815,3.7663028,0.0,0.0,0.0
28493461384835,0.7704889,9.188439,3.7471602,0.0,0.0,0.0
28493463763949,0.90448695,9.193225,3.7806597,0.0,0.0,0.0
28493466143064,1.0097711,9.15494,3.7710886,0.0,0.0,0.0
28493468522179,1.2059826,9.126225,3.7758741,0.0,0.0,0.0
28493470901293,1.3447664,9.102298,3.7758741,0.0,0.0,0.0
28493473280408,1.4500505,9.097511,3.751946,0.0,0.0,0.0
28493475659522,1.4691931,9.030513,3.7567315,0.0,0.0,0.0
28493478038637,1.5170496,8.963513,3.6993039,0.0,0.0,0.0
28493480417752,1.4261223,8.997013,3.7136607,0.0,0.0,0.0
28493482796866,1.3304094,8.977871,3.6658044,0.0,0.0,0.0
28493485175981,1.2203395,8.963513,3.7088752,0.0,0.0,0.0
28493487555095,1.052842,8.920443,3.67059,0.0,0.0,0.0
28493489934210,0.89013004,8.953942,3.7136607,0.0,0.0,0.0
28493492313324,0.74177504,8.925228,3.6897326,0.0,0.0,0.0
28493494692439,0.66041905,8.9348,3.6897326,0.0,0.0,0.0
28493497071554,0.57906306,8.930014,3.6801612,0.0,0.0,0.0
28493499450668,0.55513483,8.963513,3.6658044,0.0,0.0,0.0
28493501829783,0.5455636,8.906086,3.67059,0.0,0.0,0.0
28493504208949,0.60777694,8.906086,3.694518,0.0,0.0,0.0
28493506588012,0.66041905,8.930014,3.723232,0.0,0.0,0.0
28493508967179,0.7513463,8.915657,3.67059,0.0,0.0,0.0
28493511346241,0.91884387,8.920443,3.6610186,0.0,0.0,0.0
28493513725408,0.9954142,8.963513,3.6514473,0.0,0.0,0.0
28493516104522,1.1006985,8.977871,3.6466618,0.0,0.0,0.0
28493518483637,1.1916257,9.01137,3.6323047,0.0,0.0,0.0
28493520862752,1.1820544,8.977871,3.7136607,0.0,0.0,0.0
28493523241866,1.253839,9.020942,3.6610186,0.0,0.0,0.0
28493525620981,0.9619147,9.126225,3.7040894,0.0,0.0,0.0
28493528000095,0.8039884,9.083155,3.6466618,0.0,0.0,0.0
28493530379210,0.53599226,9.164511,3.7710886,0.0,0.0,0.0
28493532758324,0.11485548,9.23151,3.7423747,0.0,0.0,0.0
28493535137439,-0.1052842,9.332008,3.8380876,0.0,0.0,0.0
28493537516554,-0.2009971,9.236296,3.8380876,0.0,0.0,0.0
28493539895668,-0.2440679,9.298509,3.885944,0.0,0.0,0.0
28493542274783,-0.4211368,9.293723,3.818945,0.0,0.0,0.0
28493544653897,-0.27756742,9.265009,3.7806597,0.0,0.0,0.0
28493547033064,-0.1052842,9.188439,3.723232,0.0,0.0,0.0
28493549412179,0.043070808,9.19801,3.7088752,0.0,0.0,0.0
28493551791293,0.2105684,9.159725,3.7471602,0.0,0.0,0.0
28493554170408,0.4833502,9.073584,3.7328033,0.0,0.0,0.0
28493556549522,0.6364908,9.035298,3.7328033,0.0,0.0,0.0
28493558928637,0.74177504,9.049655,3.6275191,0.0,0.0,0.0
28493561307752,0.8709874,9.040084,3.5796626,0.0,0.0,0.0
28493563686866,0.9523434,8.997013,3.5174494,0.0,0.0,0.0
28493566065981,0.8805587,9.035298,3.5700915,0.0,0.0,0.0
28493568445095,0.80877405,9.092726,3.5700915,0.0,0.0,0.0
28493570824210,0.6987042,9.097511,3.6227336,0.0,0.0,0.0
28493573203324,0.5694918,9.116654,3.5844483,0.0,0.0,0.0
28493575582439,0.4833502,9.178867,3.574877,0.0,0.0,0.0
28493577961554,0.38285163,9.212367,3.5126636,0.0,0.0,0.0
28493580340668,0.35413775,9.23151,3.507878,0.0,0.0,0.0
28493582719783,0.33499518,9.288938,3.5030923,0.0,0.0,0.0
28493585098897,0.2727818,9.360723,3.6323047,0.0,0.0,0.0
28493587478012,0.29192436,9.379865,3.6801612,0.0,0.0,0.0
28493589857179,0.30149564,9.30808,3.6993039,0.0,0.0,0.0
28493592236293,0.41156548,9.355937,3.6179478,0.0,0.0,0.0
28493594615408,0.45942193,9.38465,3.5557344,0.0,0.0,0.0
28493596994522,0.64606214,9.399008,3.493521,0.0,0.0,0.0
28493599373637,0.72741807,9.346365,3.574877,0.0,0.0,0.0
28493601752752,0.89491564,9.269794,3.5700915,0.0,0.0,0.0
28493604131866,1.052842,9.355937,3.7615173,0.0,0.0,0.0
28493606510981,1.0097711,9.250652,3.6801612,0.0,0.0,0.0
28493608890043,1.1246266,9.327223,3.6370904,0.0,0.0,0.0
28493611269158,1.052842,9.202796,3.4695928,0.0,0.0,0.0
28493613648324,1.0719845,9.274581,3.4695928,0.0,0.0,0.0
28493616027439,1.0624132,9.274581,3.3499517,0.0,0.0,0.0
28493618406554,1.0911272,9.293723,3.455236,0.0,0.0,0.0
28493620785668,1.052842,9.221938,3.455236,0.0,0.0,0.0
28493623164783,0.9762716,9.312865,3.4695928,0.0,0.0,0.0
28493625543897,0.90448695,9.245867,3.3020952,0.0,0.0,0.0
28493627923064,0.85184485,9.226724,3.211168,0.0,0.0,0.0
28493630302179,0.8662018,9.260223,3.2638102,0.0,0.0,0.0
28493632681293,0.9092726,9.346365,3.5030923,0.0,0.0,0.0
28493635060408,0.9236295,9.2793665,3.641876,0.0,0.0,0.0
28493637439522,0.9954142,9.202796,3.7088752,0.0,0.0,0.0
28493639818637,1.0001999,9.131011,3.6131623,0.0,0.0,0.0
28493642197752,1.0241281,9.178867,3.4121652,0.0,0.0,0.0
28493644576866,1.0289137,9.092726,3.211168,0.0,0.0,0.0
28493646955981,1.0911272,9.08794,3.2446675,0.0,0.0,0.0
28493649335095,1.038485,9.107083,3.397808,0.0,0.0,0.0
28493651714210,0.94277215,9.178867,3.507878,0.0,0.0,0.0
28493654093324,0.8997013,9.217153,3.5509489,0.0,0.0,0.0
28493656472439,0.79441714,9.23151,3.546163,0.0,0.0,0.0
28493658851554,0.7322037,9.293723,3.4839497,0.0,0.0,0.0
28493661230668,0.7082755,9.336794,3.4600215,0.0,0.0,0.0
28493663609783,0.7513463,9.274581,3.4839497,0.0,0.0,0.0
28493665988897,0.80877405,9.241081,3.5988052,0.0,0.0,0.0
28493668368064,0.8853444,9.2075815,3.6801612,0.0,0.0,0.0
28493670747179,0.94277215,9.202796,3.737589,0.0,0.0,0.0
28493673126293,0.9619147,9.135797,3.6849468,0.0,0.0,0.0
28493675505408,0.98584294,9.131011,3.5988052,0.0,0.0,0.0
28493677884522,0.95712906,9.116654,3.5270207,0.0,0.0,0.0
28493680263637,0.89491564,9.092726,3.5413775,0.0,0.0,0.0
28493682642752,0.82313097,9.059227,3.603591,0.0,0.0,0.0
28493685021866,0.7848458,9.078369,3.6610186,0.0,0.0,0.0
28493687400981,0.6891329,9.111869,3.7136607,0.0,0.0,0.0
28493689780095,0.66041905,9.092726,3.723232,0.0,0.0,0.0
28493692159210,0.6652047,9.097511,3.694518,0.0,0.0,0.0
28493694538324,0.7082755,9.092726,3.6849468,0.0,0.0,0.0
28493696917439,0.7704889,9.083155,3.7088752,0.0,0.0,0.0
28493699296554,0.8709874,9.025727,3.7280176,0.0,0.0,0.0
28493701675720,0.9523434,9.030513,3.7854455,0.0,0.0,0.0
28493704054835,1.0001999,9.016156,3.8476589,0.0,0.0,0.0
28493706433949,1.0241281,8.992228,3.8668015,0.0,0.0,0.0
28493708813064,1.0193424,8.968299,3.8285162,0.0,0.0,0.0
28493711192179,1.0241281,8.963513,3.7615173,0.0,0.0,0.0
28493713571293,0.95712906,8.953942,3.7471602,0.0,0.0,0.0
28493715950356,0.8997013,8.953942,3.818945,0.0,0.0,0.0
28493718329522,0.8805587,8.925228,3.8811584,0.0,0.0,0.0
28493720708637,0.85184485,8.939586,3.9098723,0.0,0.0,0.0
28493723087752,0.79920274,8.925228,3.871587,0.0,0.0,0.0
28493725466866,0.8135597,8.9348,3.8476589,0.0,0.0,0.0
28493727845981,0.8566305,8.944371,3.8285162,0.0,0.0,0.0
28493730225095,0.8566305,8.949157,3.818945,0.0,0.0,0.0
28493732604210,0.91405827,8.953942,3.8237305,0.0,0.0,0.0
28493734983324,0.9762716,8.953942,3.842873,0.0,0.0,0.0
28493737362439,1.038485,8.920443,3.8907297,0.0,0.0,0.0
28493739741554,1.0767702,8.920443,3.900301,0.0,0.0,0.0
28493742120668,1.0911272,8.9108715,3.885944,0.0,0.0,0.0
28493744499835,1.1150553,8.915657,3.871587,0.0,0.0,0.0
28493746878949,1.0863415,8.944371,3.8141594,0.0,0.0,0.0
28493749258064,1.0624132,8.9826565,3.8285162,0.0,0.0,0.0
28493751637179,1.0193424,8.992228,3.8668015,0.0,0.0,0.0
28493754016293,0.98584294,9.020942,3.9098723,0.0,0.0,0.0
28493756395408,0.9667004,9.0544405,3.9050865,0.0,0.0,0.0
28493758774522,0.91884387,9.049655,3.8811584,0.0,0.0,0.0
28493761153637,0.89013004,9.064013,3.8572302,0.0,0.0,0.0
28493763532752,0.8853444,9.073584,3.8476589,0.0,0.0,0.0
28493765911866,0.8853444,9.083155,3.8237305,0.0,0.0,0.0
28493768290981,0.8853444,9.073584,3.8572302,0.0,0.0,0.0
28493770670095,0.8997013,9.068798,3.871587,0.0,0.0,0.0
28493773049210,0.9284152,9.049655,3.871587,0.0,0.0,0.0
28493775428324,0.94277215,9.044869,3.8333018,0.0,0.0,0.0
28493777807439,0.9284152,9.059227,3.7758741,0.0,0.0,0.0
28493780186606,0.8997013,9.068798,3.7088752,0.0,0.0,0.0
28493782565720,0.90448695,9.068798,3.694518,0.0,0.0,0.0
28493784944783,0.8470592,9.059227,3.7088752,0.0,0.0,0.0
28493787323949,0.83748794,9.0544405,3.737589,0.0,0.0,0.0
28493789703064,0.8135597,9.083155,3.7280176,0.0,0.0,0.0
28493792082179,0.7800602,9.102298,3.6993039,0.0,0.0,0.0
28493794461293,0.7800602,9.126225,3.656233,0.0,0.0,0.0
28493796840408,0.76570326,9.164511,3.6227336,0.0,0.0,0.0
28493799219522,0.7369894,9.183653,3.641876,0.0,0.0,0.0
28493801598637,0.74177504,9.2075815,3.6849468,0.0,0.0,0.0
28493803977752,0.7465607,9.23151,3.723232,0.0,0.0,0.0
28493806356866,0.7322037,9.217153,3.7567315,0.0,0.0,0.0
28493808735981,0.7465607,9.23151,3.7567315,0.0,0.0,0.0
28493811115147,0.7513463,9.245867,3.737589,0.0,0.0,0.0
28493813494210,0.7465607,9.245867,3.7040894,0.0,0.0,0.0
28493815873377,0.72741807,9.221938,3.6849468,0.0,0.0,0.0
28493818252491,0.6939186,9.241081,3.694518,0.0,0.0,0.0
28493820631606,0.6795616,9.2793665,3.7184465,0.0,0.0,0.0
28493823010720,0.6364908,9.269794,3.7615173,0.0,0.0,0.0
28493825389835,0.6029913,9.288938,3.7615173,0.0,0.0,0.0
28493827768949,0.5886344,9.298509,3.7423747,0.0,0.0,0.0
28493830148064,0.57906306,9.298509,3.7423747,0.0,0.0,0.0
28493832527179,0.5694918,9.260223,3.7471602,0.0,0.0,0.0
28493834906293,0.5982057,9.250652,3.7663028,0.0,0.0,0.0
28493837285408,0.6125626,9.2075815,3.7806597,0.0,0.0,0.0
28493839664522,0.64606214,9.178867,3.790231,0.0,0.0,0.0
28493842043585,0.6364908,9.169296,3.7950168,0.0,0.0,0.0
28493844422752,0.6364908,9.140582,3.7758741,0.0,0.0,0.0
28493846801866,0.6364908,9.135797,3.7615173,0.0,0.0,0.0
28493849181033,0.66041905,9.111869,3.7328033,0.0,0.0,0.0
28493851560147,0.66999036,9.078369,3.7328033,0.0,0.0,0.0
28493853939262,0.6652047,9.064013,3.7423747,0.0,0.0,0.0
28493856318377,0.6412765,9.044869,3.7806597,0.0,0.0,0.0
28493858697491,0.6412765,9.025727,3.7758741,0.0,0.0,0.0
28493861076606,0.5982057,8.997013,3.7710886,0.0,0.0,0.0
28493863455720,0.5694918,8.992228,3.7471602,0.0,0.0,0.0
28493865834835,0.56470615,8.992228,3.7615173,0.0,0.0,0.0
28493868213949,0.55034924,8.9826565,3.7998023,0.0,0.0,0.0
28493870593064,0.4881358,8.973084,3.8333018,0.0,0.0,0.0
28493872972179,0.43070808,9.001799,3.8572302,0.0,0.0,0.0
28493875351293,0.40677986,9.006584,3.8668015,0.0,0.0,0.0
28493877730408,0.38285163,9.044869,3.8620157,0.0,0.0,0.0
28493880109522,0.38763726,9.0544405,3.8763726,0.0,0.0,0.0
28493882488689,0.34456646,9.068798,3.885944,0.0,0.0,0.0
28493884867804,0.32063824,9.073584,3.9194436,0.0,0.0,0.0
28493887246918,0.33020952,9.064013,3.9338005,0.0,0.0,0.0
28493889626033,0.34456646,9.068798,3.9816568,0.0,0.0,0.0
28493892005147,0.34456646,9.068798,3.9864426,0.0,0.0,0.0
28493894384262,0.34456646,9.083155,4.0007997,0.0,0.0,0.0
28493896763377,0.34456646,9.078369,3.9816568,0.0,0.0,0.0
28493899142491,0.34456646,9.078369,3.9625144,0.0,0.0,0.0
28493901521606,0.34456646,9.044869,3.9577286,0.0,0.0,0.0
28493903900720,0.32542387,9.020942,3.9720855,0.0,0.0,0.0
28493906279835,0.33499518,9.006584,3.9864426,0.0,0.0,0.0
28493908658949,0.32542387,8.997013,3.9816568,0.0,0.0,0.0
28493911038064,0.3589234,8.9826565,3.938586,0.0,0.0,0.0
28493913417179,0.3493521,8.973084,3.9146578,0.0,0.0,0.0
28493915796345,0.3493521,8.968299,3.900301,0.0,0.0,0.0
28493918175460,0.35413775,8.953942,3.8811584,0.0,0.0,0.0
28493920554574,0.35413775,8.977871,3.885944,0.0,0.0,0.0
28493922933689,0.34456646,8.977871,3.8907297,0.0,0.0,0.0
28493925312804,0.33499518,8.977871,3.8763726,0.0,0.0,0.0
28493927691918,0.32063824,8.987442,3.8668015,0.0,0.0,0.0
28493930071033,0.32063824,8.992228,3.8476589,0.0,0.0,0.0
28493932450147,0.32542387,8.987442,3.871587,0.0,0.0,0.0
28493934829262,0.32063824,8.987442,3.8476589,0.0,0.0,0.0
28493937208377,0.32542387,9.020942,3.8763726,0.0,0.0,0.0
28493939587491,0.32542387,9.049655,3.900301,0.0,0.0,0.0
28493941966606,0.35413775,9.059227,3.9146578,0.0,0.0,0.0
28493944345720,0.3684947,9.0544405,3.8907297,0.0,0.0,0.0
28493946724835,0.41156548,9.059227,3.871587,0.0,0.0,0.0
28493949103949,0.44985065,9.073584,3.8620157,0.0,0.0,0.0
28493951483116,0.46899325,9.083155,3.871587,0.0,0.0,0.0
28493953862231,0.5024927,9.083155,3.8668015,0.0,0.0,0.0
28493956241345,0.526421,9.092726,3.8668015,0.0,0.0,0.0
28493958620460,0.55034924,9.092726,3.8668015,0.0,0.0,0.0
28493960999574,0.55513483,9.111869,3.8572302,0.0,0.0,0.0
28493963378689,0.5599205,9.116654,3.8285162,0.0,0.0,0.0
28493965757804,0.56470615,9.126225,3.8237305,0.0,0.0,0.0
28493968136918,0.526421,9.131011,3.8285162,0.0,0.0,0.0
28493970516033,0.526421,9.135797,3.8333018,0.0,0.0,0.0
28493972895147,0.5024927,9.126225,3.842873,0.0,0.0,0.0
28493975274262,0.44506502,9.131011,3.8380876,0.0,0.0,0.0
28493977653377,0.4019942,9.135797,3.8141594,0.0,0.0,0.0
28493980032491,0.38763726,9.111869,3.818945,0.0,0.0,0.0
28493982411658,0.35413775,9.131011,3.8093736,0.0,0.0,0.0
28493984790772,0.33499518,9.12144,3.804588,0.0,0.0,0.0
28493987169887,0.3062813,9.107083,3.7998023,0.0,0.0,0.0
28493989549002,0.27756742,9.097511,3.7998023,0.0,0.0,0.0
28493991928116,0.2727818,9.111869,3.8093736,0.0,0.0,0.0
28493994307179,0.25842485,9.131011,3.790231,0.0,0.0,0.0
28493996686345,0.26799613,9.126225,3.7950168,0.0,0.0,0.0
28493999065460,0.27756742,9.107083,3.7998023,0.0,0.0,0.0
28494001444574,0.3397808,9.116654,3.7998023,0.0,0.0,0.0
28494003823689,0.3493521,9.102298,3.804588,0.0,0.0,0.0
28494006202804,0.3684947,9.116654,3.804588,0.0,0.0,0.0
28494008581918,0.37806597,9.111869,3.7854455,0.0,0.0,0.0
28494010961033,0.40677986,9.135797,3.7806597,0.0,0.0,0.0
28494013340147,0.41635114,9.140582,3.7710886,0.0,0.0,0.0
28494015719314,0.4354937,9.140582,3.7806597,0.0,0.0,0.0
28494018098429,0.45942193,9.140582,3.7806597,0.0,0.0,0.0
28494020477543,0.4546363,9.145369,3.7854455,0.0,0.0,0.0
28494022856658,0.47377887,9.140582,3.7950168,0.0,0.0,0.0
28494025235772,0.4833502,9.150154,3.790231,0.0,0.0,0.0
28494027614887,0.46899325,9.116654,3.7950168,0.0,0.0,0.0
28494029994002,0.47377887,9.126225,3.7950168,0.0,0.0,0.0
28494032373116,0.44027936,9.111869,3.790231,0.0,0.0,0.0
28494034752231,0.44506502,9.135797,3.7806597,0.0,0.0,0.0
28494037131345,0.46899325,9.116654,3.7615173,0.0,0.0,0.0
28494039510460,0.47377887,9.12144,3.7758741,0.0,0.0,0.0
28494041889574,0.4881358,9.126225,3.7710886,0.0,0.0,0.0
28494044268741,0.4977071,9.116654,3.7710886,0.0,0.0,0.0
28494046647856,0.5072784,9.12144,3.7710886,0.0,0.0,0.0
28494049026970,0.526421,9.092726,3.7663028,0.0,0.0,0.0
28494051406085,0.5838487,9.102298,3.7663028,0.0,0.0,0.0
28494053785199,0.63170516,9.12144,3.7471602,0.0,0.0,0.0
28494056164314,0.66041905,9.126225,3.7471602,0.0,0.0,0.0
28494058543429,0.6843473,9.116654,3.7567315,0.0,0.0,0.0
28494060922543,0.7178468,9.092726,3.7471602,0.0,0.0,0.0
28494063301658,0.7609176,9.08794,3.7567315,0.0,0.0,0.0
28494065680772,0.7465607,9.059227,3.751946,0.0,0.0,0.0
28494068059887,0.76570326,9.078369,3.7567315,0.0,0.0,0.0
28494070439002,0.7848458,9.078369,3.7663028,0.0,0.0,0.0
28494072818116,0.7465607,9.073584,3.751946,0.0,0.0,0.0
28494075197231,0.72263247,9.08794,3.7663028,0.0,0.0,0.0
28494077576397,0.72741807,9.040084,3.7710886,0.0,0.0,0.0
28494079955512,0.72741807,9.049655,3.7806597,0.0,0.0,0.0
28494082334627,0.6939186,9.068798,3.7806597,0.0,0.0,0.0
28494084713741,0.66041905,9.073584,3.7806597,0.0,0.0,0.0
28494087092856,0.64606214,9.0544405,3.790231,0.0,0.0,0.0
28494089471970,0.6652047,9.064013,3.7854455,0.0,0.0,0.0
28494091851085,0.6843473,9.073584,3.7950168,0.0,0.0,0.0
28494094230199,0.6891329,9.064013,3.790231,0.0,0.0,0.0
28494096609314,0.6939186,9.044869,3.7710886,0.0,0.0,0.0
28494098988429,0.70348984,9.020942,3.7854455,0.0,0.0,0.0
28494101367543,0.75613195,9.040084,3.7950168,0.0,0.0,0.0
28494103746658,0.7752745,9.049655,3.7950168,0.0,0.0,0.0
28494106125772,0.7609176,9.068798,3.7806597,0.0,0.0,0.0
28494108504939,0.7609176,9.064013,3.7806597,0.0,0.0,0.0
28494110884054,0.7609176,9.040084,3.7854455,0.0,0.0,0.0
28494113263168,0.79441714,9.064013,3.804588,0.0,0.0,0.0
28494115642283,0.8039884,9.059227,3.8141594,0.0,0.0,0.0
28494118021397,0.8039884,9.030513,3.8093736,0.0,0.0,0.0
28494120400512,0.7848458,9.035298,3.8093736,0.0,0.0,0.0
28494122779627,0.7800602,9.025727,3.8093736,0.0,0.0,0.0
28494125158741,0.79920274,9.025727,3.818945,0.0,0.0,0.0
28494127537856,0.7896315,9.035298,3.8093736,0.0,0.0,0.0
28494129916970,0.7896315,9.044869,3.818945,0.0,0.0,0.0
28494132296085,0.7704889,9.0544405,3.804588,0.0,0.0,0.0
28494134675199,0.7465607,9.078369,3.8237305,0.0,0.0,0.0
28494137054314,0.76570326,9.111869,3.8476589,0.0,0.0,0.0
28494139433481,0.7465607,9.111869,3.8476589,0.0,0.0,0.0
28494141812595,0.7369894,9.111869,3.8093736,0.0,0.0,0.0
28494144191710,0.7609176,9.08794,3.7998023,0.0,0.0,0.0
28494146570824,0.82313097,9.078369,3.7758741,0.0,0.0,0.0
28494148949939,0.8805587,9.064013,3.7998023,0.0,0.0,0.0
28494151329054,0.9523434,9.059227,3.8093736,0.0,0.0,0.0
28494153708116,1.0241281,9.0544405,3.7998023,0.0,0.0,0.0
28494156087283,1.0480564,9.030513,3.790231,0.0,0.0,0.0
28494158466397,1.0576276,9.020942,3.7950168,0.0,0.0,0.0
28494160845512,1.0719845,9.001799,3.790231,0.0,0.0,0.0
28494163224627,1.0624132,8.997013,3.7615173,0.0,0.0,0.0
28494165603689,1.0001999,8.992228,3.751946,0.0,0.0,0.0
28494167982856,0.9619147,9.001799,3.7567315,0.0,0.0,0.0
28494170361970,0.94755775,9.020942,3.7950168,0.0,0.0,0.0
28494172741137,0.9092726,9.035298,3.7950168,0.0,0.0,0.0
28494175120252,0.8757731,9.035298,3.7950168,0.0,0.0,0.0
28494177499366,0.8662018,9.0544405,3.7663028,0.0,0.0,0.0
28494179878481,0.8757731,9.073584,3.7471602,0.0,0.0,0.0
28494182257595,0.8709874,9.08794,3.751946,0.0,0.0,0.0
28494184636710,0.86141616,9.073584,3.7710886,0.0,0.0,0.0
28494187015824,0.8662018,9.049655,3.7806597,0.0,0.0,0.0
28494189394939,0.8805587,9.044869,3.8093736,0.0,0.0,0.0
28494191774054,0.8662018,9.068798,3.7950168,0.0,0.0,0.0
28494194153168,0.82313097,9.068798,3.7758741,0.0,0.0,0.0
28494196532231,0.8135597,9.059227,3.7663028,0.0,0.0,0.0
28494198911397,0.7896315,9.073584,3.7710886,0.0,0.0,0.0
28494201290512,0.7752745,9.097511,3.7567315,0.0,0.0,0.0
28494203669679,0.7752745,9.107083,3.7567315,0.0,0.0,0.0
28494206048793,0.7704889,9.116654,3.7806597,0.0,0.0,0.0
28494208427908,0.75613195,9.12144,3.7998023,0.0,0.0,0.0
28494210807022,0.7800602,9.107083,3.7758741,0.0,0.0,0.0
28494213186137,0.7848458,9.111869,3.7567315,0.0,0.0,0.0
28494215565252,0.7896315,9.131011,3.7615173,0.0,0.0,0.0
28494217944366,0.79920274,9.116654,3.751946,0.0,0.0,0.0
28494220323481,0.81834537,9.102298,3.7806597,0.0,0.0,0.0
28494222702595,0.8039884,9.107083,3.7758741,0.0,0.0,0.0
28494225081710,0.80877405,9.102298,3.7615173,0.0,0.0,0.0
28494227460824,0.7848458,9.097511,3.7328033,0.0,0.0,0.0
28494229839939,0.7465607,9.116654,3.737589,0.0,0.0,0.0
28494232219106,0.71306115,9.116654,3.7328033,0.0,0.0,0.0
28494234598220,0.6939186,9.092726,3.7184465,0.0,0.0,0.0
28494236977335,0.67477596,9.092726,3.7280176,0.0,0.0,0.0
28494239356449,0.6556334,9.092726,3.751946,0.0,0.0,0.0
28494241735564,0.66999036,9.073584,3.7423747,0.0,0.0,0.0
28494244114679,0.6556334,9.0544405,3.751946,0.0,0.0,0.0
28494246493793,0.6843473,9.064013,3.7328033,0.0,0.0,0.0
28494248872856,0.7513463,9.068798,3.7088752,0.0,0.0,0.0
28494251252022,0.79920274,9.068798,3.6993039,0.0,0.0,0.0
28494253631137,0.86141616,9.073584,3.7328033,0.0,0.0,0.0
28494256010304,0.86141616,9.073584,3.7328033,0.0,0.0,0.0
28494258389366,0.89491564,9.078369,3.7328033,0.0,0.0,0.0
28494260768533,0.9284152,9.107083,3.694518,0.0,0.0,0.0
28494263147647,0.9379865,9.092726,3.7040894,0.0,0.0,0.0
28494265526762,0.9619147,9.092726,3.7040894,0.0,0.0,0.0
28494267905877,0.9379865,9.116654,3.7088752,0.0,0.0,0.0
28494270284991,0.94277215,9.107083,3.7136607,0.0,0.0,0.0
28494272664106,0.9523434,9.102298,3.7423747,0.0,0.0,0.0
28494275043220,0.8997013,9.107083,3.7663028,0.0,0.0,0.0
28494277422335,0.8709874,9.107083,3.7423747,0.0,0.0,0.0
28494279801449,0.85184485,9.097511,3.723232,0.0,0.0,0.0
28494282180564,0.85184485,9.092726,3.723232,0.0,0.0,0.0
28494284559679,0.85184485,9.08794,3.7184465,0.0,0.0,0.0
28494286938793,0.8709874,9.092726,3.7328033,0.0,0.0,0.0
28494289317960,0.8757731,9.092726,3.751946,0.0,0.0,0.0
28494291697074,0.85184485,9.073584,3.751946,0.0,0.0,0.0
28494294076189,0.8566305,9.073584,3.7423747,0.0,0.0,0.0
28494296455304,0.8470592,9.068798,3.7328033,0.0,0.0,0.0
28494298834418,0.8470592,9.08794,3.7280176,0.0,0.0,0.0
28494301213533,0.82313097,9.092726,3.737589,0.0,0.0,0.0
28494303592647,0.8135597,9.083155,3.7280176,0.0,0.0,0.0
28494305971762,0.79920274,9.049655,3.7471602,0.0,0.0,0.0
28494308350877,0.7848458,9.059227,3.7423747,0.0,0.0,0.0
28494310729991,0.8039884,9.092726,3.7423747,0.0,0.0,0.0
28494313109106,0.7848458,9.068798,3.7423747,0.0,0.0,0.0
28494315488220,0.79920274,9.0544405,3.7328033,0.0,0.0,0.0
28494317867387,0.7848458,9.059227,3.7471602,0.0,0.0,0.0
28494320246502,0.7752745,9.073584,3.751946,0.0,0.0,0.0
28494322625616,0.79441714,9.068798,3.7758741,0.0,0.0,0.0
28494325004731,0.79441714,9.068798,3.7710886,0.0,0.0,0.0
28494327383845,0.7848458,9.0544405,3.7854455,0.0,0.0,0.0
28494329762960,0.7848458,9.059227,3.7758741,0.0,0.0,0.0
28494332142074,0.7848458,9.0544405,3.7710886,0.0,0.0,0.0
28494334521189,0.76570326,9.092726,3.7710886,0.0,0.0,0.0
28494336900304,0.7513463,9.107083,3.790231,0.0,0.0,0.0
28494339279418,0.72741807,9.12144,3.804588,0.0,0.0,0.0
28494341658533,0.74177504,9.116654,3.804588,0.0,0.0,0.0
28494344037647,0.7322037,9.102298,3.790231,0.0,0.0,0.0
28494346416814,0.74177504,9.078369,3.790231,0.0,0.0,0.0
28494348795929,0.7513463,9.078369,3.7950168,0.0,0.0,0.0
28494351175043,0.7513463,9.092726,3.7806597,0.0,0.0,0.0
28494353554158,0.7752745,9.073584,3.7950168,0.0,0.0,0.0
28494355933272,0.79441714,9.08794,3.818945,0.0,0.0,0.0
28494358312387,0.8135597,9.092726,3.8093736,0.0,0.0,0.0
28494360691502,0.8039884,9.073584,3.8141594,0.0,0.0,0.0
28494363070616,0.82313097,9.068798,3.7998023,0.0,0.0,0.0
28494365449731,0.79920274,9.064013,3.7950168,0.0,0.0,0.0
28494367828845,0.80877405,9.064013,3.7854455,0.0,0.0,0.0
28494370207960,0.8279166,9.049655,3.7998023,0.0,0.0,0.0
28494372587074,0.81834537,9.044869,3.8093736,0.0,0.0,0.0
28494374966241,0.79441714,9.073584,3.790231,0.0,0.0,0.0
28494377345356,0.7704889,9.078369,3.7806597,0.0,0.0,0.0
28494379724470,0.7513463,9.059227,3.7854455,0.0,0.0,0.0
28494382103585,0.7465607,9.068798,3.790231,0.0,0.0,0.0
28494384482699,0.75613195,9.064013,3.790231,0.0,0.0,0.0
28494386861814,0.7513463,9.068798,3.790231,0.0,0.0,0.0
28494389240929,0.7752745,9.083155,3.7950168,0.0,0.0,0.0
28494391620043,0.7896315,9.064013,3.7998023,0.0,0.0,0.0
28494393999158,0.79441714,9.092726,3.790231,0.0,0.0,0.0
28494396378272,0.8039884,9.083155,3.7998023,0.0,0.0,0.0
28494398757439,0.7896315,9.078369,3.804588,0.0,0.0,0.0
28494401136554,0.79441714,9.08794,3.8093736,0.0,0.0,0.0
28494403515668,0.79920274,9.078369,3.8141594,0.0,0.0,0.0
28494405894783,0.8039884,9.102298,3.8285162,0.0,0.0,0.0
28494408273897,0.8135597,9.097511,3.842873,0.0,0.0,0.0
28494410653012,0.81834537,9.083155,3.8237305,0.0,0.0,0.0
28494413032127,0.82313097,9.083155,3.8141594,0.0,0.0,0.0
28494415411241,0.8470592,9.064013,3.8093736,0.0,0.0,0.0
28494417790304,0.8566305,9.078369,3.8093736,0.0,0.0,0.0
28494420169470,0.8757731,9.059227,3.804588,0.0,0.0,0.0
28494422548585,0.8805587,9.049655,3.8141594,0.0,0.0,0.0
28494424927699,0.8757731,9.068798,3.8237305,0.0,0.0,0.0
28494427306866,0.8662018,9.044869,3.8237305,0.0,0.0,0.0
28494429685981,0.8757731,9.040084,3.8237305,0.0,0.0,0.0
28494432065095,0.89013004,9.0544405,3.8141594,0.0,0.0,0.0
28494434444210,0.86141616,9.078369,3.8237305,0.0,0.0,0.0
28494436823324,0.81834537,9.0544405,3.8237305,0.0,0.0,0.0
28494439202439,0.83748794,9.044869,3.842873,0.0,0.0,0.0
28494441581554,0.8566305,9.0544405,3.842873,0.0,0.0,0.0
28494443960668,0.8422736,9.049655,3.8524444,0.0,0.0,0.0
28494446339783,0.85184485,9.049655,3.8285162,0.0,0.0,0.0
28494448718897,0.86141616,9.035298,3.8093736,0.0,0.0,0.0
28494451098012,0.8757731,9.040084,3.8237305,0.0,0.0,0.0
28494453477127,0.89013004,9.044869,3.818945,0.0,0.0,0.0
28494455856293,0.90448695,9.064013,3.8141594,0.0,0.0,0.0
28494458235408,0.9236295,9.0544405,3.8380876,0.0,0.0,0.0
28494460614522,0.93320084,9.059227,3.8572302,0.0,0.0,0.0
28494462993637,0.95712906,9.059227,3.8380876,0.0,0.0,0.0
28494465372699,0.94755775,9.040084,3.842873,0.0,0.0,0.0
28494467751866,0.95712906,9.049655,3.842873,0.0,0.0,0.0
28494470130981,0.9523434,9.068798,3.8476589,0.0,0.0,0.0
28494472510095,0.93320084,9.073584,3.8476589,0.0,0.0,0.0
28494474889210,0.91884387,9.068798,3.8620157,0.0,0.0,0.0
28494477268324,0.89013004,9.064013,3.8668015,0.0,0.0,0.0
28494479647439,0.8709874,9.049655,3.8668015,0.0,0.0,0.0
28494482026606,0.8709874,9.020942,3.871587,0.0,0.0,0.0
28494484405720,0.8853444,9.020942,3.8811584,0.0,0.0,0.0
28494486784835,0.8853444,9.025727,3.871587,0.0,0.0,0.0
28494489163949,0.89491564,9.035298,3.8811584,0.0,0.0,0.0
28494491543064,0.8662018,9.030513,3.871587,0.0,0.0,0.0
28494493922179,0.8757731,9.035298,3.885944,0.0,0.0,0.0
28494496301293,0.8853444,9.025727,3.8572302,0.0,0.0,0.0
28494498680408,0.90448695,9.020942,3.8572302,0.0,0.0,0.0
28494501059522,0.8997013,9.035298,3.8668015,0.0,0.0,0.0
28494503438637,0.8709874,9.035298,3.8811584,0.0,0.0,0.0
28494505817752,0.83748794,9.020942,3.8955152,0.0,0.0,0.0
28494508196918,0.8470592,9.030513,3.8763726,0.0,0.0,0.0
28494510576033,0.83748794,9.020942,3.8811584,0.0,0.0,0.0
28494512955147,0.8470592,9.006584,3.885944,0.0,0.0,0.0
28494515334262,0.83748794,9.035298,3.885944,0.0,0.0,0.0
28494517713377,0.8327023,9.030513,3.885944,0.0,0.0,0.0
28494520092491,0.8470592,9.030513,3.8907297,0.0,0.0,0.0
28494522471606,0.85184485,9.030513,3.871587,0.0,0.0,0.0
28494524850720,0.83748794,9.020942,3.8668015,0.0,0.0,0.0
28494527229835,0.81834537,9.001799,3.8668015,0.0,0.0,0.0
28494529608949,0.82313097,9.01137,3.8572302,0.0,0.0,0.0
28494531988064,0.82313097,9.01137,3.871587,0.0,0.0,0.0
28494534367231,0.7896315,9.020942,3.8955152,0.0,0.0,0.0
28494536746345,0.79441714,9.006584,3.8811584,0.0,0.0,0.0
28494539125460,0.7465607,9.035298,3.8668015,0.0,0.0,0.0
28494541504574,0.7609176,9.030513,3.871587,0.0,0.0,0.0
28494543883689,0.76570326,9.049655,3.8811584,0.0,0.0,0.0
28494546262804,0.7609176,9.049655,3.8763726,0.0,0.0,0.0
28494548641918,0.75613195,9.059227,3.8668015,0.0,0.0,0.0
28494551021033,0.7704889,9.059227,3.871587,0.0,0.0,0.0
28494553400147,0.7704889,9.044869,3.8620157,0.0,0.0,0.0
28494555779262,0.7704889,9.0544405,3.8668015,0.0,0.0,0.0
28494558158377,0.7609176,9.064013,3.8668015,0.0,0.0,0.0
28494560537491,0.7609176,9.064013,3.8668015,0.0,0.0,0.0
28494562916658,0.76570326,9.044869,3.8333018,0.0,0.0,0.0
28494565295772,0.76570326,9.059227,3.8237305,0.0,0.0,0.0
28494567674887,0.7704889,9.044869,3.8285162,0.0,0.0,0.0
28494570054002,0.7609176,9.01137,3.8380876,0.0,0.0,0.0
28494572433116,0.7609176,9.001799,3.8333018,0.0,0.0,0.0
28494574812231,0.75613195,9.025727,3.8237305,0.0,0.0,0.0
28494577191345,0.7369894,9.064013,3.8141594,0.0,0.0,0.0
28494579570460,0.75613195,9.073584,3.8237305,0.0,0.0,0.0
28494581949574,0.7369894,9.059227,3.8141594,0.0,0.0,0.0
28494584328689,0.7082755,9.0544405,3.7998023,0.0,0.0,0.0
28494586707856,0.71306115,9.073584,3.8093736,0.0,0.0,0.0
28494589086970,0.7178468,9.083155,3.8141594,0.0,0.0,0.0
28494591466085,0.72263247,9.078369,3.7950168,0.0,0.0,0.0
28494593845199,0.7178468,9.092726,3.7998023,0.0,0.0,0.0
28494596224314,0.6891329,9.083155,3.8141594,0.0,0.0,0.0
28494598603429,0.67477596,9.097511,3.8141594,0.0,0.0,0.0
28494600982543,0.6652047,9.092726,3.8093736,0.0,0.0,0.0
28494603361658,0.66041905,9.107083,3.818945,0.0,0.0,0.0
28494605740772,0.66999036,9.097511,3.8093736,0.0,0.0,0.0
28494608119887,0.6556334,9.102298,3.804588,0.0,0.0,0.0
28494610499002,0.65084773,9.107083,3.7998023,0.0,0.0,0.0
28494612878168,0.64606214,9.097511,3.7854455,0.0,0.0,0.0
28494615257283,0.6221339,9.102298,3.7950168,0.0,0.0,0.0
28494617636397,0.63170516,9.092726,3.7806597,0.0,0.0,0.0
28494620015512,0.6364908,9.116654,3.7854455,0.0,0.0,0.0
28494622394627,0.6412765,9.12144,3.790231,0.0,0.0,0.0
28494624773741,0.6269195,9.102298,3.7950168,0.0,0.0,0.0
28494627152856,0.6269195,9.111869,3.7998023,0.0,0.0,0.0
28494629531970,0.63170516,9.126225,3.7950168,0.0,0.0,0.0
28494631911085,0.6556334,9.102298,3.804588,0.0,0.0,0.0
28494634290199,0.63170516,9.097511,3.7998023,0.0,0.0,0.0
28494636669314,0.6269195,9.083155,3.7950168,0.0,0.0,0.0
28494639048481,0.6221339,9.083155,3.7998023,0.0,0.0,0.0
28494641427595,0.6221339,9.08794,3.790231,0.0,0.0,0.0
28494643806710,0.60777694,9.083155,3.7998023,0.0,0.0,0.0
28494646185824,0.60777694,9.073584,3.804588,0.0,0.0,0.0
28494648564939,0.5982057,9.068798,3.8141594,0.0,0.0,0.0
28494650944054,0.5982057,9.059227,3.7998023,0.0,0.0,0.0
28494653323168,0.59342,9.0544405,3.804588,0.0,0.0,0.0
28494655702283,0.5982057,9.035298,3.7950168,0.0,0.0,0.0
28494658081397,0.5982057,9.030513,3.790231,0.0,0.0,0.0
28494660460512,0.5838487,9.044869,3.7998023,0.0,0.0,0.0
28494662839679,0.59342,9.059227,3.8237305,0.0,0.0,0.0
28494665218793,0.5838487,9.068798,3.8285162,0.0,0.0,0.0
28494667597856,0.57427746,9.064013,3.818945,0.0,0.0,0.0
28494669977022,0.5886344,9.078369,3.8285162,0.0,0.0,0.0
28494672356137,0.59342,9.073584,3.8237305,0.0,0.0,0.0
28494674735252,0.60777694,9.064013,3.8333018,0.0,0.0,0.0
28494677114366,0.61734825,9.073584,3.8285162,0.0,0.0,0.0
28494679493481,0.6269195,9.097511,3.8476589,0.0,0.0,0.0
28494681872595,0.6269195,9.107083,3.842873,0.0,0.0,0.0
28494684251710,0.6364908,9.08794,3.842873,0.0,0.0,0.0
28494686630824,0.61734825,9.08794,3.8380876,0.0,0.0,0.0
28494689009991,0.64606214,9.083155,3.8380876,0.0,0.0,0.0
28494691389106,0.67477596,9.059227,3.8476589,0.0,0.0,0.0
28494693768220,0.6843473,9.059227,3.8524444,0.0,0.0,0.0
28494696147335,0.67477596,9.073584,3.8620157,0.0,0.0,0.0
28494698526449,0.6843473,9.059227,3.8524444,0.0,0.0,0.0
28494700905564,0.66999036,9.073584,3.8572302,0.0,0.0,0.0
28494703284679,0.6652047,9.073584,3.8620157,0.0,0.0,0.0
28494705663793,0.67477596,9.068798,3.8620157,0.0,0.0,0.0
28494708042908,0.6652047,9.078369,3.8668015,0.0,0.0,0.0
28494710422022,0.67477596,9.073584,3.885944,0.0,0.0,0.0
28494712801189,0.6364908,9.068798,3.8572302,0.0,0.0,0.0
28494715180304,0.65084773,9.068798,3.8524444,0.0,0.0,0.0
28494717559418,0.63170516,9.078369,3.8572302,0.0,0.0,0.0
28494719938533,0.61734825,9.064013,3.8524444,0.0,0.0,0.0
28494722317647,0.6269195,9.040084,3.8620157,0.0,0.0,0.0
28494724696762,0.6364908,9.040084,3.8668015,0.0,0.0,0.0
28494727075877,0.63170516,9.059227,3.8668015,0.0,0.0,0.0
28494729454991,0.6269195,9.068798,3.8763726,0.0,0.0,0.0
28494731834106,0.6364908,9.078369,3.8620157,0.0,0.0,0.0
28494734213220,0.6412765,9.040084,3.8668015,0.0,0.0,0.0
28494736592387,0.65084773,9.044869,3.8668015,0.0,0.0,0.0
28494738971502,0.6364908,9.044869,3.8907297,0.0,0.0,0.0
28494741350616,0.66041905,9.068798,3.8811584,0.0,0.0,0.0
28494743729731,0.66999036,9.064013,3.8668015,0.0,0.0,0.0
28494746108845,0.66041905,9.044869,3.8763726,0.0,0.0,0.0
28494748487960,0.66999036,9.049655,3.8620157,0.0,0.0,0.0
28494750867074,0.6652047,9.044869,3.8476589,0.0,0.0,0.0
28494753246189,0.6652047,9.040084,3.8524444,0.0,0.0,0.0
28494755625304,0.66041905,9.068798,3.842873,0.0,0.0,0.0
28494758004418,0.6795616,9.059227,3.8285162,0.0,0.0,0.0
28494760383585,0.66041905,9.068798,3.8237305,0.0,0.0,0.0
28494762762699,0.65084773,9.068798,3.842873,0.0,0.0,0.0
28494765141814,0.6269195,9.059227,3.8380876,0.0,0.0,0.0
28494767520929,0.61734825,9.0544405,3.842873,0.0,0.0,0.0
28494769900043,0.60777694,9.073584,3.842873,0.0,0.0,0.0
28494772279158,0.59342,9.078369,3.8380876,0.0,0.0,0.0
28494774658272,0.60777694,9.083155,3.842873,0.0,0.0,0.0
28494777037387,0.5838487,9.059227,3.8380876,0.0,0.0,0.0
28494779416502,0.5886344,9.092726,3.8380876,0.0,0.0,0.0
28494781795616,0.6029913,9.111869,3.8237305,0.0,0.0,0.0
28494784174783,0.6269195,9.111869,3.8093736,0.0,0.0,0.0
28494786553897,0.6412765,9.073584,3.8141594,0.0,0.0,0.0
28494788933012,0.6556334,9.097511,3.8093736,0.0,0.0,0.0
28494791312127,0.6412765,9.092726,3.8285162,0.0,0.0,0.0
28494793691241,0.65084773,9.078369,3.8141594,0.0,0.0,0.0
28494796070356,0.6556334,9.092726,3.7950168,0.0,0.0,0.0
28494798449470,0.6412765,9.097511,3.790231,0.0,0.0,0.0
28494800828585,0.6843473,9.097511,3.7806597,0.0,0.0,0.0
28494803207699,0.65084773,9.083155,3.790231,0.0,0.0,0.0
28494805586814,0.65084773,9.08794,3.7950168,0.0,0.0,0.0
28494807965981,0.6364908,9.092726,3.8333018,0.0,0.0,0.0
28494810345095,0.61734825,9.097511,3.8237305,0.0,0.0,0.0
28494812724210,0.6221339,9.092726,3.8237305,0.0,0.0,0.0
28494815103324,0.61734825,9.073584,3.818945,0.0,0.0,0.0
28494817482439,0.59342,9.08794,3.8141594,0.0,0.0,0.0
