t_ns,ax,ay,az,bx,by,bz
20098216110999,-1.2346965,8.79123,4.3501515,0.0,0.0,0.0
20098218487666,-1.1820544,8.7673025,4.3118663,0.0,0.0,0.0
20098220866676,-1.1102697,8.7673025,4.2927237,0.0,0.0,0.0
20098223245686,-1.0241281,8.786445,4.3118663,0.0,0.0,0.0
20098225624697,-0.95712906,8.810373,4.331009,0.0,0.0,0.0
20098228003655,-0.8566305,8.815159,4.3501515,0.0,0.0,0.0
20098230382666,-0.80877405,8.85823,4.3405805,0.0,0.0,0.0
20098232761676,-0.74177504,8.85823,4.331009,0.0,0.0,0.0
20098235140686,-0.6891329,8.877372,4.2975097,0.0,0.0,0.0
20098237519697,-0.6652047,8.886943,4.287938,0.0,0.0,0.0
20098239898707,-0.66041905,8.853444,4.2975097,0.0,0.0,0.0
20098242277718,-0.6795616,8.85823,4.3357944,0.0,0.0,0.0
20098244656728,-0.6939186,8.848659,4.345366,0.0,0.0,0.0
20098247035374,-0.72263247,8.839087,4.3645086,0.0,0.0,0.0
20098249414697,-0.8039884,8.82473,4.354937,0.0,0.0,0.0
20098251793707,-0.8566305,8.819944,4.331009,0.0,0.0,0.0
20098254172718,-0.89491564,8.79123,4.2927237,0.0,0.0,0.0
20098256551728,-0.9523434,8.810373,4.3118663,0.0,0.0,0.0
20098258930739,-1.0001999,8.810373,4.3118663,0.0,0.0,0.0
20098261309384,-1.0576276,8.829515,4.3262234,0.0,0.0,0.0
20098263688707,-1.1006985,8.800801,4.354937,0.0,0.0,0.0
20098266067718,-1.1294123,8.819944,4.345366,0.0,0.0,0.0
20098268446728,-1.1389836,8.819944,4.359723,0.0,0.0,0.0
20098270825739,-1.1485549,8.839087,4.3405805,0.0,0.0,0.0
20098273204749,-1.119841,8.848659,4.3501515,0.0,0.0,0.0
20098275583759,-1.0959128,8.85823,4.3788652,0.0,0.0,0.0
20098277962770,-1.0719845,8.85823,4.412365,0.0,0.0,0.0
20098280341728,-1.0432707,8.829515,4.421936,0.0,0.0,0.0
20098282720739,-1.0049855,8.829515,4.421936,0.0,0.0,0.0
20098285099749,-0.94755775,8.819944,4.421936,0.0,0.0,0.0
20098287478759,-0.89013004,8.839087,4.4458647,0.0,0.0,0.0
20098289857770,-0.85184485,8.819944,4.4458647,0.0,0.0,0.0
20098292236780,-0.82313097,8.800801,4.402794,0.0,0.0,0.0
20098294615791,-0.8135597,8.786445,4.4075794,0.0,0.0,0.0
20098296994801,-0.7752745,8.7577305,4.398008,0.0,0.0,0.0
20098299373811,-0.75613195,8.748159,4.3836513,0.0,0.0,0.0
20098301752770,-0.76570326,8.7673025,4.3645086,0.0,0.0,0.0
20098304131780,-0.7800602,8.79123,4.3357944,0.0,0.0,0.0
20098306510791,-0.80877405,8.762517,4.316652,0.0,0.0,0.0
20098308889801,-0.8470592,8.7577305,4.3118663,0.0,0.0,0.0
20098311268811,-0.8853444,8.810373,4.302295,0.0,0.0,0.0
20098313647822,-0.94277215,8.815159,4.2975097,0.0,0.0,0.0
20098316026832,-1.0145568,8.834301,4.2975097,0.0,0.0,0.0
20098318405791,-1.0767702,8.829515,4.278367,0.0,0.0,0.0
20098320784801,-1.134198,8.848659,4.302295,0.0,0.0,0.0
20098323163759,-1.1533405,8.848659,4.302295,0.0,0.0,0.0
20098325542822,-1.1916257,8.853444,4.3118663,0.0,0.0,0.0
20098327921832,-1.2059826,8.848659,4.3118663,0.0,0.0,0.0
20098330300843,-1.2155539,8.839087,4.316652,0.0,0.0,0.0
20098332679853,-1.2203395,8.839087,4.3118663,0.0,0.0,0.0
20098335058864,-1.18684,8.810373,4.316652,0.0,0.0,0.0
20098337437822,-1.1389836,8.815159,4.2592244,0.0,0.0,0.0
20098339816832,-1.0624132,8.82473,4.23051,0.0,0.0,0.0
20098342195843,-1.0049855,8.805588,4.254439,0.0,0.0,0.0
20098344574853,-0.95712906,8.796016,4.26401,0.0,0.0,0.0
20098346953864,-0.8805587,8.79123,4.273581,0.0,0.0,0.0
20098349332874,-0.8422736,8.810373,4.2975097,0.0,0.0,0.0
20098351711884,-0.80877405,8.796016,4.278367,0.0,0.0,0.0
20098354090843,-0.7752745,8.796016,4.287938,0.0,0.0,0.0
20098356469853,-0.7848458,8.815159,4.302295,0.0,0.0,0.0
20098358848864,-0.7896315,8.800801,4.3070807,0.0,0.0,0.0
20098361227874,-0.8327023,8.810373,4.3070807,0.0,0.0,0.0
20098363606884,-0.8757731,8.82473,4.3357944,0.0,0.0,0.0
20098365985895,-0.94277215,8.829515,4.3501515,0.0,0.0,0.0
20098368364905,-0.9762716,8.810373,4.388437,0.0,0.0,0.0
20098370743864,-1.0241281,8.781659,4.4075794,0.0,0.0,0.0
20098373122874,-1.0767702,8.776874,4.4171505,0.0,0.0,0.0
20098375501884,-1.134198,8.772088,4.4171505,0.0,0.0,0.0
20098377880895,-1.1724831,8.748159,4.4075794,0.0,0.0,0.0
20098380259905,-1.1724831,8.733803,4.4075794,0.0,0.0,0.0
20098382638916,-1.1533405,8.733803,4.398008,0.0,0.0,0.0
20098385017926,-1.1102697,8.733803,4.4075794,0.0,0.0,0.0
20098387396936,-1.0911272,8.724232,4.398008,0.0,0.0,0.0
20098389775895,-1.052842,8.7673025,4.388437,0.0,0.0,0.0
20098392154905,-1.0193424,8.776874,4.388437,0.0,0.0,0.0
20098394533916,-0.971486,8.800801,4.3501515,0.0,0.0,0.0
20098396912926,-0.90448695,8.829515,4.3262234,0.0,0.0,0.0
20098399291936,-0.8997013,8.810373,4.3357944,0.0,0.0,0.0
20098401670947,-0.8757731,8.819944,4.345366,0.0,0.0,0.0
20098404049957,-0.8757731,8.863015,4.345366,0.0,0.0,0.0
20098406428968,-0.8709874,8.867801,4.3405805,0.0,0.0,0.0
20098408807926,-0.9092726,8.867801,4.3357944,0.0,0.0,0.0
20098411186936,-0.89491564,8.867801,4.3262234,0.0,0.0,0.0
20098413565947,-0.9092726,8.877372,4.2975097,0.0,0.0,0.0
20098415944957,-0.9284152,8.863015,4.2927237,0.0,0.0,0.0
20098418323916,-0.94277215,8.872586,4.2975097,0.0,0.0,0.0
20098420702978,-0.9667004,8.863015,4.2831526,0.0,0.0,0.0
20098423081989,-1.0097711,8.815159,4.278367,0.0,0.0,0.0
20098425460947,-1.0193424,8.815159,4.278367,0.0,0.0,0.0
20098427839957,-1.0480564,8.843872,4.278367,0.0,0.0,0.0
20098430218968,-1.0719845,8.82473,4.287938,0.0,0.0,0.0
20098432597978,-1.038485,8.82473,4.2592244,0.0,0.0,0.0
20098434976989,-1.0624132,8.829515,4.273581,0.0,0.0,0.0
20098437355999,-1.0815558,8.834301,4.273581,0.0,0.0,0.0
20098439734957,-1.0911272,8.863015,4.278367,0.0,0.0,0.0
20098442113968,-1.0863415,8.863015,4.2927237,0.0,0.0,0.0
20098444492978,-1.0863415,8.848659,4.302295,0.0,0.0,0.0
20098446871989,-1.0815558,8.853444,4.3262234,0.0,0.0,0.0
20098449250999,-1.1150553,8.843872,4.3262234,0.0,0.0,0.0
20098451630009,-1.0911272,8.839087,4.359723,0.0,0.0,0.0
20098454009020,-1.0671989,8.82473,4.3788652,0.0,0.0,0.0
20098456388030,-1.0719845,8.815159,4.388437,0.0,0.0,0.0
20098458766989,-1.052842,8.800801,4.3836513,0.0,0.0,0.0
20098461145999,-1.0432707,8.829515,4.402794,0.0,0.0,0.0
20098463525009,-1.0241281,8.810373,4.4171505,0.0,0.0,0.0
20098465904020,-0.9954142,8.805588,4.3932223,0.0,0.0,0.0
20098468283030,-0.9619147,8.796016,4.3788652,0.0,0.0,0.0
20098470662041,-0.9667004,8.786445,4.402794,0.0,0.0,0.0
20098473041051,-0.94277215,8.805588,4.3932223,0.0,0.0,0.0
20098475420061,-0.9379865,8.796016,4.402794,0.0,0.0,0.0
20098477799072,-0.9379865,8.772088,4.398008,0.0,0.0,0.0
20098480178030,-0.94755775,8.805588,4.398008,0.0,0.0,0.0
20098482557041,-0.9667004,8.834301,4.3740797,0.0,0.0,0.0
20098484936051,-1.0001999,8.815159,4.3645086,0.0,0.0,0.0
20098487315061,-1.0145568,8.79123,4.354937,0.0,0.0,0.0
20098489694072,-1.0145568,8.800801,4.359723,0.0,0.0,0.0
20098492073082,-1.0241281,8.815159,4.369294,0.0,0.0,0.0
20098494452093,-1.0624132,8.800801,4.3740797,0.0,0.0,0.0
20098496831051,-1.0719845,8.796016,4.3501515,0.0,0.0,0.0
20098499210061,-1.0576276,8.805588,4.3262234,0.0,0.0,0.0
20098501589072,-1.0432707,8.805588,4.287938,0.0,0.0,0.0
20098503968082,-1.0336994,8.819944,4.2592244,0.0,0.0,0.0
20098506347093,-1.0432707,8.810373,4.2257247,0.0,0.0,0.0
20098508726103,-1.038485,8.843872,4.211368,0.0,0.0,0.0
20098511105114,-1.0241281,8.853444,4.220939,0.0,0.0,0.0
20098513484072,-1.0193424,8.853444,4.220939,0.0,0.0,0.0
20098515863082,-1.0049855,8.843872,4.211368,0.0,0.0,0.0
20098518242093,-1.0289137,8.839087,4.2161536,0.0,0.0,0.0
20098520621103,-1.0049855,8.863015,4.220939,0.0,0.0,0.0
20098523000114,-0.98584294,8.85823,4.2257247,0.0,0.0,0.0
20098525379124,-1.0001999,8.85823,4.2448673,0.0,0.0,0.0
20098527758134,-0.9810573,8.848659,4.278367,0.0,0.0,0.0
20098530137145,-0.9762716,8.839087,4.3070807,0.0,0.0,0.0
20098532516155,-0.9810573,8.834301,4.302295,0.0,0.0,0.0
20098534895114,-0.9762716,8.829515,4.3070807,0.0,0.0,0.0
20098537274124,-0.9762716,8.82473,4.321438,0.0,0.0,0.0
20098539653134,-0.9284152,8.810373,4.345366,0.0,0.0,0.0
20098542032145,-0.89013004,8.805588,4.359723,0.0,0.0,0.0
20098544411155,-0.85184485,8.805588,4.369294,0.0,0.0,0.0
20098546790166,-0.83748794,8.776874,4.3788652,0.0,0.0,0.0
20098549169176,-0.80877405,8.79123,4.369294,0.0,0.0,0.0
20098551548134,-0.7752745,8.800801,4.3645086,0.0,0.0,0.0
20098553927145,-0.7609176,8.786445,4.398008,0.0,0.0,0.0
20098556306155,-0.7465607,8.762517,4.402794,0.0,0.0,0.0
20098558685166,-0.74177504,8.772088,4.388437,0.0,0.0,0.0
20098561064176,-0.7465607,8.781659,4.354937,0.0,0.0,0.0
20098563443186,-0.7752745,8.772088,4.359723,0.0,0.0,0.0
20098565822197,-0.79441714,8.762517,4.3405805,0.0,0.0,0.0
20098568201155,-0.81834537,8.7577305,4.345366,0.0,0.0,0.0
20098570580166,-0.8566305,8.800801,4.3357944,0.0,0.0,0.0
20098572959176,-0.8805587,8.800801,4.345366,0.0,0.0,0.0
20098575338186,-0.91884387,8.800801,4.345366,0.0,0.0,0.0
20098577717197,-0.94277215,8.805588,4.331009,0.0,0.0,0.0
20098580096207,-0.9762716,8.800801,4.321438,0.0,0.0,0.0
20098582475218,-1.0145568,8.843872,4.321438,0.0,0.0,0.0
20098584854176,-1.0432707,8.882157,4.321438,0.0,0.0,0.0
20098587233186,-1.0624132,8.872586,4.321438,0.0,0.0,0.0
20098589612197,-1.0719845,8.877372,4.3405805,0.0,0.0,0.0
20098591991207,-1.0624132,8.882157,4.3501515,0.0,0.0,0.0
20098594370218,-1.0576276,8.867801,4.3501515,0.0,0.0,0.0
20098596749228,-1.052842,8.867801,4.3357944,0.0,0.0,0.0
20098599128239,-1.0432707,8.872586,4.3501515,0.0,0.0,0.0
20098601507249,-1.0193424,8.867801,4.345366,0.0,0.0,0.0
20098603886207,-1.0097711,8.85823,4.3262234,0.0,0.0,0.0
20098606265166,-0.9667004,8.815159,4.3262234,0.0,0.0,0.0
20098608644228,-0.90448695,8.800801,4.3405805,0.0,0.0,0.0
20098611023239,-0.8662018,8.79123,4.3405805,0.0,0.0,0.0
20098613402249,-0.8566305,8.786445,4.321438,0.0,0.0,0.0
20098615781259,-0.8422736,8.786445,4.302295,0.0,0.0,0.0
20098618160270,-0.83748794,8.786445,4.3262234,0.0,0.0,0.0
20098620539280,-0.8422736,8.815159,4.331009,0.0,0.0,0.0
20098622918239,-0.8327023,8.839087,4.3262234,0.0,0.0,0.0
20098625297249,-0.8470592,8.834301,4.3262234,0.0,0.0,0.0
20098627676259,-0.90448695,8.839087,4.3262234,0.0,0.0,0.0
20098630055270,-0.98584294,8.82473,4.302295,0.0,0.0,0.0
20098632434280,-1.0432707,8.82473,4.302295,0.0,0.0,0.0
20098634813291,-1.0815558,8.843872,4.2975097,0.0,0.0,0.0
20098637192301,-1.1246266,8.85823,4.2831526,0.0,0.0,0.0
20098639571259,-1.1772687,8.85823,4.3070807,0.0,0.0,0.0
20098641950270,-1.2011969,8.85823,4.321438,0.0,0.0,0.0
20098644329280,-1.2299109,8.848659,4.345366,0.0,0.0,0.0
20098646708291,-1.2394822,8.843872,4.3405805,0.0,0.0,0.0
20098649087301,-1.2442678,8.815159,4.3405805,0.0,0.0,0.0
20098651466311,-1.2346965,8.819944,4.321438,0.0,0.0,0.0
20098653845322,-1.1964114,8.815159,4.316652,0.0,0.0,0.0
20098656224332,-1.1246266,8.796016,4.321438,0.0,0.0,0.0
20098658603291,-1.0719845,8.781659,4.331009,0.0,0.0,0.0
20098660982301,-1.0576276,8.7577305,4.345366,0.0,0.0,0.0
20098663361311,-1.0097711,8.762517,4.3262234,0.0,0.0,0.0
20098665740322,-0.971486,8.748159,4.302295,0.0,0.0,0.0
20098668119332,-0.8997013,8.7673025,4.287938,0.0,0.0,0.0
20098670498343,-0.85184485,8.772088,4.302295,0.0,0.0,0.0
20098672877353,-0.8327023,8.752945,4.302295,0.0,0.0,0.0
20098675256364,-0.8327023,8.781659,4.3357944,0.0,0.0,0.0
20098677635322,-0.8422736,8.786445,4.3262234,0.0,0.0,0.0
20098680014332,-0.8566305,8.796016,4.321438,0.0,0.0,0.0
20098682393343,-0.8709874,8.800801,4.3262234,0.0,0.0,0.0
20098684772353,-0.90448695,8.79123,4.3357944,0.0,0.0,0.0
20098687151364,-0.95712906,8.796016,4.345366,0.0,0.0,0.0
20098689530374,-0.9906286,8.810373,4.354937,0.0,0.0,0.0
20098691909384,-1.038485,8.815159,4.3836513,0.0,0.0,0.0
20098694288343,-1.0959128,8.810373,4.402794,0.0,0.0,0.0
20098696667353,-1.1246266,8.800801,4.3788652,0.0,0.0,0.0
20098699046364,-1.134198,8.834301,4.388437,0.0,0.0,0.0
20098701425374,-1.1485549,8.829515,4.402794,0.0,0.0,0.0
20098703804384,-1.1724831,8.834301,4.388437,0.0,0.0,0.0
20098706183395,-1.134198,8.82473,4.388437,0.0,0.0,0.0
20098708562405,-1.1102697,8.834301,4.3740797,0.0,0.0,0.0
20098710941416,-1.1006985,8.819944,4.402794,0.0,0.0,0.0
20098713320374,-1.052842,8.79123,4.3740797,0.0,0.0,0.0
20098715699384,-1.0193424,8.796016,4.359723,0.0,0.0,0.0
20098718078395,-0.971486,8.772088,4.3405805,0.0,0.0,0.0
20098720457405,-0.9284152,8.781659,4.3070807,0.0,0.0,0.0
20098722836416,-0.8709874,8.776874,4.278367,0.0,0.0,0.0
20098725215426,-0.8327023,8.776874,4.287938,0.0,0.0,0.0
20098727594384,-0.79441714,8.772088,4.302295,0.0,0.0,0.0
20098729973395,-0.7896315,8.79123,4.316652,0.0,0.0,0.0
20098732352405,-0.7609176,8.776874,4.3262234,0.0,0.0,0.0
20098734731416,-0.76570326,8.805588,4.3405805,0.0,0.0,0.0
20098737110426,-0.7704889,8.834301,4.331009,0.0,0.0,0.0
20098739489436,-0.8327023,8.819944,4.3262234,0.0,0.0,0.0
20098741868395,-0.8757731,8.815159,4.3405805,0.0,0.0,0.0
20098744247457,-0.9236295,8.839087,4.3357944,0.0,0.0,0.0
20098746626468,-0.98584294,8.843872,4.3405805,0.0,0.0,0.0
20098749005426,-1.0624132,8.843872,4.3357944,0.0,0.0,0.0
20098751384436,-1.1006985,8.848659,4.3645086,0.0,0.0,0.0
20098753763447,-1.1437693,8.85823,4.369294,0.0,0.0,0.0
20098756142457,-1.1772687,8.834301,4.388437,0.0,0.0,0.0
20098758521468,-1.1964114,8.848659,4.398008,0.0,0.0,0.0
20098760900478,-1.2059826,8.839087,4.398008,0.0,0.0,0.0
20098763279489,-1.1964114,8.810373,4.426722,0.0,0.0,0.0
20098765658447,-1.1629118,8.800801,4.4410787,0.0,0.0,0.0
20098768037457,-1.1246266,8.786445,4.4458647,0.0,0.0,0.0
20098770416468,-1.0863415,8.800801,4.426722,0.0,0.0,0.0
20098772795478,-1.0432707,8.810373,4.426722,0.0,0.0,0.0
20098775174489,-0.9954142,8.839087,4.398008,0.0,0.0,0.0
20098777553499,-0.94277215,8.843872,4.3645086,0.0,0.0,0.0
20098779932509,-0.8997013,8.843872,4.354937,0.0,0.0,0.0
20098782311520,-0.8709874,8.82473,4.345366,0.0,0.0,0.0
20098784690478,-0.8327023,8.82473,4.3357944,0.0,0.0,0.0
20098787069489,-0.83748794,8.819944,4.3118663,0.0,0.0,0.0
20098789448499,-0.8327023,8.805588,4.3070807,0.0,0.0,0.0
20098791827509,-0.83748794,8.800801,4.3262234,0.0,0.0,0.0
20098794206520,-0.8422736,8.810373,4.331009,0.0,0.0,0.0
20098796585530,-0.8853444,8.819944,4.331009,0.0,0.0,0.0
20098798964541,-0.9379865,8.815159,4.3118663,0.0,0.0,0.0
20098801343499,-0.971486,8.815159,4.3070807,0.0,0.0,0.0
20098803722509,-1.0097711,8.834301,4.2927237,0.0,0.0,0.0
20098806101520,-1.0863415,8.834301,4.2927237,0.0,0.0,0.0
20098808480530,-1.119841,8.829515,4.2975097,0.0,0.0,0.0
20098810859541,-1.1581261,8.843872,4.302295,0.0,0.0,0.0
20098813238551,-1.1964114,8.882157,4.2831526,0.0,0.0,0.0
20098815617561,-1.2107682,8.863015,4.273581,0.0,0.0,0.0
20098817996520,-1.2203395,8.848659,4.249653,0.0,0.0,0.0
20098820375530,-1.2107682,8.863015,4.240082,0.0,0.0,0.0
20098822754541,-1.1581261,8.829515,4.2352962,0.0,0.0,0.0
20098825133551,-1.134198,8.82473,4.2257247,0.0,0.0,0.0
20098827512561,-1.0959128,8.805588,4.2352962,0.0,0.0,0.0
20098829891572,-1.0336994,8.810373,4.240082,0.0,0.0,0.0
20098832270582,-1.0049855,8.819944,4.240082,0.0,0.0,0.0
20098834649593,-0.9523434,8.800801,4.2352962,0.0,0.0,0.0
20098837028603,-0.94277215,8.796016,4.2687955,0.0,0.0,0.0
20098839407561,-0.9236295,8.786445,4.273581,0.0,0.0,0.0
20098841786572,-0.91405827,8.79123,4.278367,0.0,0.0,0.0
20098844165582,-0.91884387,8.781659,4.287938,0.0,0.0,0.0
20098846544593,-0.9236295,8.7673025,4.273581,0.0,0.0,0.0
20098848923603,-0.95712906,8.776874,4.273581,0.0,0.0,0.0
20098851302614,-0.9810573,8.786445,4.273581,0.0,0.0,0.0
20098853681624,-0.9954142,8.776874,4.2975097,0.0,0.0,0.0
20098856060582,-1.0049855,8.772088,4.321438,0.0,0.0,0.0
20098858439593,-1.0289137,8.786445,4.3262234,0.0,0.0,0.0
20098860818603,-1.0336994,8.810373,4.3501515,0.0,0.0,0.0
20098863197614,-1.0241281,8.810373,4.345366,0.0,0.0,0.0
20098865576624,-1.0193424,8.786445,4.3788652,0.0,0.0,0.0
20098867955634,-1.0001999,8.79123,4.398008,0.0,0.0,0.0
20098870334645,-0.971486,8.805588,4.421936,0.0,0.0,0.0
20098872713603,-0.9619147,8.805588,4.412365,0.0,0.0,0.0
20098875092614,-0.9092726,8.819944,4.398008,0.0,0.0,0.0
20098877471624,-0.8709874,8.829515,4.402794,0.0,0.0,0.0
20098879850634,-0.8279166,8.853444,4.388437,0.0,0.0,0.0
20098882229645,-0.80877405,8.843872,4.369294,0.0,0.0,0.0
20098884608655,-0.7800602,8.863015,4.359723,0.0,0.0,0.0
20098886987666,-0.7609176,8.848659,4.3740797,0.0,0.0,0.0
20098889366624,-0.7322037,8.867801,4.369294,0.0,0.0,0.0
20098891745634,-0.7465607,8.863015,4.369294,0.0,0.0,0.0
20098894124645,-0.7513463,8.877372,4.345366,0.0,0.0,0.0
20098896503603,-0.7513463,8.882157,4.331009,0.0,0.0,0.0
20098898882666,-0.7704889,8.863015,4.3645086,0.0,0.0,0.0
20098901261676,-0.7800602,8.877372,4.3740797,0.0,0.0,0.0
20098903640686,-0.82313097,8.872586,4.3836513,0.0,0.0,0.0
20098906019645,-0.83748794,8.882157,4.3645086,0.0,0.0,0.0
20098908398655,-0.8805587,8.877372,4.3501515,0.0,0.0,0.0
20098910777718,-0.9236295,8.877372,4.3262234,0.0,0.0,0.0
20098913156676,-0.971486,8.896515,4.321438,0.0,0.0,0.0
20098915535686,-1.0049855,8.85823,4.345366,0.0,0.0,0.0
20098917914697,-1.0097711,8.863015,4.359723,0.0,0.0,0.0
20098920293707,-1.0001999,8.85823,4.345366,0.0,0.0,0.0
20098922672718,-1.0193424,8.839087,4.345366,0.0,0.0,0.0
20098925051728,-0.98584294,8.829515,4.3357944,0.0,0.0,0.0
20098927430686,-0.971486,8.829515,4.3118663,0.0,0.0,0.0
20098929809697,-0.94755775,8.815159,4.3262234,0.0,0.0,0.0
20098932188707,-0.91884387,8.810373,4.3262234,0.0,0.0,0.0
20098934567718,-0.90448695,8.772088,4.2927237,0.0,0.0,0.0
20098936946728,-0.8805587,8.79123,4.2975097,0.0,0.0,0.0
20098939325739,-0.8805587,8.79123,4.302295,0.0,0.0,0.0
20098941704749,-0.8853444,8.805588,4.3070807,0.0,0.0,0.0
20098944083707,-0.8757731,8.829515,4.331009,0.0,0.0,0.0
20098946462718,-0.8566305,8.810373,4.321438,0.0,0.0,0.0
20098948841728,-0.8662018,8.839087,4.302295,0.0,0.0,0.0
20098951220739,-0.90448695,8.882157,4.3070807,0.0,0.0,0.0
20098953599749,-0.93320084,8.843872,4.3118663,0.0,0.0,0.0
20098955978759,-0.95712906,8.839087,4.3357944,0.0,0.0,0.0
20098958357770,-0.9762716,8.848659,4.3501515,0.0,0.0,0.0
20098960736780,-0.9954142,8.810373,4.3740797,0.0,0.0,0.0
20098963115739,-1.0097711,8.82473,4.388437,0.0,0.0,0.0
20098965494749,-1.0241281,8.819944,4.388437,0.0,0.0,0.0
20098967873759,-1.0289137,8.796016,4.369294,0.0,0.0,0.0
20098970252770,-1.0097711,8.786445,4.359723,0.0,0.0,0.0
20098972631780,-0.9906286,8.772088,4.3501515,0.0,0.0,0.0
20098975010791,-0.9762716,8.752945,4.3405805,0.0,0.0,0.0
20098977389801,-0.9284152,8.772088,4.3405805,0.0,0.0,0.0
20098979768811,-0.89491564,8.762517,4.321438,0.0,0.0,0.0
20098982147770,-0.8566305,8.772088,4.2975097,0.0,0.0,0.0
20098984526780,-0.7896315,8.800801,4.2831526,0.0,0.0,0.0
20098986905791,-0.72263247,8.819944,4.273581,0.0,0.0,0.0
20098989284801,-0.6652047,8.815159,4.2975097,0.0,0.0,0.0
20098991663811,-0.5886344,8.834301,4.316652,0.0,0.0,0.0
20098994042822,-0.56470615,8.810373,4.3262234,0.0,0.0,0.0
20098996421832,-0.53599226,8.819944,4.345366,0.0,0.0,0.0
20098998800791,-0.4977071,8.815159,4.3357944,0.0,0.0,0.0
20099001179801,-0.44985065,8.834301,4.3118663,0.0,0.0,0.0
20099003558811,-0.44985065,8.834301,4.2927237,0.0,0.0,0.0
20099005937822,-0.44506502,8.796016,4.316652,0.0,0.0,0.0
20099008316832,-0.45942193,8.796016,4.331009,0.0,0.0,0.0
20099010695843,-0.4642076,8.805588,4.359723,0.0,0.0,0.0
20099013074853,-0.5024927,8.796016,4.369294,0.0,0.0,0.0
20099015453811,-0.5455636,8.800801,4.354937,0.0,0.0,0.0
20099017832822,-0.59342,8.800801,4.3501515,0.0,0.0,0.0
20099020211832,-0.6412765,8.800801,4.3405805,0.0,0.0,0.0
20099022590843,-0.64606214,8.786445,4.3262234,0.0,0.0,0.0
20099024969853,-0.70348984,8.796016,4.3357944,0.0,0.0,0.0
20099027348864,-0.75613195,8.82473,4.354937,0.0,0.0,0.0
20099029727874,-0.7848458,8.834301,4.3740797,0.0,0.0,0.0
20099032106884,-0.82313097,8.829515,4.3836513,0.0,0.0,0.0
20099034485843,-0.8709874,8.834301,4.388437,0.0,0.0,0.0
20099036864853,-0.8853444,8.85823,4.3836513,0.0,0.0,0.0
20099039243864,-0.8997013,8.872586,4.3405805,0.0,0.0,0.0
20099041622874,-0.9092726,8.848659,4.331009,0.0,0.0,0.0
20099044001884,-0.91884387,8.863015,4.345366,0.0,0.0,0.0
20099046380895,-0.9284152,8.877372,4.321438,0.0,0.0,0.0
20099048759905,-0.94277215,8.839087,4.3357944,0.0,0.0,0.0
20099051138916,-0.9619147,8.848659,4.3357944,0.0,0.0,0.0
20099053517874,-0.9667004,8.848659,4.354937,0.0,0.0,0.0
20099055896884,-0.9906286,8.839087,4.3788652,0.0,0.0,0.0
20099058275895,-0.9954142,8.819944,4.388437,0.0,0.0,0.0
20099060654905,-1.0097711,8.800801,4.3932223,0.0,0.0,0.0
20099063033916,-1.0336994,8.805588,4.412365,0.0,0.0,0.0
20099065412926,-1.0241281,8.805588,4.3932223,0.0,0.0,0.0
20099067791936,-1.052842,8.810373,4.3788652,0.0,0.0,0.0
20099070170947,-1.0624132,8.815159,4.359723,0.0,0.0,0.0
20099072549905,-1.0576276,8.834301,4.354937,0.0,0.0,0.0
20099074928916,-1.0576276,8.843872,4.345366,0.0,0.0,0.0
20099077307926,-1.052842,8.863015,4.3405805,0.0,0.0,0.0
20099079686936,-1.0193424,8.9013,4.331009,0.0,0.0,0.0
20099082065895,-1.0001999,8.882157,4.321438,0.0,0.0,0.0
20099084444957,-0.9810573,8.863015,4.321438,0.0,0.0,0.0
20099086823968,-0.9762716,8.867801,4.316652,0.0,0.0,0.0
20099089202874,-0.95712906,8.886943,4.3118663,0.0,0.0,0.0
20099091581936,-0.94755775,8.867801,4.302295,0.0,0.0,0.0
20099093960947,-0.9619147,8.834301,4.3118663,0.0,0.0,0.0
20099096339957,-0.9284152,8.819944,4.331009,0.0,0.0,0.0
20099098718968,-0.91884387,8.800801,4.3357944,0.0,0.0,0.0
20099101097978,-0.93320084,8.786445,4.321438,0.0,0.0,0.0
20099103476989,-0.94755775,8.786445,4.316652,0.0,0.0,0.0
20099105855999,-0.971486,8.834301,4.2975097,0.0,0.0,0.0
20099108234957,-0.9810573,8.834301,4.2448673,0.0,0.0,0.0
20099110613968,-0.9667004,8.843872,4.23051,0.0,0.0,0.0
20099112992978,-0.9762716,8.867801,4.2352962,0.0,0.0,0.0
20099115371989,-0.98584294,8.872586,4.254439,0.0,0.0,0.0
20099117750999,-0.971486,8.877372,4.2592244,0.0,0.0,0.0
20099120130009,-0.98584294,8.906086,4.2927237,0.0,0.0,0.0
20099122509020,-0.971486,8.915657,4.273581,0.0,0.0,0.0
20099124888030,-0.98584294,8.9108715,4.278367,0.0,0.0,0.0
20099127266989,-0.9619147,8.882157,4.278367,0.0,0.0,0.0
20099129645999,-0.9619147,8.891729,4.26401,0.0,0.0,0.0
20099132025009,-0.8997013,8.886943,4.278367,0.0,0.0,0.0
20099134404020,-0.9236295,8.867801,4.302295,0.0,0.0,0.0
20099136783030,-0.9092726,8.853444,4.331009,0.0,0.0,0.0
20099139161989,-0.90448695,8.82473,4.359723,0.0,0.0,0.0
20099141541051,-0.8757731,8.800801,4.388437,0.0,0.0,0.0
20099143919957,-0.8566305,8.776874,4.4075794,0.0,0.0,0.0
20099146299020,-0.8422736,8.762517,4.412365,0.0,0.0,0.0
20099148678030,-0.8135597,8.743374,4.412365,0.0,0.0,0.0
20099151057041,-0.76570326,8.748159,4.3788652,0.0,0.0,0.0
20099153436051,-0.72263247,8.738588,4.3645086,0.0,0.0,0.0
20099155815061,-0.6891329,8.719446,4.354937,0.0,0.0,0.0
20099158194072,-0.6364908,8.729017,4.369294,0.0,0.0,0.0
20099160573082,-0.6269195,8.762517,4.345366,0.0,0.0,0.0
20099162952041,-0.5886344,8.786445,4.321438,0.0,0.0,0.0
20099165331051,-0.57906306,8.79123,4.302295,0.0,0.0,0.0
20099167710061,-0.5886344,8.829515,4.26401,0.0,0.0,0.0
20099170089072,-0.6221339,8.867801,4.254439,0.0,0.0,0.0
20099172468082,-0.66999036,8.886943,4.240082,0.0,0.0,0.0
20099174847093,-0.7178468,8.7673025,4.15394,0.0,0.0,0.0
20099177226103,-0.7178468,8.71466,3.938586,0.0,0.0,0.0
20099179605114,-0.70348984,9.059227,3.455236,0.0,0.0,0.0
20099181984072,-0.75613195,9.3511505,2.6656044,0.0,0.0,0.0
20099184363082,-0.82313097,9.293723,2.536392,0.0,0.0,0.0
20099186742093,-0.74177504,9.016156,3.6323047,0.0,0.0,0.0
20099189121103,-0.85184485,8.786445,5.2498527,0.0,0.0,0.0
20099191500114,-0.9523434,8.609376,6.2979093,0.0,0.0,0.0
20099193879124,-0.8662018,8.590233,6.2117677,0.0,0.0,0.0
20099196258134,-0.76570326,8.815159,5.087141,0.0,0.0,0.0
20099198637093,-0.8470592,9.068798,3.8333018,0.0,0.0,0.0
20099201016103,-0.76570326,9.078369,3.3260236,0.0,0.0,0.0
20099203395114,-0.6125626,8.85823,3.7423747,0.0,0.0,0.0
20099205774124,-0.6029913,8.705089,4.642076,0.0,0.0,0.0
20099208153134,-0.6412765,8.590233,5.2737813,0.0,0.0,0.0
20099210532145,-0.57427746,8.566305,5.206782,0.0,0.0,0.0
20099212911155,-0.5407779,8.738588,4.4889355,0.0,0.0,0.0
20099215290166,-0.59342,8.85823,3.6131623,0.0,0.0,0.0
20099217669124,-0.6412765,8.623733,3.330809,0.0,0.0,0.0
20099220048134,-0.70348984,8.250452,3.7423747,0.0,0.0,0.0
20099222427145,-0.7704889,8.599805,4.4841495,0.0,0.0,0.0
20099224806155,-0.95712906,9.475577,5.168497,0.0,0.0,0.0
20099227185166,-1.2011969,9.269794,5.3647084,0.0,0.0,0.0
20099229564124,-0.9906286,8.752945,5.1924253,0.0,0.0,0.0
20099231943186,-1.0432707,9.020942,4.4410787,0.0,0.0,0.0
20099234322145,-1.2203395,9.145369,3.3116665,0.0,0.0,0.0
20099236701155,-0.9762716,8.944371,2.684747,0.0,0.0,0.0
20099239080166,-0.8470592,8.973084,2.9479575,0.0,0.0,0.0
20099241459176,-1.0289137,9.15494,3.938586,0.0,0.0,0.0
20099243838186,-1.0959128,8.930014,4.9052863,0.0,0.0,0.0
20099246217197,-0.9810573,8.63809,5.2402816,0.0,0.0,0.0
20099248596207,-0.9906286,8.800801,4.914858,0.0,0.0,0.0
20099250975166,-0.9810573,8.891729,4.1587257,0.0,0.0,0.0
20099253354176,-0.95712906,8.7577305,3.5413775,0.0,0.0,0.0
20099255733186,-0.9762716,8.79123,3.4648073,0.0,0.0,0.0
20099258112197,-1.0671989,8.748159,3.8907297,0.0,0.0,0.0
20099260491207,-1.2011969,8.566305,4.733003,0.0,0.0,0.0
20099262870218,-1.3447664,8.566305,5.4125648,0.0,0.0,0.0
20099265249228,-1.5170496,8.786445,5.503492,0.0,0.0,0.0
20099267628239,-1.550549,8.930014,4.8909297,0.0,0.0,0.0
20099270007197,-1.5984055,8.939586,3.9864426,0.0,0.0,0.0
20099272386207,-1.7419748,9.035298,3.7280176,0.0,0.0,0.0
20099274765322,-1.7611175,8.987442,4.0534415,0.0,0.0,0.0
20099277144228,-1.9190438,8.867801,4.7952166,0.0,0.0,0.0
20099279523239,-1.9381863,8.834301,5.584848,0.0,0.0,0.0
20099281902249,-1.9381863,8.872586,5.9007006,0.0,0.0,0.0
20099284281259,-1.847259,8.810373,5.5800624,0.0,0.0,0.0
20099286660218,-1.7036897,8.829515,4.914858,0.0,0.0,0.0
20099289039228,-1.4979069,8.925228,4.2257247,0.0,0.0,0.0
20099291418239,-1.3208381,8.977871,4.0103707,0.0,0.0,0.0
20099293797249,-1.134198,8.867801,4.3262234,0.0,0.0,0.0
20099296176259,-0.89013004,8.709874,4.7712884,0.0,0.0,0.0
20099298555270,-0.74177504,8.671589,5.1493545,0.0,0.0,0.0
20099300934280,-0.47377887,8.628518,5.1014977,0.0,0.0,0.0
20099303313291,-0.25842485,8.652447,4.618148,0.0,0.0,0.0
20099305692249,-0.086141616,8.786445,4.0534415,0.0,0.0,0.0
20099308071259,0.038285162,8.79123,3.7663028,0.0,0.0,0.0
20099310450270,0.09571291,8.786445,3.9050865,0.0,0.0,0.0
20099312829280,0.05742774,8.796016,4.2975097,0.0,0.0,0.0
20099315208291,0.05742774,8.834301,4.709075,0.0,0.0,0.0
20099317587301,0.0526421,8.810373,4.8287163,0.0,0.0,0.0
20099319966311,-0.038285162,8.867801,4.546363,0.0,0.0,0.0
20099322345322,-0.16271193,8.915657,4.168297,0.0,0.0,0.0
20099324724280,-0.19142582,8.863015,3.9433718,0.0,0.0,0.0
20099327103291,-0.34456646,8.752945,3.8524444,0.0,0.0,0.0
20099329482301,-0.5168497,8.729017,3.9050865,0.0,0.0,0.0
20099331861311,-0.60777694,8.7577305,4.063013,0.0,0.0,0.0
20099334240322,-0.70348984,8.82473,4.168297,0.0,0.0,0.0
20099336619332,-0.8422736,8.906086,4.220939,0.0,0.0,0.0
20099338998343,-0.85184485,8.958728,4.1443686,0.0,0.0,0.0
20099341377353,-0.81834537,8.958728,4.005585,0.0,0.0,0.0
20099343756311,-0.79441714,8.939586,3.8524444,0.0,0.0,0.0
20099346135322,-0.7752745,8.906086,3.7663028,0.0,0.0,0.0
20099348514332,-0.6939186,8.848659,3.8524444,0.0,0.0,0.0
20099350893343,-0.61734825,8.772088,4.063013,0.0,0.0,0.0
20099353272353,-0.55513483,8.719446,4.302295,0.0,0.0,0.0
20099355651364,-0.4546363,8.733803,4.402794,0.0,0.0,0.0
20099358030322,-0.3589234,8.71466,4.240082,0.0,0.0,0.0
20099360409332,-0.30149564,8.79123,3.9577286,0.0,0.0,0.0
20099362788343,-0.15314065,8.839087,3.7184465,0.0,0.0,0.0
20099365167353,-0.06699903,8.848659,3.6753755,0.0,0.0,0.0
20099367546364,-0.019142581,8.800801,3.842873,0.0,0.0,0.0
20099369925374,0.086141616,8.79123,4.058227,0.0,0.0,0.0
20099372304384,0.10049855,8.796016,4.168297,0.0,0.0,0.0
20099374683395,0.05742774,8.786445,4.1204405,0.0,0.0,0.0
20099377062353,-0.014356935,8.7673025,3.9960139,0.0,0.0,0.0
20099379441364,-0.14356937,8.772088,3.8668015,0.0,0.0,0.0
20099381820374,-0.33020952,8.786445,3.8668015,0.0,0.0,0.0
20099384199384,-0.47856453,8.762517,4.034299,0.0,0.0,0.0
20099386578395,-0.67477596,8.743374,4.2831526,0.0,0.0,0.0
20099388957405,-0.8422736,8.743374,4.4841495,0.0,0.0,0.0
20099391336416,-0.9954142,8.705089,4.5415773,0.0,0.0,0.0
20099393715426,-1.1006985,8.7673025,4.426722,0.0,0.0,0.0
20099396094384,-1.1533405,8.810373,4.2448673,0.0,0.0,0.0
20099398473395,-1.1820544,8.796016,4.115655,0.0,0.0,0.0
20099400852405,-1.2203395,8.819944,4.1491547,0.0,0.0,0.0
20099403231416,-1.2155539,8.796016,4.316652,0.0,0.0,0.0
20099405610426,-1.2107682,8.776874,4.503292,0.0,0.0,0.0
20099407989436,-1.2251252,8.781659,4.627719,0.0,0.0,0.0
20099410368447,-1.2155539,8.800801,4.6564326,0.0,0.0,0.0
20099412747405,-1.2346965,8.819944,4.613362,0.0,0.0,0.0
20099415126416,-1.2490535,8.839087,4.584648,0.0,0.0,0.0
20099417505426,-1.2729816,8.796016,4.6037908,0.0,0.0,0.0
20099419884436,-1.2729816,8.786445,4.7042894,0.0,0.0,0.0
20099422263395,-1.2873386,8.786445,4.847859,0.0,0.0,0.0
20099424642457,-1.2777673,8.776874,4.962714,0.0,0.0,0.0
20099427021468,-1.2442678,8.772088,4.9770713,0.0,0.0,0.0
20099429400478,-1.2059826,8.7673025,4.9435716,0.0,0.0,0.0
20099431779436,-1.119841,8.800801,4.8909297,0.0,0.0,0.0
20099434158395,-1.0241281,8.810373,4.843073,0.0,0.0,0.0
20099436537457,-0.90448695,8.82473,4.847859,0.0,0.0,0.0
20099438916468,-0.79441714,8.843872,4.895715,0.0,0.0,0.0
20099441295478,-0.6795616,8.848659,4.914858,0.0,0.0,0.0
20099443674489,-0.5312066,8.877372,4.9196434,0.0,0.0,0.0
20099446053499,-0.41156548,8.963513,4.85743,0.0,0.0,0.0
20099448432509,-0.27756742,8.973084,4.7377887,0.0,0.0,0.0
20099450811468,-0.15314065,8.992228,4.5942197,0.0,0.0,0.0
20099453190478,-0.0526421,9.020942,4.465007,0.0,0.0,0.0
20099455569489,0.014356935,9.001799,4.388437,0.0,0.0,0.0
20099457948499,0.05742774,8.953942,4.331009,0.0,0.0,0.0
20099460327509,0.05742774,8.939586,4.2975097,0.0,0.0,0.0
20099462706520,0.038285162,8.915657,4.2352962,0.0,0.0,0.0
20099465085530,-0.06699903,8.9108715,4.115655,0.0,0.0,0.0
20099467464489,-0.19142582,8.930014,4.019942,0.0,0.0,0.0
20099469843499,-0.3684947,8.877372,3.9625144,0.0,0.0,0.0
20099472222509,-0.6029913,8.815159,3.9673,0.0,0.0,0.0
20099474601520,-0.8135597,8.800801,3.9625144,0.0,0.0,0.0
20099476980530,-1.0815558,8.786445,4.005585,0.0,0.0,0.0
20099479359541,-1.3208381,8.810373,4.0295134,0.0,0.0,0.0
20099481738551,-1.5553347,8.815159,4.0151563,0.0,0.0,0.0
20099484117561,-1.7611175,8.839087,3.9864426,0.0,0.0,0.0
20099486496520,-1.9142581,8.891729,3.9673,0.0,0.0,0.0
20099488875530,-2.053042,8.915657,3.9625144,0.0,0.0,0.0
20099491254541,-2.1391835,8.925228,4.0007997,0.0,0.0,0.0
20099493633551,-2.1104696,8.953942,4.0773697,0.0,0.0,0.0
20099496012561,-2.0578275,8.987442,4.15394,0.0,0.0,0.0
20099498391572,-1.9190438,8.953942,4.2352962,0.0,0.0,0.0
20099500770582,-1.6941184,8.968299,4.2927237,0.0,0.0,0.0
20099503149593,-1.430908,8.963513,4.3070807,0.0,0.0,0.0
20099505528551,-1.1485549,9.01137,4.3118663,0.0,0.0,0.0
20099507907561,-0.7752745,8.997013,4.206582,0.0,0.0,0.0
20099510286572,-0.4833502,9.030513,4.072584,0.0,0.0,0.0
20099512665582,-0.21535404,8.925228,4.0390844,0.0,0.0,0.0
20099515044593,0.07178468,8.738588,4.1204405,0.0,0.0,0.0
20099517423603,0.27756742,8.748159,4.2975097,0.0,0.0,0.0
20099519802561,0.44985065,8.872586,4.3836513,0.0,0.0,0.0
20099522181572,0.52163535,8.867801,4.398008,0.0,0.0,0.0
20099524560582,0.63170516,8.848659,4.321438,0.0,0.0,0.0
20099526939593,0.5694918,8.906086,4.3501515,0.0,0.0,0.0
20099529318603,0.45942193,8.819944,4.436293,0.0,0.0,0.0
20099531697614,0.28235307,8.671589,4.618148,0.0,0.0,0.0
20099534076624,0.07178468,8.662018,4.7569313,0.0,0.0,0.0
20099536455634,-0.21535404,8.752945,4.800002,0.0,0.0,0.0
20099538834645,-0.5072784,8.781659,4.7377887,0.0,0.0,0.0
20099541213603,-0.7848458,8.805588,4.642076,0.0,0.0,0.0
20099543592614,-1.038485,8.891729,4.5320063,0.0,0.0,0.0
20099545971624,-1.2634103,8.9108715,4.4985065,0.0,0.0,0.0
20099548350634,-1.4739788,8.843872,4.4985065,0.0,0.0,0.0
20099550729645,-1.6462619,8.848659,4.570291,0.0,0.0,0.0
20099553108655,-1.7659031,8.867801,4.7042894,0.0,0.0,0.0
20099555487666,-1.8424734,8.815159,4.8095737,0.0,0.0,0.0
20099557866624,-1.8711873,8.805588,4.790431,0.0,0.0,0.0
20099560245634,-1.8233309,8.839087,4.651647,0.0,0.0,0.0
20099562624645,-1.7371893,8.872586,4.503292,0.0,0.0,0.0
20099565003655,-1.6175481,8.843872,4.4075794,0.0,0.0,0.0
20099567382666,-1.4500505,8.839087,4.3357944,0.0,0.0,0.0
20099569761676,-1.2251252,8.829515,4.3262234,0.0,0.0,0.0
20099572140686,-0.9810573,8.79123,4.3118663,0.0,0.0,0.0
20099574519697,-0.71306115,8.7577305,4.3262234,0.0,0.0,0.0
20099576898655,-0.47856453,8.748159,4.331009,0.0,0.0,0.0
20099579277666,-0.22492532,8.743374,4.220939,0.0,0.0,0.0
20099581656676,-0.033499517,8.786445,4.034299,0.0,0.0,0.0
20099584035686,0.14356937,8.796016,3.8572302,0.0,0.0,0.0
20099586414697,0.28235307,8.800801,3.7615173,0.0,0.0,0.0
20099588793707,0.35413775,8.796016,3.7950168,0.0,0.0,0.0
20099591172718,0.3397808,8.7673025,3.9338005,0.0,0.0,0.0
20099593551728,0.3062813,8.719446,4.063013,0.0,0.0,0.0
20099595930686,0.22492532,8.719446,4.091727,0.0,0.0,0.0
20099598309697,0.062213387,8.743374,4.034299,0.0,0.0,0.0
20099600688707,-0.09092726,8.752945,3.9338005,0.0,0.0,0.0
20099603067718,-0.2632105,8.781659,3.871587,0.0,0.0,0.0
20099605446728,-0.4833502,8.819944,3.8763726,0.0,0.0,0.0
20099607825739,-0.70348984,8.810373,3.9242291,0.0,0.0,0.0
20099610204749,-0.8853444,8.776874,3.9433718,0.0,0.0,0.0
20099612583655,-1.0719845,8.834301,3.9433718,0.0,0.0,0.0
20099614962718,-1.2107682,8.834301,3.9338005,0.0,0.0,0.0
20099617341728,-1.3304094,8.82473,3.9194436,0.0,0.0,0.0
20099619720739,-1.3782659,8.786445,3.938586,0.0,0.0,0.0
20099622099749,-1.3926228,8.839087,3.9816568,0.0,0.0,0.0
20099624478759,-1.3351951,8.839087,4.0534415,0.0,0.0,0.0
20099626857770,-1.2203395,8.796016,4.1443686,0.0,0.0,0.0
20099629236780,-1.0815558,8.839087,4.211368,0.0,0.0,0.0
20099631615739,-0.91405827,8.85823,4.2592244,0.0,0.0,0.0
20099633994697,-0.6795616,8.82473,4.254439,0.0,0.0,0.0
20099636373759,-0.47377887,8.843872,4.2592244,0.0,0.0,0.0
20099638752770,-0.25842485,8.843872,4.3070807,0.0,0.0,0.0
20099641131780,-0.0526421,8.772088,4.4171505,0.0,0.0,0.0
20099643510791,0.11485548,8.733803,4.575077,0.0,0.0,0.0
20099645889801,0.2009971,8.776874,4.718646,0.0,0.0,0.0
20099648268811,0.28713873,8.743374,4.7569313,0.0,0.0,0.0
20099650647770,0.32063824,8.772088,4.6372905,0.0,0.0,0.0
20099653026780,0.2727818,8.829515,4.5320063,0.0,0.0,0.0
20099655405791,0.18185452,8.805588,4.4841495,0.0,0.0,0.0
20099657784801,0.0,8.752945,4.5559344,0.0,0.0,0.0
20099660163811,-0.22013968,8.752945,4.694718,0.0,0.0,0.0
20099662542822,-0.46899325,8.752945,4.8382874,0.0,0.0,0.0
20099664921832,-0.6891329,8.719446,4.85743,0.0,0.0,0.0
20099667300791,-0.9667004,8.772088,4.7569313,0.0,0.0,0.0
20099669679801,-1.2155539,8.891729,4.613362,0.0,0.0,0.0
20099672058811,-1.4069797,8.877372,4.4841495,0.0,0.0,0.0
20099674437822,-1.5840486,8.886943,4.4458647,0.0,0.0,0.0
20099676816832,-1.7324036,8.992228,4.503292,0.0,0.0,0.0
20099679195843,-1.8424734,8.997013,4.5320063,0.0,0.0,0.0
20099681574853,-1.9142581,9.025727,4.517649,0.0,0.0,0.0
20099683953811,-1.9477576,8.963513,4.4554358,0.0,0.0,0.0
20099686332822,-1.9381863,8.930014,4.4889355,0.0,0.0,0.0
20099688711832,-1.7802601,8.882157,4.575077,0.0,0.0,0.0
20099691090843,-1.6797615,8.829515,4.6037908,0.0,0.0,0.0
20099693469853,-1.5026926,8.872586,4.5894337,0.0,0.0,0.0
20099695848864,-1.3160524,8.872586,4.546363,0.0,0.0,0.0
20099698227874,-1.1102697,8.776874,4.4889355,0.0,0.0,0.0
20099700606884,-0.94277215,8.829515,4.465007,0.0,0.0,0.0
20099702985843,-0.74177504,8.796016,4.5128636,0.0,0.0,0.0
20099705364801,-0.57906306,8.729017,4.5655055,0.0,0.0,0.0
20099707743864,-0.46899325,8.772088,4.4745784,0.0,0.0,0.0
20099710122874,-0.4019942,8.863015,4.287938,0.0,0.0,0.0
20099712501884,-0.37328035,8.896515,4.139583,0.0,0.0,0.0
20099714880895,-0.38763726,8.915657,4.048656,0.0,0.0,0.0
20099717259905,-0.4546363,8.939586,4.048656,0.0,0.0,0.0
20099719638916,-0.53599226,8.973084,4.125226,0.0,0.0,0.0
20099722017874,-0.5982057,8.944371,4.197011,0.0,0.0,0.0
20099724396884,-0.6795616,8.958728,4.2592244,0.0,0.0,0.0
20099726775895,-0.76570326,8.992228,4.2927237,0.0,0.0,0.0
20099729154905,-0.8422736,9.01137,4.220939,0.0,0.0,0.0
20099731533916,-0.89491564,9.025727,4.115655,0.0,0.0,0.0
20099733912926,-0.95712906,9.020942,4.1347976,0.0,0.0,0.0
20099736291936,-0.95712906,8.958728,4.220939,0.0,0.0,0.0
20099738670947,-0.93320084,8.920443,4.3262234,0.0,0.0,0.0
20099741049853,-0.8757731,8.882157,4.4410787,0.0,0.0,0.0
20099743428916,-0.7848458,8.805588,4.508078,0.0,0.0,0.0
20099745807926,-0.6364908,8.786445,4.4841495,0.0,0.0,0.0
20099748186936,-0.5312066,8.815159,4.388437,0.0,0.0,0.0
20099750565947,-0.3493521,8.819944,4.2927237,0.0,0.0,0.0
20099752944957,-0.19621146,8.772088,4.278367,0.0,0.0,0.0
20099755323968,-0.033499517,8.762517,4.3262234,0.0,0.0,0.0
20099757702926,0.124426775,8.781659,4.402794,0.0,0.0,0.0
20099760081936,0.27756742,8.752945,4.412365,0.0,0.0,0.0
20099762460947,0.40677986,8.752945,4.354937,0.0,0.0,0.0
20099764839957,0.46899325,8.796016,4.278367,0.0,0.0,0.0
20099767218968,0.57427746,8.810373,4.2592244,0.0,0.0,0.0
20099769597978,0.61734825,8.7673025,4.321438,0.0,0.0,0.0
20099771976989,0.6125626,8.810373,4.388437,0.0,0.0,0.0
20099774355999,0.6269195,8.819944,4.4171505,0.0,0.0,0.0
20099776734957,0.5886344,8.863015,4.3405805,0.0,0.0,0.0
20099779113968,0.52163535,8.9108715,4.182654,0.0,0.0,0.0
20099781492978,0.43070808,8.891729,4.1108694,0.0,0.0,0.0
20099783871989,0.31585258,8.863015,4.139583,0.0,0.0,0.0
20099786250999,0.19621146,8.867801,4.1922255,0.0,0.0,0.0
20099788630009,0.08135597,8.863015,4.2592244,0.0,0.0,0.0
20099791009020,-0.019142581,8.815159,4.3070807,0.0,0.0,0.0
20099793387926,-0.11485548,8.82473,4.2975097,0.0,0.0,0.0
20099795766989,-0.17228323,8.82473,4.273581,0.0,0.0,0.0
20099798145999,-0.19142582,8.877372,4.354937,0.0,0.0,0.0
20099800525009,-0.15314065,8.834301,4.388437,0.0,0.0,0.0
20099802904020,-0.13399807,8.843872,4.3357944,0.0,0.0,0.0
20099805283030,-0.076570325,8.987442,4.2017965,0.0,0.0,0.0
20099807662041,0.043070808,9.001799,4.1587257,0.0,0.0,0.0
20099810041051,0.16271193,8.920443,4.15394,0.0,0.0,0.0
20099812420009,0.22971097,8.925228,4.249653,0.0,0.0,0.0
20099814799020,0.3062813,8.9348,4.3070807,0.0,0.0,0.0
20099817178030,0.43070808,8.872586,4.249653,0.0,0.0,0.0
20099819557041,0.4642076,8.863015,4.082155,0.0,0.0,0.0
20099821936051,0.46899325,8.958728,4.0103707,0.0,0.0,0.0
20099824315061,0.35413775,8.963513,4.125226,0.0,0.0,0.0
20099826694072,0.31106696,8.829515,4.2161536,0.0,0.0,0.0
20099829073030,0.24885355,8.709874,4.316652,0.0,0.0,0.0
20099831452041,0.033499517,8.781659,4.388437,0.0,0.0,0.0
20099833831051,-0.19142582,8.853444,4.354937,0.0,0.0,0.0
20099836210061,-0.24885355,8.776874,4.369294,0.0,0.0,0.0
20099838589072,-0.4354937,8.618947,4.369294,0.0,0.0,0.0
20099840968082,-0.7178468,8.676374,4.206582,0.0,0.0,0.0
20099843347093,-0.9762716,8.920443,4.168297,0.0,0.0,0.0
20099845726051,-0.90448695,8.738588,4.048656,0.0,0.0,0.0
20099848105061,-0.89491564,8.446664,4.019942,0.0,0.0,0.0
20099850484072,-1.1676974,8.7577305,4.398008,0.0,0.0,0.0
20099852863082,-1.1916257,8.9108715,4.6707897,0.0,0.0,0.0
20099855242093,-0.9236295,8.633304,4.685147,0.0,0.0,0.0
20099857621103,-0.85184485,8.652447,4.613362,0.0,0.0,0.0
20099860000114,-1.0097711,8.9348,4.426722,0.0,0.0,0.0
20099862379124,-0.9092726,8.9348,4.211368,0.0,0.0,0.0
20099864758134,-0.6412765,8.906086,4.1635113,0.0,0.0,0.0
20099867137093,-0.63170516,9.193225,4.287938,0.0,0.0,0.0
20099869516103,-0.85184485,9.652647,4.436293,0.0,0.0,0.0
20099871895114,-0.7896315,9.595219,4.412365,0.0,0.0,0.0
20099874274124,-0.526421,9.341579,4.278367,0.0,0.0,0.0
20099876653134,-0.5599205,9.446864,4.273581,0.0,0.0,0.0
20099879032145,-0.57427746,9.346365,4.3405805,0.0,0.0,0.0
20099881411155,-0.4019942,8.906086,4.436293,0.0,0.0,0.0
20099883790114,-0.44027936,8.671589,4.5655055,0.0,0.0,0.0
20099886169124,-0.6652047,8.772088,4.6325045,0.0,0.0,0.0
20099888548082,-0.79441714,8.690732,4.5272202,0.0,0.0,0.0
20099890927145,-0.8470592,8.532805,4.3501515,0.0,0.0,0.0
20099893306155,-1.0671989,8.60459,4.254439,0.0,0.0,0.0
20099895685166,-1.2634103,8.690732,4.331009,0.0,0.0,0.0
20099898064176,-1.1916257,8.556734,4.45065,0.0,0.0,0.0
20099900443186,-1.1485549,8.504091,4.6085763,0.0,0.0,0.0
20099902822145,-1.2107682,8.681161,4.6755753,0.0,0.0,0.0
20099905201155,-1.2442678,8.82473,4.6229334,0.0,0.0,0.0
20099907580166,-1.0911272,8.800801,4.3932223,0.0,0.0,0.0
20099909959176,-0.8805587,8.843872,4.15394,0.0,0.0,0.0
20099912338186,-0.7369894,9.001799,4.063013,0.0,0.0,0.0
20099914717197,-0.6939186,9.064013,4.139583,0.0,0.0,0.0
20099917096207,-0.5694918,9.025727,4.2831526,0.0,0.0,0.0
20099919475218,-0.42592242,8.987442,4.4171505,0.0,0.0,0.0
20099921854176,-0.37328035,9.006584,4.517649,0.0,0.0,0.0
20099924233186,-0.32542387,9.016156,4.493721,0.0,0.0,0.0
20099926612197,-0.19621146,8.953942,4.321438,0.0,0.0,0.0
20099928991207,-0.12921242,8.953942,4.1204405,0.0,0.0,0.0
20099931370218,-0.13878371,9.035298,4.072584,0.0,0.0,0.0
20099933749228,-0.16271193,9.016156,4.101298,0.0,0.0,0.0
20099936128239,-0.25842485,8.9013,4.1874394,0.0,0.0,0.0
20099938507197,-0.2632105,8.867801,4.354937,0.0,0.0,0.0
20099940886207,-0.28235307,8.877372,4.4458647,0.0,0.0,0.0
20099943265218,-0.24885355,8.85823,4.331009,0.0,0.0,0.0
20099945644228,-0.09092726,8.781659,4.1443686,0.0,0.0,0.0
20099948023239,-0.023928227,8.810373,4.0438704,0.0,0.0,0.0
20099950402249,-0.038285162,8.853444,4.0151563,0.0,0.0,0.0
20099952781259,-0.0047856453,8.819944,4.0677986,0.0,0.0,0.0
20099955160218,0.1052842,8.776874,4.1587257,0.0,0.0,0.0
20099957539228,0.086141616,8.819944,4.287938,0.0,0.0,0.0
20099959918239,-0.019142581,8.85823,4.316652,0.0,0.0,0.0
20099962297249,-0.033499517,8.815159,4.273581,0.0,0.0,0.0
20099964676259,-0.043070808,8.79123,4.249653,0.0,0.0,0.0
20099967055270,-0.16749759,8.829515,4.254439,0.0,0.0,0.0
20099969434280,-0.23928227,8.810373,4.331009,0.0,0.0,0.0
20099971813291,-0.13878371,8.7673025,4.4554358,0.0,0.0,0.0
20099974192249,-0.014356935,8.796016,4.5559344,0.0,0.0,0.0
20099976571259,0.023928227,8.79123,4.4889355,0.0,0.0,0.0
20099978950270,0.047856454,8.729017,4.2592244,0.0,0.0,0.0
20099981329280,0.15792629,8.743374,4.173083,0.0,0.0,0.0
20099983708291,0.21535404,8.743374,4.240082,0.0,0.0,0.0
20099986087249,0.17706887,8.786445,4.3070807,0.0,0.0,0.0
20099988466311,0.124426775,8.891729,4.3645086,0.0,0.0,0.0
20099990845322,0.19142582,8.786445,4.2927237,0.0,0.0,0.0
20099993224280,0.13399807,8.719446,4.182654,0.0,0.0,0.0
20099995603291,-0.038285162,8.79123,4.168297,0.0,0.0,0.0
20099997982301,-0.08135597,8.748159,4.3118663,0.0,0.0,0.0
20100000361311,-0.1052842,8.724232,4.4075794,0.0,0.0,0.0
20100002740322,-0.2632105,8.85823,4.4315076,0.0,0.0,0.0
20100005119332,-0.30149564,8.839087,4.302295,0.0,0.0,0.0
20100007498343,-0.36370903,8.652447,4.1922255,0.0,0.0,0.0
20100009877353,-0.4354937,8.590233,4.316652,0.0,0.0,0.0
20100012256311,-0.55034924,8.556734,4.5128636,0.0,0.0,0.0
20100014635322,-0.6652047,8.585447,4.599005,0.0,0.0,0.0
20100017014332,-0.6795616,8.705089,4.5655055,0.0,0.0,0.0
20100019393343,-0.74177504,8.829515,4.3645086,0.0,0.0,0.0
20100021772353,-0.7704889,8.977871,4.15394,0.0,0.0,0.0
20100024151364,-0.7704889,8.925228,4.024728,0.0,0.0,0.0
20100026530374,-0.94755775,8.513663,4.1443686,0.0,0.0,0.0
20100028909384,-0.8566305,7.8197446,4.101298,0.0,0.0,0.0
20100031288343,-0.6556334,7.365108,3.4887354,0.0,0.0,0.0
20100033667353,-0.19621146,7.800602,3.07717,0.0,0.0,0.0
20100036046364,0.56470615,8.1020975,3.4408789,0.0,0.0,0.0
20100038425374,0.91405827,7.8484583,4.0103707,0.0,0.0,0.0
20100040804384,0.7609176,8.532805,4.843073,0.0,0.0,0.0
20100043183395,0.8135597,9.2793665,5.2977095,0.0,0.0,0.0
20100045562405,0.6221339,9.432507,4.9531426,0.0,0.0,0.0
20100047941364,-0.009571291,10.126426,4.1874394,0.0,0.0,0.0
20100050320374,-0.5024927,11.040483,3.5605202,0.0,0.0,0.0
20100052699384,-0.7513463,10.944771,3.2303107,0.0,0.0,0.0
20100055078395,-1.5026926,10.60499,3.4648073,0.0,0.0,0.0
20100057457405,-2.0291135,10.217353,3.818945,0.0,0.0,0.0
20100059836416,-1.847259,9.7196455,4.398008,0.0,0.0,0.0
20100062215426,-2.0003998,9.202796,4.910072,0.0,0.0,0.0
20100064594436,-2.4454648,8.987442,5.2737813,0.0,0.0,0.0
20100066973447,-2.4263222,8.456235,5.2833524,0.0,0.0,0.0
20100069352405,-2.1966112,8.092526,5.2163534,0.0,0.0,0.0
20100071731416,-2.3641088,8.111669,5.1158547,0.0,0.0,0.0
20100074110426,-2.4885356,8.030313,4.752146,0.0,0.0,0.0
20100076489436,-2.3784657,8.12124,4.699504,0.0,0.0,0.0
20100078868447,-2.2444677,8.140383,4.570291,0.0,0.0,0.0
20100081247457,-2.239682,8.609376,4.74736,0.0,0.0,0.0
20100083626416,-1.8664017,8.82473,4.709075,0.0,0.0,0.0
20100086005426,-1.3064811,9.188439,4.8047876,0.0,0.0,0.0
20100088384436,-0.8757731,9.389436,4.723432,0.0,0.0,0.0
20100090763447,-0.3924229,9.480363,4.5272202,0.0,0.0,0.0
20100093142457,0.08135597,9.695718,4.6468616,0.0,0.0,0.0
20100095521468,0.64606214,9.585648,4.7952166,0.0,0.0,0.0
20100097900478,1.0480564,9.312865,4.867001,0.0,0.0,0.0
20100100279489,1.3208381,9.250652,5.0249276,0.0,0.0,0.0
20100102658499,1.402194,9.12144,5.020142,0.0,0.0,0.0
20100105037457,1.3830515,8.843872,4.6707897,0.0,0.0,0.0
20100107416468,1.1437693,8.738588,4.3118663,0.0,0.0,0.0
20100109795478,0.76570326,8.666803,4.034299,0.0,0.0,0.0
20100112174489,0.29671,8.551949,3.8811584,0.0,0.0,0.0
20100114553499,-0.14356937,8.389236,3.8380876,0.0,0.0,0.0
20100116932509,-0.57906306,8.398808,3.9433718,0.0,0.0,0.0
20100119311520,-0.9810573,8.370093,3.9577286,0.0,0.0,0.0
20100121690478,-1.3495519,8.389236,3.8907297,0.0,0.0,0.0
20100124069489,-1.6271194,8.441878,3.7423747,0.0,0.0,0.0
20100126448499,-1.8089739,8.422736,3.6179478,0.0,0.0,0.0
20100128827509,-2.0578275,8.484949,3.6370904,0.0,0.0,0.0
20100131206520,-2.1966112,8.571091,3.7280176,0.0,0.0,0.0
20100133585530,-2.2827528,8.647661,3.9050865,0.0,0.0,0.0
20100135964541,-2.2636101,8.681161,4.0007997,0.0,0.0,0.0
20100138343551,-2.2348964,8.829515,4.024728,0.0,0.0,0.0
20100140722509,-2.0482562,8.939586,3.9720855,0.0,0.0,0.0
20100143101520,-1.6941184,9.049655,3.9098723,0.0,0.0,0.0
20100145480530,-1.268196,9.078369,3.9242291,0.0,0.0,0.0
20100147859541,-0.76570326,9.12144,4.0438704,0.0,0.0,0.0
20100150238551,-0.21535404,9.131011,4.2448673,0.0,0.0,0.0
20100152617561,0.29192436,9.064013,4.421936,0.0,0.0,0.0
20100154996572,0.7322037,9.001799,4.4889355,0.0,0.0,0.0
20100157375530,1.0624132,8.963513,4.469793,0.0,0.0,0.0
20100159754541,1.2777673,8.939586,4.469793,0.0,0.0,0.0
20100162133551,1.3543376,8.877372,4.436293,0.0,0.0,0.0
20100164512561,1.2634103,8.82473,4.421936,0.0,0.0,0.0
20100166891572,1.0959128,8.805588,4.479364,0.0,0.0,0.0
20100169270582,0.76570326,8.752945,4.493721,0.0,0.0,0.0
20100171649593,0.42592242,8.719446,4.493721,0.0,0.0,0.0
20100174028603,0.09092726,8.676374,4.465007,0.0,0.0,0.0
20100176407561,-0.22492532,8.671589,4.412365,0.0,0.0,0.0
20100178786572,-0.5599205,8.647661,4.331009,0.0,0.0,0.0
20100181165582,-0.8709874,8.609376,4.2927237,0.0,0.0,0.0
20100183544593,-1.1389836,8.532805,4.302295,0.0,0.0,0.0
20100185923603,-1.4261223,8.49452,4.3405805,0.0,0.0,0.0
20100188302614,-1.6654046,8.480164,4.4075794,0.0,0.0,0.0
20100190681624,-1.8424734,8.456235,4.503292,0.0,0.0,0.0
20100193060582,-1.8807586,8.456235,4.5655055,0.0,0.0,0.0
20100195439593,-1.8951155,8.499306,4.651647,0.0,0.0,0.0
20100197818603,-1.7850457,8.508878,4.7042894,0.0,0.0,0.0
20100200197614,-1.5696917,8.590233,4.723432,0.0,0.0,0.0
20100202576624,-1.268196,8.719446,4.685147,0.0,0.0,0.0
20100204955634,-0.9092726,8.82473,4.613362,0.0,0.0,0.0
20100207334645,-0.49292147,8.9108715,4.536792,0.0,0.0,0.0
20100209713655,-0.11485548,8.949157,4.4554358,0.0,0.0,0.0
20100212092614,0.23449662,8.973084,4.354937,0.0,0.0,0.0
20100214471624,0.5455636,8.968299,4.273581,0.0,0.0,0.0
20100216850634,0.7704889,8.930014,4.2161536,0.0,0.0,0.0
20100219229645,0.9092726,8.9108715,4.1778684,0.0,0.0,0.0
20100221608655,0.9523434,8.9108715,4.1778684,0.0,0.0,0.0
20100223987666,0.9379865,8.949157,4.1922255,0.0,0.0,0.0
20100226366676,0.8566305,8.953942,4.206582,0.0,0.0,0.0
20100228745686,0.71306115,9.001799,4.211368,0.0,0.0,0.0
20100231124645,0.5312066,9.030513,4.2448673,0.0,0.0,0.0
20100233503655,0.29671,9.0544405,4.2831526,0.0,0.0,0.0
20100235882666,0.033499517,9.078369,4.3070807,0.0,0.0,0.0
20100238261676,-0.2009971,9.08794,4.321438,0.0,0.0,0.0
20100240640686,-0.4642076,9.08794,4.3405805,0.0,0.0,0.0
20100243019697,-0.6843473,9.083155,4.359723,0.0,0.0,0.0
20100245398707,-0.8709874,9.097511,4.3645086,0.0,0.0,0.0
20100247777718,-1.0097711,9.083155,4.388437,0.0,0.0,0.0
20100250156676,-1.1246266,9.064013,4.421936,0.0,0.0,0.0
20100252535686,-1.1772687,9.049655,4.45065,0.0,0.0,0.0
20100254914697,-1.1724831,9.049655,4.436293,0.0,0.0,0.0
20100257293707,-1.1150553,9.035298,4.412365,0.0,0.0,0.0
20100259672718,-1.0289137,9.040084,4.3788652,0.0,0.0,0.0
20100262051728,-0.8805587,9.006584,4.345366,0.0,0.0,0.0
20100264430739,-0.72263247,8.963513,4.3118663,0.0,0.0,0.0
20100266809749,-0.56470615,8.925228,4.2831526,0.0,0.0,0.0
20100269188707,-0.4354937,8.906086,4.273581,0.0,0.0,0.0
20100271567718,-0.32542387,8.877372,4.26401,0.0,0.0,0.0
20100273946728,-0.26799613,8.839087,4.2352962,0.0,0.0,0.0
20100276325739,-0.2440679,8.829515,4.2352962,0.0,0.0,0.0
20100278704749,-0.2536392,8.805588,4.2257247,0.0,0.0,0.0
20100281083759,-0.26799613,8.772088,4.197011,0.0,0.0,0.0
20100283462770,-0.3493521,8.7577305,4.197011,0.0,0.0,0.0
20100285841780,-0.39720857,8.781659,4.2257247,0.0,0.0,0.0
20100288220739,-0.46899325,8.7577305,4.23051,0.0,0.0,0.0
20100290599749,-0.5599205,8.752945,4.2448673,0.0,0.0,0.0
20100292978759,-0.6412765,8.772088,4.287938,0.0,0.0,0.0
20100295357770,-0.7609176,8.7577305,4.3118663,0.0,0.0,0.0
20100297736780,-0.8566305,8.748159,4.354937,0.0,0.0,0.0
20100300115791,-0.9523434,8.743374,4.4171505,0.0,0.0,0.0
20100302494801,-0.9619147,8.762517,4.4458647,0.0,0.0,0.0
20100304873759,-0.95712906,8.815159,4.4602213,0.0,0.0,0.0
20100307252770,-0.91405827,8.843872,4.4554358,0.0,0.0,0.0
20100309631780,-0.8566305,8.85823,4.4171505,0.0,0.0,0.0
20100312010791,-0.7513463,8.9108715,4.412365,0.0,0.0,0.0
20100314389801,-0.6221339,8.891729,4.4315076,0.0,0.0,0.0
20100316768811,-0.51206404,8.839087,4.4171505,0.0,0.0,0.0
20100319147822,-0.3684947,8.863015,4.398008,0.0,0.0,0.0
20100321526832,-0.23928227,8.872586,4.3501515,0.0,0.0,0.0
20100323905791,-0.12921242,8.85823,4.2831526,0.0,0.0,0.0
20100326284801,-0.038285162,8.85823,4.254439,0.0,0.0,0.0
20100328663811,0.0047856453,8.853444,4.249653,0.0,0.0,0.0
20100331042822,0.014356935,8.843872,4.254439,0.0,0.0,0.0
20100333421832,-0.043070808,8.829515,4.249653,0.0,0.0,0.0
20100335800843,-0.11006984,8.82473,4.2352962,0.0,0.0,0.0
20100338179853,-0.2009971,8.815159,4.2352962,0.0,0.0,0.0
20100340558811,-0.33499518,8.82473,4.211368,0.0,0.0,0.0
20100342937822,-0.4642076,8.815159,4.206582,0.0,0.0,0.0
20100345316832,-0.6412765,8.819944,4.26401,0.0,0.0,0.0
20100347695843,-0.76570326,8.805588,4.3070807,0.0,0.0,0.0
20100350074853,-0.89013004,8.829515,4.359723,0.0,0.0,0.0
20100352453864,-1.0001999,8.848659,4.3788652,0.0,0.0,0.0
20100354832874,-1.0432707,8.843872,4.388437,0.0,0.0,0.0
20100357211884,-1.0671989,8.829515,4.359723,0.0,0.0,0.0
20100359590843,-1.0863415,8.863015,4.345366,0.0,0.0,0.0
20100361969853,-1.0336994,8.85823,4.3118663,0.0,0.0,0.0
20100364348864,-0.9379865,8.85823,4.302295,0.0,0.0,0.0
20100366727874,-0.83748794,8.863015,4.278367,0.0,0.0,0.0
20100369106884,-0.7322037,8.843872,4.2687955,0.0,0.0,0.0
20100371485895,-0.5838487,8.82473,4.249653,0.0,0.0,0.0
20100373864905,-0.4354937,8.839087,4.211368,0.0,0.0,0.0
20100376243916,-0.27756742,8.834301,4.168297,0.0,0.0,0.0
20100378622874,-0.124426775,8.848659,4.139583,0.0,0.0,0.0
20100381001884,-0.014356935,8.848659,4.139583,0.0,0.0,0.0
20100383380895,0.08135597,8.839087,4.1347976,0.0,0.0,0.0
20100385759905,0.148355,8.848659,4.1587257,0.0,0.0,0.0
20100388138916,0.17228323,8.867801,4.1922255,0.0,0.0,0.0
20100390517926,0.15792629,8.85823,4.206582,0.0,0.0,0.0
20100392896936,0.12921242,8.867801,4.240082,0.0,0.0,0.0
20100395275947,0.05742774,8.891729,4.2592244,0.0,0.0,0.0
20100397654905,-0.02871387,8.891729,4.273581,0.0,0.0,0.0
20100400033916,-0.14356937,8.9108715,4.3070807,0.0,0.0,0.0
20100402412926,-0.24885355,8.882157,4.369294,0.0,0.0,0.0
20100404791936,-0.32542387,8.891729,4.421936,0.0,0.0,0.0
20100407170947,-0.43070808,8.9013,4.465007,0.0,0.0,0.0
20100409549957,-0.55034924,8.915657,4.493721,0.0,0.0,0.0
20100411928968,-0.61734825,8.925228,4.4985065,0.0,0.0,0.0
20100414307978,-0.67477596,8.930014,4.479364,0.0,0.0,0.0
20100416686936,-0.7178468,8.939586,4.4841495,0.0,0.0,0.0
20100419065947,-0.7513463,8.9108715,4.4985065,0.0,0.0,0.0
20100421444957,-0.7704889,8.9348,4.5415773,0.0,0.0,0.0
20100423823968,-0.7513463,8.915657,4.570291,0.0,0.0,0.0
20100426202978,-0.6987042,8.896515,4.570291,0.0,0.0,0.0
20100428581989,-0.63170516,8.853444,4.4889355,0.0,0.0,0.0
20100430960999,-0.56470615,8.882157,4.398008,0.0,0.0,0.0
20100433339957,-0.5024927,8.872586,4.331009,0.0,0.0,0.0
20100435718968,-0.52163535,8.800801,4.321438,0.0,0.0,0.0
20100438097978,-0.55513483,8.762517,4.359723,0.0,0.0,0.0
20100440476989,-0.5982057,8.752945,4.3932223,0.0,0.0,0.0
20100442855999,-0.65084773,8.796016,4.402794,0.0,0.0,0.0
20100445235009,-0.7465607,8.796016,4.3932223,0.0,0.0,0.0
20100447614020,-0.82313097,8.79123,4.3645086,0.0,0.0,0.0
20100449993030,-0.8805587,8.805588,4.3357944,0.0,0.0,0.0
20100452372041,-0.93320084,8.834301,4.3357944,0.0,0.0,0.0
20100454750999,-0.9667004,8.867801,4.3501515,0.0,0.0,0.0
20100457130009,-0.98584294,8.863015,4.3357944,0.0,0.0,0.0
20100459509020,-0.98584294,8.853444,4.316652,0.0,0.0,0.0
20100461888030,-0.9906286,8.848659,4.273581,0.0,0.0,0.0
20100464267041,-0.9762716,8.863015,4.2161536,0.0,0.0,0.0
20100466646051,-0.9906286,8.867801,4.168297,0.0,0.0,0.0
20100469025061,-0.94755775,8.839087,4.139583,0.0,0.0,0.0
20100471404020,-0.9236295,8.819944,4.139583,0.0,0.0,0.0
20100473783030,-0.8470592,8.839087,4.125226,0.0,0.0,0.0
20100476162041,-0.7752745,8.834301,4.1204405,0.0,0.0,0.0
20100478541051,-0.6939186,8.848659,4.091727,0.0,0.0,0.0
20100480920061,-0.5838487,8.843872,4.058227,0.0,0.0,0.0
20100483299072,-0.49292147,8.848659,4.0390844,0.0,0.0,0.0
20100485678082,-0.37806597,8.839087,4.0438704,0.0,0.0,0.0
20100488057093,-0.31106696,8.834301,4.0534415,0.0,0.0,0.0
20100490436051,-0.22492532,8.805588,4.091727,0.0,0.0,0.0
20100492815061,-0.16271193,8.772088,4.1108694,0.0,0.0,0.0
20100495194072,-0.10049855,8.781659,4.1443686,0.0,0.0,0.0
20100497573082,-0.1052842,8.781659,4.139583,0.0,0.0,0.0
20100499952093,-0.07178468,8.79123,4.15394,0.0,0.0,0.0
20100502331103,-0.076570325,8.786445,4.1874394,0.0,0.0,0.0
20100504710114,-0.11485548,8.796016,4.2257247,0.0,0.0,0.0
20100507089124,-0.14356937,8.772088,4.278367,0.0,0.0,0.0
20100509468082,-0.20578274,8.82473,4.3070807,0.0,0.0,0.0
20100511847093,-0.26799613,8.848659,4.359723,0.0,0.0,0.0
20100514226103,-0.3397808,8.85823,4.388437,0.0,0.0,0.0
20100516605114,-0.44506502,8.853444,4.3932223,0.0,0.0,0.0
20100518984124,-0.47377887,8.848659,4.3836513,0.0,0.0,0.0
20100521363134,-0.55513483,8.829515,4.4171505,0.0,0.0,0.0
20100523742093,-0.6029913,8.800801,4.4554358,0.0,0.0,0.0
20100526121155,-0.67477596,8.805588,4.493721,0.0,0.0,0.0
20100528500114,-0.7322037,8.79123,4.5272202,0.0,0.0,0.0
20100530879124,-0.72741807,8.796016,4.5320063,0.0,0.0,0.0
20100533258134,-0.7369894,8.810373,4.5320063,0.0,0.0,0.0
20100535637145,-0.7178468,8.796016,4.5224347,0.0,0.0,0.0
20100538016155,-0.66999036,8.800801,4.493721,0.0,0.0,0.0
20100540395166,-0.6029913,8.815159,4.4745784,0.0,0.0,0.0
20100542774176,-0.526421,8.815159,4.45065,0.0,0.0,0.0
20100545153134,-0.45942193,8.82473,4.436293,0.0,0.0,0.0
20100547532145,-0.38285163,8.819944,4.4315076,0.0,0.0,0.0
20100549911155,-0.27756742,8.829515,4.426722,0.0,0.0,0.0
20100552290166,-0.19142582,8.839087,4.3788652,0.0,0.0,0.0
20100554669176,-0.11964113,8.82473,4.3645086,0.0,0.0,0.0
20100557048186,-0.062213387,8.834301,4.321438,0.0,0.0,0.0
20100559427197,-0.009571291,8.819944,4.3405805,0.0,0.0,0.0
20100561806207,0.019142581,8.800801,4.3070807,0.0,0.0,0.0
20100564185166,0.009571291,8.810373,4.2831526,0.0,0.0,0.0
20100566564176,0.019142581,8.815159,4.2831526,0.0,0.0,0.0
20100568943186,-0.023928227,8.796016,4.2687955,0.0,0.0,0.0
20100571322197,-0.062213387,8.772088,4.2352962,0.0,0.0,0.0
20100573701207,-0.11485548,8.748159,4.220939,0.0,0.0,0.0
20100576080218,-0.19142582,8.7577305,4.2257247,0.0,0.0,0.0
20100578459228,-0.28713873,8.7577305,4.240082,0.0,0.0,0.0
20100580838239,-0.36370903,8.786445,4.287938,0.0,0.0,0.0
20100583217197,-0.45942193,8.781659,4.316652,0.0,0.0,0.0
20100585596207,-0.5407779,8.79123,4.3405805,0.0,0.0,0.0
20100587975218,-0.5886344,8.863015,4.316652,0.0,0.0,0.0
20100590354228,-0.60777694,8.891729,4.2831526,0.0,0.0,0.0
20100592733239,-0.6029913,8.891729,4.249653,0.0,0.0,0.0
20100595112249,-0.5982057,8.877372,4.2448673,0.0,0.0,0.0
20100597491259,-0.6029913,8.877372,4.2592244,0.0,0.0,0.0
20100599870270,-0.5982057,8.85823,4.2592244,0.0,0.0,0.0
20100602249228,-0.5886344,8.800801,4.2448673,0.0,0.0,0.0
20100604628239,-0.6125626,8.79123,4.220939,0.0,0.0,0.0
20100607007249,-0.66041905,8.79123,4.2161536,0.0,0.0,0.0
20100609386259,-0.6891329,8.7673025,4.1922255,0.0,0.0,0.0
20100611765270,-0.70348984,8.7673025,4.2017965,0.0,0.0,0.0
20100614144280,-0.7465607,8.781659,4.254439,0.0,0.0,0.0
20100616523291,-0.8039884,8.796016,4.2927237,0.0,0.0,0.0
20100618902249,-0.8422736,8.810373,4.3262234,0.0,0.0,0.0
20100621281259,-0.9092726,8.815159,4.3357944,0.0,0.0,0.0
20100623660270,-0.94755775,8.848659,4.3357944,0.0,0.0,0.0
20100626039280,-1.0241281,8.9108715,4.359723,0.0,0.0,0.0
20100628418291,-1.052842,8.9348,4.3932223,0.0,0.0,0.0
20100630797301,-1.0289137,8.968299,4.469793,0.0,0.0,0.0
20100633176311,-1.038485,8.939586,4.436293,0.0,0.0,0.0
20100635555322,-1.0432707,8.992228,4.3932223,0.0,0.0,0.0
20100637934332,-0.9762716,9.01137,4.354937,0.0,0.0,0.0
20100640313291,-1.0001999,9.016156,4.359723,0.0,0.0,0.0
20100642692301,-1.0336994,9.020942,4.3788652,0.0,0.0,0.0
20100645071311,-1.0289137,9.020942,4.402794,0.0,0.0,0.0
20100647450322,-1.0432707,9.040084,4.421936,0.0,0.0,0.0
20100649829332,-1.0719845,9.064013,4.3932223,0.0,0.0,0.0
20100652208343,-1.0863415,9.059227,4.3788652,0.0,0.0,0.0
20100654587353,-1.0767702,9.083155,4.3501515,0.0,0.0,0.0
20100656966364,-1.0289137,9.073584,4.3405805,0.0,0.0,0.0
20100659345322,-0.95712906,9.08794,4.331009,0.0,0.0,0.0
20100661724332,-0.8997013,9.078369,4.3118663,0.0,0.0,0.0
20100664103343,-0.8470592,9.059227,4.2927237,0.0,0.0,0.0
20100666482353,-0.81834537,9.006584,4.278367,0.0,0.0,0.0
20100668861364,-0.7800602,9.01137,4.2687955,0.0,0.0,0.0
20100671240374,-0.7896315,8.997013,4.2687955,0.0,0.0,0.0
20100673619384,-0.7800602,8.958728,4.249653,0.0,0.0,0.0
20100675998395,-0.7848458,8.953942,4.240082,0.0,0.0,0.0
20100678377353,-0.79920274,8.997013,4.26401,0.0,0.0,0.0
20100680756364,-0.79920274,9.001799,4.2831526,0.0,0.0,0.0
20100683135374,-0.8135597,8.987442,4.287938,0.0,0.0,0.0
20100685514384,-0.79920274,9.01137,4.3118663,0.0,0.0,0.0
20100687893395,-0.7704889,9.020942,4.321438,0.0,0.0,0.0
20100690272405,-0.72263247,8.987442,4.321438,0.0,0.0,0.0
20100692651416,-0.67477596,8.992228,4.3262234,0.0,0.0,0.0
20100695030374,-0.63170516,8.9348,4.331009,0.0,0.0,0.0
20100697409384,-0.5599205,8.944371,4.359723,0.0,0.0,0.0
20100699788395,-0.4642076,8.944371,4.369294,0.0,0.0,0.0
20100702167405,-0.41156548,8.9108715,4.3836513,0.0,0.0,0.0
20100704546416,-0.32063824,8.886943,4.402794,0.0,0.0,0.0
20100706925426,-0.24885355,8.867801,4.4075794,0.0,0.0,0.0
20100709304436,-0.19142582,8.85823,4.4075794,0.0,0.0,0.0
20100711683447,-0.11485548,8.85823,4.412365,0.0,0.0,0.0
20100714062405,-0.06699903,8.839087,4.421936,0.0,0.0,0.0
20100716441416,-0.014356935,8.834301,4.4171505,0.0,0.0,0.0
20100718820426,-0.0047856453,8.829515,4.4075794,0.0,0.0,0.0
20100721199436,-0.0047856453,8.800801,4.412365,0.0,0.0,0.0
20100723578447,-0.0047856453,8.800801,4.4171505,0.0,0.0,0.0
20100725957457,-0.038285162,8.79123,4.412365,0.0,0.0,0.0
20100728336468,-0.06699903,8.79123,4.412365,0.0,0.0,0.0
20100730715478,-0.11964113,8.776874,4.4171505,0.0,0.0,0.0
20100733094489,-0.18664017,8.772088,4.4075794,0.0,0.0,0.0
20100735473447,-0.24885355,8.800801,4.412365,0.0,0.0,0.0
20100737852457,-0.34456646,8.843872,4.426722,0.0,0.0,0.0
20100740231468,-0.4354937,8.853444,4.412365,0.0,0.0,0.0
20100742610478,-0.4977071,8.886943,4.4171505,0.0,0.0,0.0
20100744989489,-0.55034924,8.886943,4.421936,0.0,0.0,0.0
20100747368499,-0.6221339,8.915657,4.421936,0.0,0.0,0.0
20100749747509,-0.6939186,8.944371,4.4315076,0.0,0.0,0.0
20100752126468,-0.75613195,8.963513,4.402794,0.0,0.0,0.0
20100754505478,-0.8039884,8.973084,4.388437,0.0,0.0,0.0
20100756884489,-0.8470592,9.006584,4.398008,0.0,0.0,0.0
20100759263499,-0.8997013,8.953942,4.412365,0.0,0.0,0.0
20100761642509,-0.9284152,8.963513,4.412365,0.0,0.0,0.0
20100764021520,-0.94755775,8.963513,4.412365,0.0,0.0,0.0
20100766400530,-0.95712906,8.9348,4.4075794,0.0,0.0,0.0
20100768779541,-0.98584294,8.939586,4.426722,0.0,0.0,0.0
20100771158551,-0.9906286,8.925228,4.421936,0.0,0.0,0.0
20100773537509,-0.9954142,8.920443,4.398008,0.0,0.0,0.0
20100775916520,-1.0097711,8.939586,4.4075794,0.0,0.0,0.0
20100778295530,-1.0097711,8.939586,4.4171505,0.0,0.0,0.0
20100780674541,-1.0289137,8.9826565,4.388437,0.0,0.0,0.0
20100783053551,-1.052842,9.001799,4.388437,0.0,0.0,0.0
20100785432561,-1.0576276,9.016156,4.354937,0.0,0.0,0.0
20100787811520,-1.0289137,9.040084,4.3405805,0.0,0.0,0.0
20100790190582,-1.0145568,9.064013,4.321438,0.0,0.0,0.0
20100792569541,-0.971486,9.049655,4.287938,0.0,0.0,0.0
20100794948551,-0.9236295,9.0544405,4.273581,0.0,0.0,0.0
20100797327561,-0.91884387,9.068798,4.278367,0.0,0.0,0.0
20100799706572,-0.8757731,9.068798,4.2831526,0.0,0.0,0.0
20100802085582,-0.8327023,9.073584,4.26401,0.0,0.0,0.0
20100804464593,-0.7704889,9.059227,4.26401,0.0,0.0,0.0
20100806843603,-0.7178468,9.044869,4.273581,0.0,0.0,0.0
20100809222561,-0.6795616,8.992228,4.278367,0.0,0.0,0.0
20100811601572,-0.65084773,8.968299,4.2687955,0.0,0.0,0.0
20100813980530,-0.63170516,8.963513,4.254439,0.0,0.0,0.0
20100816359593,-0.6221339,8.9348,4.2592244,0.0,0.0,0.0
20100818738603,-0.57906306,8.891729,4.273581,0.0,0.0,0.0
20100821117614,-0.5599205,8.886943,4.273581,0.0,0.0,0.0
20100823496624,-0.53599226,8.872586,4.273581,0.0,0.0,0.0
20100825875634,-0.526421,8.863015,4.2687955,0.0,0.0,0.0
20100828254593,-0.51206404,8.819944,4.2592244,0.0,0.0,0.0
20100830633551,-0.5072784,8.79123,4.249653,0.0,0.0,0.0
20100833012614,-0.5312066,8.819944,4.2257247,0.0,0.0,0.0
20100835391624,-0.5455636,8.800801,4.2161536,0.0,0.0,0.0
20100837770634,-0.5455636,8.79123,4.182654,0.0,0.0,0.0
20100840149645,-0.56470615,8.781659,4.2017965,0.0,0.0,0.0
20100842528655,-0.55034924,8.7577305,4.240082,0.0,0.0,0.0
20100844907666,-0.55513483,8.743374,4.249653,0.0,0.0,0.0
20100847286624,-0.5599205,8.709874,4.2448673,0.0,0.0,0.0
20100849665634,-0.55513483,8.695518,4.240082,0.0,0.0,0.0
20100852044645,-0.5599205,8.652447,4.2592244,0.0,0.0,0.0
20100854423655,-0.57906306,8.623733,4.2687955,0.0,0.0,0.0
20100856802666,-0.5694918,8.60459,4.2927237,0.0,0.0,0.0
20100859181676,-0.5694918,8.60459,4.316652,0.0,0.0,0.0
20100861560686,-0.5599205,8.595019,4.3070807,0.0,0.0,0.0
20100863939697,-0.53599226,8.556734,4.321438,0.0,0.0,0.0
20100866318655,-0.52163535,8.599805,4.321438,0.0,0.0,0.0
20100868697666,-0.49292147,8.595019,4.331009,0.0,0.0,0.0
20100871076676,-0.45942193,8.599805,4.331009,0.0,0.0,0.0
20100873455686,-0.44027936,8.618947,4.331009,0.0,0.0,0.0
20100875834697,-0.41156548,8.647661,4.3118663,0.0,0.0,0.0
20100878213707,-0.35413775,8.666803,4.3070807,0.0,0.0,0.0
20100880592718,-0.33020952,8.700303,4.316652,0.0,0.0,0.0
20100882971728,-0.3062813,8.729017,4.3118663,0.0,0.0,0.0
20100885350686,-0.27756742,8.729017,4.316652,0.0,0.0,0.0
20100887729697,-0.2440679,8.772088,4.3118663,0.0,0.0,0.0
20100890108707,-0.23928227,8.800801,4.2975097,0.0,0.0,0.0
20100892487718,-0.2536392,8.800801,4.2975097,0.0,0.0,0.0
20100894866728,-0.24885355,8.762517,4.2975097,0.0,0.0,0.0
20100897245739,-0.26799613,8.786445,4.2831526,0.0,0.0,0.0
20100899624749,-0.27756742,8.819944,4.2927237,0.0,0.0,0.0
20100902003707,-0.30149564,8.834301,4.287938,0.0,0.0,0.0
20100904382770,-0.31585258,8.805588,4.287938,0.0,0.0,0.0
20100906761728,-0.32542387,8.786445,4.2687955,0.0,0.0,0.0
20100909140739,-0.3684947,8.815159,4.240082,0.0,0.0,0.0
20100911519749,-0.38763726,8.819944,4.220939,0.0,0.0,0.0
20100913898759,-0.4211368,8.82473,4.23051,0.0,0.0,0.0
20100916277770,-0.44027936,8.810373,4.220939,0.0,0.0,0.0
20100918656780,-0.44985065,8.810373,4.211368,0.0,0.0,0.0
20100921035791,-0.49292147,8.839087,4.2257247,0.0,0.0,0.0
20100923414801,-0.5407779,8.82473,4.26401,0.0,0.0,0.0
20100925793759,-0.55034924,8.786445,4.2257247,0.0,0.0,0.0
20100928172770,-0.5455636,8.781659,4.2352962,0.0,0.0,0.0
20100930551780,-0.5599205,8.796016,4.220939,0.0,0.0,0.0
20100932930791,-0.5886344,8.800801,4.2257247,0.0,0.0,0.0
20100935309801,-0.6125626,8.79123,4.240082,0.0,0.0,0.0
20100937688811,-0.6364908,8.800801,4.240082,0.0,0.0,0.0
20100940067822,-0.65084773,8.79123,4.2352962,0.0,0.0,0.0
20100942446780,-0.65084773,8.796016,4.2448673,0.0,0.0,0.0
20100944825791,-0.67477596,8.815159,4.2352962,0.0,0.0,0.0
20100947204801,-0.71306115,8.800801,4.240082,0.0,0.0,0.0
20100949583811,-0.74177504,8.796016,4.23051,0.0,0.0,0.0
20100951962822,-0.7369894,8.810373,4.240082,0.0,0.0,0.0
20100954341780,-0.75613195,8.82473,4.254439,0.0,0.0,0.0
20100956720843,-0.7609176,8.829515,4.2831526,0.0,0.0,0.0
20100959099853,-0.7848458,8.867801,4.2975097,0.0,0.0,0.0
20100961478811,-0.8039884,8.85823,4.302295,0.0,0.0,0.0
20100963857822,-0.76570326,8.886943,4.2975097,0.0,0.0,0.0
20100966236832,-0.74177504,8.877372,4.321438,0.0,0.0,0.0
20100968615843,-0.72741807,8.891729,4.3357944,0.0,0.0,0.0
20100970994853,-0.6939186,8.896515,4.345366,0.0,0.0,0.0
20100973373864,-0.6652047,8.9013,4.354937,0.0,0.0,0.0
20100975752874,-0.6412765,8.906086,4.359723,0.0,0.0,0.0
20100978131832,-0.6364908,8.920443,4.3501515,0.0,0.0,0.0
20100980510895,-0.6364908,8.939586,4.359723,0.0,0.0,0.0
20100982889853,-0.6221339,8.968299,4.345366,0.0,0.0,0.0
20100985268864,-0.64606214,8.953942,4.3262234,0.0,0.0,0.0
20100987647874,-0.64606214,8.968299,4.331009,0.0,0.0,0.0
20100990026884,-0.66999036,8.968299,4.3262234,0.0,0.0,0.0
20100992405895,-0.6843473,8.958728,4.331009,0.0,0.0,0.0
20100994784905,-0.72263247,8.958728,4.321438,0.0,0.0,0.0
20100997163916,-0.7896315,8.920443,4.302295,0.0,0.0,0.0
20100999542926,-0.8327023,8.896515,4.2975097,0.0,0.0,0.0
20101001921884,-0.8709874,8.896515,4.3070807,0.0,0.0,0.0
20101004300895,-0.94277215,8.9013,4.2927237,0.0,0.0,0.0
20101006679905,-1.0001999,8.863015,4.2975097,0.0,0.0,0.0
20101009058916,-1.052842,8.853444,4.273581,0.0,0.0,0.0
20101011437926,-1.1102697,8.85823,4.2831526,0.0,0.0,0.0
20101013816936,-1.1294123,8.843872,4.2927237,0.0,0.0,0.0
20101016195947,-1.1533405,8.848659,4.2831526,0.0,0.0,0.0
20101018574957,-1.1533405,8.839087,4.2831526,0.0,0.0,0.0
20101020953916,-1.1581261,8.834301,4.278367,0.0,0.0,0.0
20101023332926,-1.119841,8.863015,4.26401,0.0,0.0,0.0
20101025711936,-1.119841,8.877372,4.26401,0.0,0.0,0.0
20101028090947,-1.0815558,8.877372,4.2687955,0.0,0.0,0.0
20101030469957,-1.0432707,8.882157,4.26401,0.0,0.0,0.0
20101032848968,-0.98584294,8.882157,4.26401,0.0,0.0,0.0
20101035227978,-0.94755775,8.896515,4.287938,0.0,0.0,0.0
20101037606989,-0.8853444,8.9013,4.287938,0.0,0.0,0.0
20101039985947,-0.85184485,8.896515,4.287938,0.0,0.0,0.0
20101042364957,-0.7848458,8.896515,4.302295,0.0,0.0,0.0
20101044743968,-0.72741807,8.9013,4.287938,0.0,0.0,0.0
20101047122978,-0.6795616,8.891729,4.2975097,0.0,0.0,0.0
20101049501989,-0.6412765,8.896515,4.287938,0.0,0.0,0.0
20101051880999,-0.60777694,8.891729,4.302295,0.0,0.0,0.0
20101054260009,-0.57906306,8.863015,4.321438,0.0,0.0,0.0
20101056639020,-0.55034924,8.85823,4.3262234,0.0,0.0,0.0
20101059017978,-0.53599226,8.85823,4.3262234,0.0,0.0,0.0
20101061396989,-0.5312066,8.867801,4.3501515,0.0,0.0,0.0
20101063775999,-0.55034924,8.853444,4.369294,0.0,0.0,0.0
20101066155009,-0.5599205,8.867801,4.359723,0.0,0.0,0.0
20101068534020,-0.59342,8.85823,4.3501515,0.0,0.0,0.0
20101070913030,-0.6221339,8.867801,4.345366,0.0,0.0,0.0
20101073291989,-0.63170516,8.843872,4.359723,0.0,0.0,0.0
20101075671051,-0.6843473,8.843872,4.369294,0.0,0.0,0.0
20101078050009,-0.7082755,8.834301,4.3740797,0.0,0.0,0.0
20101080429020,-0.6987042,8.819944,4.3645086,0.0,0.0,0.0
20101082808030,-0.72263247,8.810373,4.3501515,0.0,0.0,0.0
20101085187041,-0.71306115,8.819944,4.345366,0.0,0.0,0.0
20101087566051,-0.7322037,8.815159,4.3262234,0.0,0.0,0.0
20101089945061,-0.71306115,8.781659,4.3405805,0.0,0.0,0.0
20101092324072,-0.6843473,8.772088,4.345366,0.0,0.0,0.0
20101094703082,-0.67477596,8.762517,4.3357944,0.0,0.0,0.0
20101097082041,-0.6269195,8.743374,4.3262234,0.0,0.0,0.0
20101099461051,-0.5982057,8.743374,4.3118663,0.0,0.0,0.0
20101101840061,-0.5599205,8.7577305,4.2975097,0.0,0.0,0.0
20101104219072,-0.52163535,8.776874,4.2831526,0.0,0.0,0.0
20101106598082,-0.51206404,8.733803,4.26401,0.0,0.0,0.0
20101108977093,-0.47377887,8.743374,4.26401,0.0,0.0,0.0
20101111356103,-0.44985065,8.762517,4.2687955,0.0,0.0,0.0
20101113735114,-0.44506502,8.79123,4.2592244,0.0,0.0,0.0
20101116114124,-0.4354937,8.772088,4.2592244,0.0,0.0,0.0
20101118493082,-0.44027936,8.7673025,4.254439,0.0,0.0,0.0
20101120872093,-0.42592242,8.805588,4.2448673,0.0,0.0,0.0
20101123251103,-0.42592242,8.805588,4.2352962,0.0,0.0,0.0
20101125630114,-0.4642076,8.810373,4.23051,0.0,0.0,0.0
20101128009124,-0.4642076,8.82473,4.2161536,0.0,0.0,0.0
20101130388134,-0.49292147,8.839087,4.220939,0.0,0.0,0.0
20101132767145,-0.51206404,8.839087,4.249653,0.0,0.0,0.0
20101135146155,-0.5455636,8.82473,4.2831526,0.0,0.0,0.0
20101137525114,-0.57427746,8.848659,4.2975097,0.0,0.0,0.0
20101139904124,-0.5982057,8.872586,4.302295,0.0,0.0,0.0
20101142283134,-0.6221339,8.867801,4.316652,0.0,0.0,0.0
20101144662145,-0.6364908,8.9108715,4.3070807,0.0,0.0,0.0
20101147041155,-0.65084773,8.882157,4.3405805,0.0,0.0,0.0
20101149420166,-0.66041905,8.872586,4.3501515,0.0,0.0,0.0
20101151799176,-0.67477596,8.906086,4.3740797,0.0,0.0,0.0
20101154178186,-0.6412765,8.906086,4.398008,0.0,0.0,0.0
20101156557145,-0.6221339,8.906086,4.402794,0.0,0.0,0.0
20101158936155,-0.64606214,8.886943,4.4075794,0.0,0.0,0.0
20101161315166,-0.6652047,8.882157,4.421936,0.0,0.0,0.0
20101163694176,-0.6556334,8.877372,4.402794,0.0,0.0,0.0
20101166073186,-0.64606214,8.863015,4.388437,0.0,0.0,0.0
20101168452197,-0.65084773,8.843872,4.3932223,0.0,0.0,0.0
20101170831207,-0.67477596,8.839087,4.421936,0.0,0.0,0.0
20101173210218,-0.7178468,8.805588,4.426722,0.0,0.0,0.0
20101175589176,-0.72741807,8.805588,4.398008,0.0,0.0,0.0
20101177968186,-0.7082755,8.810373,4.4075794,0.0,0.0,0.0
20101180347197,-0.7322037,8.819944,4.3836513,0.0,0.0,0.0
20101182726207,-0.75613195,8.815159,4.369294,0.0,0.0,0.0
20101185105218,-0.7704889,8.829515,4.354937,0.0,0.0,0.0
20101187484228,-0.7752745,8.848659,4.3405805,0.0,0.0,0.0
20101189863239,-0.7752745,8.82473,4.3262234,0.0,0.0,0.0
20101192242249,-0.76570326,8.839087,4.3118663,0.0,0.0,0.0
20101194621259,-0.75613195,8.843872,4.3118663,0.0,0.0,0.0
20101197000218,-0.75613195,8.839087,4.3357944,0.0,0.0,0.0
20101199379228,-0.7369894,8.853444,4.3262234,0.0,0.0,0.0
20101201758239,-0.74177504,8.882157,4.321438,0.0,0.0,0.0
20101204137249,-0.6939186,8.867801,4.3262234,0.0,0.0,0.0
20101206516259,-0.66999036,8.872586,4.321438,0.0,0.0,0.0
20101208895270,-0.6412765,8.886943,4.316652,0.0,0.0,0.0
20101211274280,-0.60777694,8.886943,4.316652,0.0,0.0,0.0
20101213653239,-0.5982057,8.891729,4.3262234,0.0,0.0,0.0
20101216032249,-0.5599205,8.877372,4.3118663,0.0,0.0,0.0
20101218411259,-0.57427746,8.877372,4.331009,0.0,0.0,0.0
20101220790270,-0.55513483,8.896515,4.3357944,0.0,0.0,0.0
20101223169280,-0.5694918,8.896515,4.331009,0.0,0.0,0.0
20101225548291,-0.5455636,8.886943,4.359723,0.0,0.0,0.0
20101227927301,-0.5838487,8.891729,4.3645086,0.0,0.0,0.0
20101230306311,-0.6125626,8.886943,4.3740797,0.0,0.0,0.0
20101232685322,-0.66041905,8.920443,4.388437,0.0,0.0,0.0
20101235064280,-0.6556334,8.944371,4.3932223,0.0,0.0,0.0
20101237443291,-0.6987042,8.939586,4.3932223,0.0,0.0,0.0
20101239822301,-0.72263247,8.915657,4.3740797,0.0,0.0,0.0
20101242201311,-0.7752745,8.906086,4.359723,0.0,0.0,0.0
20101244580322,-0.79920274,8.925228,4.3836513,0.0,0.0,0.0
20101246959332,-0.83748794,8.9348,4.369294,0.0,0.0,0.0
20101249338343,-0.83748794,8.920443,4.3645086,0.0,0.0,0.0
20101251717353,-0.8470592,8.920443,4.3357944,0.0,0.0,0.0
20101254096311,-0.83748794,8.915657,4.3405805,0.0,0.0,0.0
20101256475322,-0.81834537,8.9013,4.331009,0.0,0.0,0.0
20101258854332,-0.81834537,8.886943,4.3405805,0.0,0.0,0.0
20101261233343,-0.7800602,8.853444,4.321438,0.0,0.0,0.0
20101263612353,-0.7609176,8.872586,4.302295,0.0,0.0,0.0
20101265991364,-0.72741807,8.848659,4.2927237,0.0,0.0,0.0
20101268370374,-0.6939186,8.839087,4.278367,0.0,0.0,0.0
20101270749384,-0.66999036,8.853444,4.287938,0.0,0.0,0.0
20101273128395,-0.64606214,8.834301,4.2687955,0.0,0.0,0.0
20101275507353,-0.6125626,8.839087,4.2592244,0.0,0.0,0.0
20101277886364,-0.5886344,8.834301,4.254439,0.0,0.0,0.0
20101280265374,-0.5407779,8.796016,4.2687955,0.0,0.0,0.0
20101282644384,-0.51206404,8.800801,4.26401,0.0,0.0,0.0
20101285023395,-0.52163535,8.781659,4.2687955,0.0,0.0,0.0
20101287402405,-0.5407779,8.810373,4.2687955,0.0,0.0,0.0
20101289781416,-0.55513483,8.819944,4.26401,0.0,0.0,0.0
20101292160374,-0.56470615,8.834301,4.278367,0.0,0.0,0.0
20101294539384,-0.57427746,8.800801,4.273581,0.0,0.0,0.0
20101296918395,-0.6125626,8.819944,4.278367,0.0,0.0,0.0
20101299297405,-0.63170516,8.839087,4.278367,0.0,0.0,0.0
20101301676364,-0.66999036,8.829515,4.2687955,0.0,0.0,0.0
20101304055426,-0.6939186,8.848659,4.278367,0.0,0.0,0.0
20101306434436,-0.7513463,8.85823,4.287938,0.0,0.0,0.0
20101308813447,-0.76570326,8.85823,4.2927237,0.0,0.0,0.0
20101311192457,-0.7896315,8.863015,4.2975097,0.0,0.0,0.0
20101313571416,-0.7896315,8.867801,4.3070807,0.0,0.0,0.0
20101315950426,-0.7848458,8.85823,4.316652,0.0,0.0,0.0
20101318329436,-0.7704889,8.848659,4.331009,0.0,0.0,0.0
20101320708447,-0.7896315,8.82473,4.3262234,0.0,0.0,0.0
20101323087457,-0.7896315,8.834301,4.3070807,0.0,0.0,0.0
20101325466468,-0.7752745,8.853444,4.3357944,0.0,0.0,0.0
20101327845478,-0.75613195,8.848659,4.354937,0.0,0.0,0.0
20101330224489,-0.75613195,8.853444,4.3645086,0.0,0.0,0.0
20101332603499,-0.7082755,8.843872,4.3740797,0.0,0.0,0.0
20101334982457,-0.71306115,8.839087,4.3788652,0.0,0.0,0.0
20101337361468,-0.70348984,8.834301,4.369294,0.0,0.0,0.0
20101339740478,-0.6939186,8.834301,4.388437,0.0,0.0,0.0
20101342119489,-0.6891329,8.829515,4.3932223,0.0,0.0,0.0
20101344498499,-0.66999036,8.805588,4.369294,0.0,0.0,0.0
20101346877509,-0.66999036,8.819944,4.3836513,0.0,0.0,0.0
20101349256520,-0.66999036,8.815159,4.369294,0.0,0.0,0.0
20101351635530,-0.6843473,8.805588,4.354937,0.0,0.0,0.0
20101354014541,-0.6891329,8.82473,4.3501515,0.0,0.0,0.0
20101356393499,-0.66999036,8.82473,4.3357944,0.0,0.0,0.0
20101358772509,-0.67477596,8.82473,4.3262234,0.0,0.0,0.0
20101361151520,-0.6843473,8.800801,4.3405805,0.0,0.0,0.0
20101363530530,-0.67477596,8.810373,4.3262234,0.0,0.0,0.0
20101365909541,-0.67477596,8.819944,4.331009,0.0,0.0,0.0
20101368288551,-0.63170516,8.776874,4.302295,0.0,0.0,0.0
20101370667561,-0.6364908,8.796016,4.278367,0.0,0.0,0.0
20101373046520,-0.60777694,8.800801,4.2831526,0.0,0.0,0.0
20101375425530,-0.5838487,8.829515,4.2927237,0.0,0.0,0.0
20101377804541,-0.57906306,8.839087,4.2831526,0.0,0.0,0.0
20101380183551,-0.5455636,8.85823,4.26401,0.0,0.0,0.0
20101382562561,-0.5312066,8.872586,4.2592244,0.0,0.0,0.0
20101384941572,-0.52163535,8.867801,4.2592244,0.0,0.0,0.0
20101387320582,-0.49292147,8.877372,4.254439,0.0,0.0,0.0
20101389699593,-0.4881358,8.863015,4.2352962,0.0,0.0,0.0
20101392078603,-0.4977071,8.843872,4.23051,0.0,0.0,0.0
20101394457561,-0.4977071,8.848659,4.2161536,0.0,0.0,0.0
20101396836572,-0.526421,8.872586,4.220939,0.0,0.0,0.0
20101399215582,-0.5455636,8.85823,4.254439,0.0,0.0,0.0
20101401594593,-0.5838487,8.853444,4.23051,0.0,0.0,0.0
20101403973603,-0.5982057,8.867801,4.2161536,0.0,0.0,0.0
20101406352614,-0.65084773,8.872586,4.2352962,0.0,0.0,0.0
20101408731624,-0.6795616,8.877372,4.2448673,0.0,0.0,0.0
20101411110582,-0.70348984,8.863015,4.2592244,0.0,0.0,0.0
20101413489593,-0.7465607,8.843872,4.278367,0.0,0.0,0.0
20101415868603,-0.7465607,8.85823,4.3118663,0.0,0.0,0.0
20101418247614,-0.7609176,8.872586,4.331009,0.0,0.0,0.0
20101420626624,-0.7704889,8.853444,4.3740797,0.0,0.0,0.0
20101423005634,-0.7848458,8.853444,4.4075794,0.0,0.0,0.0
20101425384645,-0.76570326,8.882157,4.398008,0.0,0.0,0.0
20101427763655,-0.7369894,8.886943,4.3788652,0.0,0.0,0.0
20101430142666,-0.6843473,8.877372,4.402794,0.0,0.0,0.0
20101432521624,-0.65084773,8.896515,4.4171505,0.0,0.0,0.0
20101434900634,-0.6029913,8.9013,4.426722,0.0,0.0,0.0
20101437279645,-0.5455636,8.882157,4.4315076,0.0,0.0,0.0
20101439658655,-0.4977071,8.9013,4.412365,0.0,0.0,0.0
20101442037666,-0.44985065,8.896515,4.398008,0.0,0.0,0.0
20101444416676,-0.4019942,8.925228,4.398008,0.0,0.0,0.0
20101446795686,-0.37806597,8.915657,4.3740797,0.0,0.0,0.0
20101449174697,-0.33499518,8.920443,4.354937,0.0,0.0,0.0
20101451553707,-0.32063824,8.930014,4.354937,0.0,0.0,0.0
20101453932666,-0.31106696,8.944371,4.345366,0.0,0.0,0.0
20101456311676,-0.31106696,8.9013,4.3262234,0.0,0.0,0.0
20101458690686,-0.3397808,8.9013,4.316652,0.0,0.0,0.0
20101461069697,-0.3684947,8.939586,4.3118663,0.0,0.0,0.0
20101463448707,-0.4019942,8.939586,4.302295,0.0,0.0,0.0
20101465827718,-0.4354937,8.939586,4.3070807,0.0,0.0,0.0
20101468206728,-0.4881358,8.939586,4.3070807,0.0,0.0,0.0
20101470585739,-0.5407779,8.930014,4.302295,0.0,0.0,0.0
20101472964697,-0.57427746,8.944371,4.316652,0.0,0.0,0.0
20101475343707,-0.61734825,8.953942,4.316652,0.0,0.0,0.0
20101477722718,-0.64606214,8.944371,4.3262234,0.0,0.0,0.0
20101480101728,-0.64606214,8.953942,4.3262234,0.0,0.0,0.0
20101482480739,-0.6221339,8.930014,4.316652,0.0,0.0,0.0
20101484859749,-0.60777694,8.944371,4.302295,0.0,0.0,0.0
20101487238759,-0.5838487,8.9348,4.316652,0.0,0.0,0.0
20101489617770,-0.5455636,8.906086,4.3070807,0.0,0.0,0.0
20101491996780,-0.51206404,8.9108715,4.3118663,0.0,0.0,0.0
20101494375739,-0.45942193,8.9013,4.302295,0.0,0.0,0.0
20101496754749,-0.41635114,8.886943,4.287938,0.0,0.0,0.0
20101499133759,-0.37328035,8.886943,4.302295,0.0,0.0,0.0
20101501512770,-0.33499518,8.872586,4.287938,0.0,0.0,0.0
20101503891728,-0.3062813,8.85823,4.278367,0.0,0.0,0.0
20101506270791,-0.27756742,8.848659,4.2592244,0.0,0.0,0.0
20101508649801,-0.27756742,8.843872,4.254439,0.0,0.0,0.0
20101511028811,-0.25842485,8.839087,4.2448673,0.0,0.0,0.0
20101513407822,-0.28235307,8.843872,4.254439,0.0,0.0,0.0
20101515786780,-0.29192436,8.834301,4.278367,0.0,0.0,0.0
20101518165791,-0.31585258,8.843872,4.26401,0.0,0.0,0.0
20101520544801,-0.36370903,8.819944,4.2687955,0.0,0.0,0.0
20101522923811,-0.42592242,8.82473,4.2831526,0.0,0.0,0.0
20101525302822,-0.46899325,8.829515,4.26401,0.0,0.0,0.0
20101527681832,-0.52163535,8.848659,4.278367,0.0,0.0,0.0
20101530060843,-0.57427746,8.848659,4.2687955,0.0,0.0,0.0
20101532439853,-0.5838487,8.839087,4.2592244,0.0,0.0,0.0
20101534818811,-0.6125626,8.853444,4.278367,0.0,0.0,0.0
20101537197822,-0.61734825,8.872586,4.2687955,0.0,0.0,0.0
20101539576832,-0.6221339,8.867801,4.287938,0.0,0.0,0.0
20101541955843,-0.6029913,8.877372,4.2927237,0.0,0.0,0.0
20101544334853,-0.56470615,8.886943,4.2927237,0.0,0.0,0.0
20101546713811,-0.53599226,8.872586,4.2927237,0.0,0.0,0.0
20101549092874,-0.51206404,8.867801,4.2831526,0.0,0.0,0.0
20101551471884,-0.49292147,8.877372,4.2831526,0.0,0.0,0.0
20101553850843,-0.4642076,8.882157,4.302295,0.0,0.0,0.0
20101556229853,-0.43070808,8.882157,4.3070807,0.0,0.0,0.0
20101558608864,-0.4211368,8.877372,4.2975097,0.0,0.0,0.0
20101560987874,-0.38763726,8.882157,4.2975097,0.0,0.0,0.0
20101563366884,-0.3684947,8.877372,4.273581,0.0,0.0,0.0
20101565745895,-0.36370903,8.863015,4.278367,0.0,0.0,0.0
20101568124905,-0.4019942,8.85823,4.26401,0.0,0.0,0.0
20101570503916,-0.41635114,8.843872,4.26401,0.0,0.0,0.0
20101572882926,-0.42592242,8.85823,4.273581,0.0,0.0,0.0
20101575261936,-0.4642076,8.85823,4.26401,0.0,0.0,0.0
20101577640895,-0.4881358,8.85823,4.2448673,0.0,0.0,0.0
20101580019905,-0.526421,8.839087,4.249653,0.0,0.0,0.0
20101582398916,-0.55034924,8.829515,4.278367,0.0,0.0,0.0
20101584777926,-0.5838487,8.82473,4.2831526,0.0,0.0,0.0
20101587156936,-0.5982057,8.834301,4.287938,0.0,0.0,0.0
20101589535947,-0.6029913,8.815159,4.26401,0.0,0.0,0.0
20101591914957,-0.6221339,8.800801,4.2687955,0.0,0.0,0.0
20101594293916,-0.6125626,8.819944,4.278367,0.0,0.0,0.0
20101596672926,-0.5886344,8.819944,4.287938,0.0,0.0,0.0
20101599051936,-0.55513483,8.829515,4.273581,0.0,0.0,0.0
20101601430947,-0.55513483,8.815159,4.2831526,0.0,0.0,0.0
20101603809957,-0.52163535,8.839087,4.287938,0.0,0.0,0.0
20101606188968,-0.526421,8.848659,4.2975097,0.0,0.0,0.0
20101608567978,-0.47377887,8.839087,4.278367,0.0,0.0,0.0
20101610946989,-0.4642076,8.834301,4.278367,0.0,0.0,0.0
20101613325947,-0.4546363,8.848659,4.278367,0.0,0.0,0.0
20101615705009,-0.42592242,8.863015,4.287938,0.0,0.0,0.0
20101618084072,-0.41635114,8.839087,4.287938,0.0,0.0,0.0
20101620462926,-0.42592242,8.839087,4.302295,0.0,0.0,0.0
20101622841989,-0.4546363,8.82473,4.2975097,0.0,0.0,0.0
20101625220999,-0.46899325,8.843872,4.316652,0.0,0.0,0.0
20101627600009,-0.49292147,8.848659,4.3405805,0.0,0.0,0.0
20101629979020,-0.51206404,8.848659,4.331009,0.0,0.0,0.0
20101632358030,-0.53599226,8.863015,4.3262234,0.0,0.0,0.0
20101634737041,-0.55034924,8.867801,4.3405805,0.0,0.0,0.0
20101637115999,-0.5694918,8.877372,4.3501515,0.0,0.0,0.0
20101639495009,-0.5838487,8.872586,4.369294,0.0,0.0,0.0
20101641874020,-0.6029913,8.886943,4.369294,0.0,0.0,0.0
20101644253030,-0.60777694,8.886943,4.369294,0.0,0.0,0.0
20101646632041,-0.61734825,8.882157,4.3740797,0.0,0.0,0.0
20101649011051,-0.61734825,8.872586,4.359723,0.0,0.0,0.0
20101651390061,-0.59342,8.872586,4.359723,0.0,0.0,0.0
20101653769072,-0.57427746,8.867801,4.3645086,0.0,0.0,0.0
20101656148030,-0.57427746,8.85823,4.369294,0.0,0.0,0.0
20101658527093,-0.5407779,8.853444,4.3836513,0.0,0.0,0.0
20101660906051,-0.51206404,8.867801,4.3932223,0.0,0.0,0.0
20101663285061,-0.47377887,8.867801,4.3932223,0.0,0.0,0.0
20101665664072,-0.4354937,8.853444,4.398008,0.0,0.0,0.0
20101668043082,-0.4019942,8.85823,4.3932223,0.0,0.0,0.0
20101670422093,-0.3589234,8.85823,4.398008,0.0,0.0,0.0
20101672801103,-0.33499518,8.882157,4.369294,0.0,0.0,0.0
20101675180114,-0.32542387,8.886943,4.359723,0.0,0.0,0.0
20101677559072,-0.31106696,8.872586,4.354937,0.0,0.0,0.0
20101679938082,-0.30149564,8.867801,4.3501515,0.0,0.0,0.0
20101682317093,-0.29671,8.877372,4.3501515,0.0,0.0,0.0
20101684696103,-0.30149564,8.886943,4.321438,0.0,0.0,0.0
20101687075114,-0.33020952,8.882157,4.331009,0.0,0.0,0.0
20101689454124,-0.34456646,8.886943,4.3262234,0.0,0.0,0.0
20101691833134,-0.38763726,8.882157,4.3262234,0.0,0.0,0.0
20101694212145,-0.39720857,8.891729,4.3118663,0.0,0.0,0.0
20101696591155,-0.44506502,8.886943,4.3070807,0.0,0.0,0.0
20101698970114,-0.45942193,8.877372,4.321438,0.0,0.0,0.0
20101701349072,-0.49292147,8.886943,4.3070807,0.0,0.0,0.0
20101703728134,-0.5168497,8.886943,4.331009,0.0,0.0,0.0
20101706107145,-0.51206404,8.891729,4.3405805,0.0,0.0,0.0
20101708486103,-0.5407779,8.882157,4.354937,0.0,0.0,0.0
20101710865166,-0.5455636,8.891729,4.354937,0.0,0.0,0.0
20101713244176,-0.55513483,8.891729,4.345366,0.0,0.0,0.0
20101715623186,-0.5407779,8.882157,4.359723,0.0,0.0,0.0
20101718002145,-0.52163535,8.867801,4.345366,0.0,0.0,0.0
20101720381155,-0.4977071,8.886943,4.3501515,0.0,0.0,0.0
20101722760166,-0.5072784,8.872586,4.354937,0.0,0.0,0.0
20101725139176,-0.46899325,8.867801,4.3405805,0.0,0.0,0.0
20101727518186,-0.43070808,8.853444,4.3357944,0.0,0.0,0.0
20101729897197,-0.4211368,8.843872,4.3357944,0.0,0.0,0.0
20101732276207,-0.38763726,8.853444,4.321438,0.0,0.0,0.0
20101734655218,-0.34456646,8.829515,4.3262234,0.0,0.0,0.0
20101737034228,-0.3493521,8.82473,4.316652,0.0,0.0,0.0
20101739413239,-0.34456646,8.810373,4.3262234,0.0,0.0,0.0
20101741792145,-0.33020952,8.805588,4.321438,0.0,0.0,0.0
20101744171207,-0.32063824,8.800801,4.302295,0.0,0.0,0.0
20101746550218,-0.31585258,8.810373,4.302295,0.0,0.0,0.0
20101748929176,-0.3062813,8.796016,4.2975097,0.0,0.0,0.0
20101751308239,-0.32063824,8.810373,4.2975097,0.0,0.0,0.0
20101753687249,-0.31585258,8.810373,4.273581,0.0,0.0,0.0
20101756066259,-0.32063824,8.805588,4.2831526,0.0,0.0,0.0
20101758445270,-0.32542387,8.819944,4.2831526,0.0,0.0,0.0
20101760824228,-0.32542387,8.829515,4.287938,0.0,0.0,0.0
20101763203239,-0.32542387,8.82473,4.273581,0.0,0.0,0.0
20101765582249,-0.31106696,8.848659,4.249653,0.0,0.0,0.0
20101767961259,-0.29671,8.848659,4.2448673,0.0,0.0,0.0
20101770340270,-0.28235307,8.891729,4.2592244,0.0,0.0,0.0
20101772719280,-0.25842485,8.877372,4.2687955,0.0,0.0,0.0
20101775098291,-0.24885355,8.886943,4.278367,0.0,0.0,0.0
20101777477301,-0.25842485,8.882157,4.287938,0.0,0.0,0.0
20101779856311,-0.2536392,8.891729,4.3118663,0.0,0.0,0.0
20101782235270,-0.22971097,8.863015,4.321438,0.0,0.0,0.0
20101784614280,-0.23928227,8.877372,4.331009,0.0,0.0,0.0
20101786993291,-0.24885355,8.877372,4.3501515,0.0,0.0,0.0
20101789372249,-0.25842485,8.886943,4.369294,0.0,0.0,0.0
20101791751311,-0.27756742,8.882157,4.3932223,0.0,0.0,0.0
20101794130322,-0.30149564,8.891729,4.3932223,0.0,0.0,0.0
20101796509332,-0.32063824,8.896515,4.3836513,0.0,0.0,0.0
20101798888343,-0.32063824,8.9108715,4.3740797,0.0,0.0,0.0
20101801267353,-0.35413775,8.906086,4.3645086,0.0,0.0,0.0
20101803646311,-0.35413775,8.886943,4.3645086,0.0,0.0,0.0
20101806025322,-0.38763726,8.896515,4.369294,0.0,0.0,0.0
20101808404332,-0.40677986,8.9013,4.359723,0.0,0.0,0.0
20101810783343,-0.4019942,8.877372,4.354937,0.0,0.0,0.0
20101813162353,-0.39720857,8.867801,4.369294,0.0,0.0,0.0
20101815541364,-0.41156548,8.863015,4.354937,0.0,0.0,0.0
20101817920374,-0.41635114,8.863015,4.3357944,0.0,0.0,0.0
20101820299384,-0.3924229,8.867801,4.3357944,0.0,0.0,0.0
20101822678291,-0.38285163,8.877372,4.3357944,0.0,0.0,0.0
20101825057353,-0.37328035,8.886943,4.345366,0.0,0.0,0.0
20101827436364,-0.3684947,8.882157,4.359723,0.0,0.0,0.0
20101829815374,-0.33499518,8.886943,4.369294,0.0,0.0,0.0
20101832194384,-0.3062813,8.867801,4.3645086,0.0,0.0,0.0
20101834573395,-0.3062813,8.85823,4.3357944,0.0,0.0,0.0
20101836952405,-0.28235307,8.848659,4.3357944,0.0,0.0,0.0
20101839331416,-0.2536392,8.872586,4.3405805,0.0,0.0,0.0
20101841710426,-0.24885355,8.877372,4.3645086,0.0,0.0,0.0
20101844089436,-0.2440679,8.863015,4.345366,0.0,0.0,0.0
20101846468395,-0.23928227,8.877372,4.3501515,0.0,0.0,0.0
20101848847405,-0.2536392,8.867801,4.3501515,0.0,0.0,0.0
20101851226416,-0.2536392,8.853444,4.331009,0.0,0.0,0.0
20101853605426,-0.28713873,8.848659,4.3118663,0.0,0.0,0.0
20101855984436,-0.30149564,8.82473,4.3070807,0.0,0.0,0.0
20101858363447,-0.33499518,8.819944,4.3118663,0.0,0.0,0.0
20101860742457,-0.3493521,8.848659,4.3118663,0.0,0.0,0.0
20101863121468,-0.3684947,8.843872,4.3262234,0.0,0.0,0.0
20101865500374,-0.38763726,8.839087,4.321438,0.0,0.0,0.0
20101867879436,-0.39720857,8.819944,4.3262234,0.0,0.0,0.0
20101870258447,-0.44027936,8.819944,4.3118663,0.0,0.0,0.0
20101872637457,-0.46899325,8.819944,4.278367,0.0,0.0,0.0
20101875016468,-0.4833502,8.819944,4.2687955,0.0,0.0,0.0
20101877395478,-0.49292147,8.819944,4.273581,0.0,0.0,0.0
20101879774489,-0.5024927,8.834301,4.2687955,0.0,0.0,0.0
20101882153499,-0.5024927,8.834301,4.26401,0.0,0.0,0.0
20101884532509,-0.52163535,8.82473,4.249653,0.0,0.0,0.0
20101886911468,-0.51206404,8.800801,4.2352962,0.0,0.0,0.0
20101889290478,-0.5168497,8.805588,4.220939,0.0,0.0,0.0
20101891669489,-0.4833502,8.815159,4.23051,0.0,0.0,0.0
20101894048499,-0.49292147,8.839087,4.2257247,0.0,0.0,0.0
20101896427457,-0.47377887,8.848659,4.2257247,0.0,0.0,0.0
20101898806520,-0.44506502,8.867801,4.2352962,0.0,0.0,0.0
20101901185530,-0.42592242,8.877372,4.254439,0.0,0.0,0.0
20101903564541,-0.40677986,8.877372,4.26401,0.0,0.0,0.0
20101905943551,-0.39720857,8.891729,4.254439,0.0,0.0,0.0
20101908322509,-0.3684947,8.896515,4.26401,0.0,0.0,0.0
20101910701520,-0.33499518,8.9108715,4.273581,0.0,0.0,0.0
20101913080530,-0.34456646,8.930014,4.2927237,0.0,0.0,0.0
20101915459541,-0.31585258,8.930014,4.2927237,0.0,0.0,0.0
20101917838551,-0.3062813,8.9348,4.278367,0.0,0.0,0.0
20101920217561,-0.29192436,8.9348,4.273581,0.0,0.0,0.0
20101922596572,-0.29192436,8.9108715,4.2687955,0.0,0.0,0.0
20101924975582,-0.29671,8.915657,4.287938,0.0,0.0,0.0
20101927354593,-0.28235307,8.925228,4.3070807,0.0,0.0,0.0
20101929733551,-0.29671,8.915657,4.2975097,0.0,0.0,0.0
20101932112561,-0.29671,8.920443,4.3070807,0.0,0.0,0.0
20101934491572,-0.28713873,8.9013,4.321438,0.0,0.0,0.0
20101936870582,-0.29192436,8.925228,4.316652,0.0,0.0,0.0
20101939249593,-0.3062813,8.915657,4.316652,0.0,0.0,0.0
20101941628603,-0.3062813,8.9108715,4.3262234,0.0,0.0,0.0
20101944007614,-0.33499518,8.896515,4.316652,0.0,0.0,0.0
20101946386624,-0.31106696,8.925228,4.316652,0.0,0.0,0.0
20101948765634,-0.29192436,8.915657,4.321438,0.0,0.0,0.0
20101951144593,-0.30149564,8.939586,4.3118663,0.0,0.0,0.0
20101953523603,-0.32063824,8.9108715,4.2831526,0.0,0.0,0.0
20101955902614,-0.30149564,8.915657,4.2927237,0.0,0.0,0.0
20101958281624,-0.30149564,8.877372,4.3118663,0.0,0.0,0.0
20101960660634,-0.29671,8.863015,4.321438,0.0,0.0,0.0
20101963039645,-0.27756742,8.872586,4.3262234,0.0,0.0,0.0
20101965418655,-0.28713873,8.886943,4.331009,0.0,0.0,0.0
20101967797666,-0.30149564,8.915657,4.345366,0.0,0.0,0.0
20101970176676,-0.32063824,8.920443,4.3501515,0.0,0.0,0.0
20101972555634,-0.34456646,8.896515,4.3357944,0.0,0.0,0.0
20101974934645,-0.35413775,8.906086,4.3357944,0.0,0.0,0.0
20101977313603,-0.34456646,8.891729,4.3405805,0.0,0.0,0.0
20101979692666,-0.37806597,8.9013,4.321438,0.0,0.0,0.0
20101982071676,-0.4019942,8.896515,4.3357944,0.0,0.0,0.0
20101984450686,-0.44027936,8.886943,4.3262234,0.0,0.0,0.0
20101986829697,-0.45942193,8.886943,4.345366,0.0,0.0,0.0
20101989208707,-0.49292147,8.877372,4.3501515,0.0,0.0,0.0
20101991587718,-0.52163535,8.886943,4.359723,0.0,0.0,0.0
20101993966676,-0.55034924,8.872586,4.3501515,0.0,0.0,0.0
20101996345686,-0.5838487,8.867801,4.3405805,0.0,0.0,0.0
20101998724697,-0.5694918,8.863015,4.331009,0.0,0.0,0.0
20102001103707,-0.5982057,8.843872,4.345366,0.0,0.0,0.0
20102003482718,-0.61734825,8.863015,4.345366,0.0,0.0,0.0
20102005861728,-0.6125626,8.872586,4.345366,0.0,0.0,0.0
20102008240739,-0.5982057,8.863015,4.369294,0.0,0.0,0.0
20102010619749,-0.5982057,8.886943,4.3645086,0.0,0.0,0.0
20102012998707,-0.56470615,8.867801,4.3357944,0.0,0.0,0.0
20102015377718,-0.51206404,8.872586,4.3070807,0.0,0.0,0.0
20102017756728,-0.47856453,8.882157,4.2831526,0.0,0.0,0.0
20102020135739,-0.4354937,8.891729,4.2687955,0.0,0.0,0.0
20102022514749,-0.3684947,8.896515,4.26401,0.0,0.0,0.0
20102024893759,-0.33020952,8.886943,4.287938,0.0,0.0,0.0
20102027272718,-0.31106696,8.867801,4.278367,0.0,0.0,0.0
20102029651780,-0.28713873,8.886943,4.2687955,0.0,0.0,0.0
20102032030791,-0.22971097,8.906086,4.249653,0.0,0.0,0.0
20102034409801,-0.19142582,8.886943,4.220939,0.0,0.0,0.0
20102036788759,-0.15314065,8.9108715,4.197011,0.0,0.0,0.0
20102039167770,-0.11964113,8.953942,4.173083,0.0,0.0,0.0
20102041546780,-0.043070808,8.949157,4.168297,0.0,0.0,0.0
20102043925791,0.0,8.9348,4.1491547,0.0,0.0,0.0
20102046304801,0.047856454,8.9348,4.1491547,0.0,0.0,0.0
20102048683811,0.0526421,8.9348,4.1347976,0.0,0.0,0.0
20102051062822,0.08135597,8.949157,4.1204405,0.0,0.0,0.0
20102053441832,0.13399807,8.925228,4.1204405,0.0,0.0,0.0
20102055820843,0.17228323,8.920443,4.125226,0.0,0.0,0.0
20102058199801,0.15314065,8.920443,4.1443686,0.0,0.0,0.0
20102060578811,0.16271193,8.896515,4.1778684,0.0,0.0,0.0
20102062957822,0.19142582,8.872586,4.211368,0.0,0.0,0.0
20102065336832,0.2009971,8.906086,4.23051,0.0,0.0,0.0
20102067715843,0.19621146,8.9348,4.240082,0.0,0.0,0.0
20102070094853,0.23449662,8.949157,4.2448673,0.0,0.0,0.0
20102072473864,0.2009971,8.958728,4.26401,0.0,0.0,0.0
20102074852874,0.19142582,8.963513,4.2592244,0.0,0.0,0.0
20102077231884,0.15792629,8.944371,4.2927237,0.0,0.0,0.0
20102079610895,0.124426775,8.963513,4.3501515,0.0,0.0,0.0
20102081989853,0.1052842,8.953942,4.3788652,0.0,0.0,0.0
20102084368864,0.07178468,8.920443,4.3788652,0.0,0.0,0.0
20102086747874,0.043070808,8.925228,4.388437,0.0,0.0,0.0
20102089126884,0.047856454,8.9108715,4.3788652,0.0,0.0,0.0
20102091505895,0.019142581,8.872586,4.3788652,0.0,0.0,0.0
20102093884905,0.014356935,8.853444,4.402794,0.0,0.0,0.0
20102096263916,0.014356935,8.839087,4.412365,0.0,0.0,0.0
20102098642926,0.023928227,8.810373,4.426722,0.0,0.0,0.0
20102101021884,0.043070808,8.810373,4.4315076,0.0,0.0,0.0
20102103400895,0.0526421,8.781659,4.4075794,0.0,0.0,0.0
20102105779905,0.10049855,8.786445,4.3932223,0.0,0.0,0.0
20102108158864,0.14356937,8.781659,4.3836513,0.0,0.0,0.0
20102110537926,0.16749759,8.79123,4.388437,0.0,0.0,0.0
20102112916936,0.17706887,8.805588,4.3836513,0.0,0.0,0.0
20102115295947,0.19621146,8.810373,4.3740797,0.0,0.0,0.0
20102117674957,0.19142582,8.805588,4.354937,0.0,0.0,0.0
20102120053968,0.16749759,8.79123,4.354937,0.0,0.0,0.0
20102122432926,0.124426775,8.815159,4.331009,0.0,0.0,0.0
20102124811936,0.06699903,8.839087,4.3118663,0.0,0.0,0.0
20102127190895,0.023928227,8.819944,4.3118663,0.0,0.0,0.0
20102129569957,-0.02871387,8.843872,4.321438,0.0,0.0,0.0
20102131948968,-0.08135597,8.839087,4.3357944,0.0,0.0,0.0
20102134327978,-0.15792629,8.82473,4.345366,0.0,0.0,0.0
20102136706989,-0.22013968,8.843872,4.3405805,0.0,0.0,0.0
20102139085999,-0.23449662,8.877372,4.3501515,0.0,0.0,0.0
20102141465009,-0.29671,8.867801,4.345366,0.0,0.0,0.0
20102143844020,-0.32542387,8.9013,4.345366,0.0,0.0,0.0
20102146222978,-0.33020952,8.930014,4.3262234,0.0,0.0,0.0
20102148601989,-0.34456646,8.925228,4.345366,0.0,0.0,0.0
20102150980999,-0.36370903,8.9013,4.3357944,0.0,0.0,0.0
20102153360009,-0.39720857,8.906086,4.321438,0.0,0.0,0.0
20102155739020,-0.35413775,8.9013,4.2975097,0.0,0.0,0.0
20102158118030,-0.3493521,8.886943,4.2975097,0.0,0.0,0.0
20102160497041,-0.32063824,8.872586,4.26401,0.0,0.0,0.0
20102162876051,-0.27756742,8.839087,4.254439,0.0,0.0,0.0
20102165255009,-0.22492532,8.853444,4.2687955,0.0,0.0,0.0
20102167634020,-0.18185452,8.877372,4.2687955,0.0,0.0,0.0
20102170013030,-0.12921242,8.848659,4.240082,0.0,0.0,0.0
20102172392041,-0.07178468,8.815159,4.220939,0.0,0.0,0.0
20102174771051,-0.033499517,8.815159,4.23051,0.0,0.0,0.0
20102177150061,-0.023928227,8.843872,4.2448673,0.0,0.0,0.0
20102179529072,0.0,8.853444,4.2592244,0.0,0.0,0.0
20102181908082,0.014356935,8.85823,4.2687955,0.0,0.0,0.0
20102184287093,-0.014356935,8.848659,4.287938,0.0,0.0,0.0
20102186666103,-0.033499517,8.848659,4.3118663,0.0,0.0,0.0
20102189045061,-0.06699903,8.867801,4.3262234,0.0,0.0,0.0
20102191424072,-0.09092726,8.867801,4.331009,0.0,0.0,0.0
20102193803082,-0.124426775,8.863015,4.3405805,0.0,0.0,0.0
20102196182093,-0.18185452,8.872586,4.3405805,0.0,0.0,0.0
20102198561103,-0.19621146,8.896515,4.354937,0.0,0.0,0.0
20102200940114,-0.22013968,8.886943,4.3788652,0.0,0.0,0.0
20102203319124,-0.2440679,8.925228,4.402794,0.0,0.0,0.0
20102205698134,-0.2536392,8.944371,4.412365,0.0,0.0,0.0
20102208077145,-0.27756742,8.9348,4.412365,0.0,0.0,0.0
20102210456103,-0.29192436,8.944371,4.4315076,0.0,0.0,0.0
20102212835114,-0.2727818,8.953942,4.4410787,0.0,0.0,0.0
20102215214124,-0.2440679,8.968299,4.4458647,0.0,0.0,0.0
20102217593134,-0.22492532,8.963513,4.4602213,0.0,0.0,0.0
20102219972093,-0.2105684,8.987442,4.4410787,0.0,0.0,0.0
20102222351155,-0.16749759,8.963513,4.4410787,0.0,0.0,0.0
20102224730166,-0.1052842,8.973084,4.4171505,0.0,0.0,0.0
20102227109176,-0.076570325,8.953942,4.3932223,0.0,0.0,0.0
20102229488186,-0.047856454,8.939586,4.3836513,0.0,0.0,0.0
20102231867145,-0.019142581,8.939586,4.388437,0.0,0.0,0.0
20102234246155,-0.0047856453,8.9348,4.3836513,0.0,0.0,0.0
20102236625166,-0.0047856453,8.906086,4.3836513,0.0,0.0,0.0
20102239004176,0.019142581,8.915657,4.398008,0.0,0.0,0.0
20102241383186,0.009571291,8.920443,4.412365,0.0,0.0,0.0
20102243762197,0.0,8.886943,4.3836513,0.0,0.0,0.0
20102246141207,-0.023928227,8.882157,4.3836513,0.0,0.0,0.0
20102248520218,-0.062213387,8.877372,4.3836513,0.0,0.0,0.0
20102250899228,-0.1052842,8.872586,4.3788652,0.0,0.0,0.0
20102253278239,-0.15314065,8.863015,4.3932223,0.0,0.0,0.0
20102255657197,-0.19621146,8.85823,4.398008,0.0,0.0,0.0
20102258036207,-0.22971097,8.863015,4.412365,0.0,0.0,0.0
20102260415218,-0.27756742,8.863015,4.402794,0.0,0.0,0.0
20102262794228,-0.33020952,8.877372,4.3932223,0.0,0.0,0.0
20102265173239,-0.36370903,8.843872,4.3836513,0.0,0.0,0.0
20102267552249,-0.37328035,8.848659,4.3836513,0.0,0.0,0.0
20102269931259,-0.3397808,8.872586,4.3836513,0.0,0.0,0.0
20102272310270,-0.33499518,8.863015,4.388437,0.0,0.0,0.0
20102274689280,-0.32063824,8.848659,4.388437,0.0,0.0,0.0
20102277068239,-0.28713873,8.834301,4.3740797,0.0,0.0,0.0
20102279447249,-0.28713873,8.853444,4.331009,0.0,0.0,0.0
20102281826259,-0.2536392,8.853444,4.331009,0.0,0.0,0.0
20102284205270,-0.2009971,8.863015,4.3070807,0.0,0.0,0.0
20102286584280,-0.16749759,8.863015,4.287938,0.0,0.0,0.0
20102288963291,-0.13399807,8.882157,4.273581,0.0,0.0,0.0
20102291342301,-0.11964113,8.85823,4.26401,0.0,0.0,0.0
20102293721311,-0.11006984,8.85823,4.249653,0.0,0.0,0.0
20102296100270,-0.076570325,8.848659,4.240082,0.0,0.0,0.0
20102298479280,-0.07178468,8.863015,4.23051,0.0,0.0,0.0
20102300858291,-0.07178468,8.853444,4.2257247,0.0,0.0,0.0
20102303237301,-0.08135597,8.819944,4.2257247,0.0,0.0,0.0
20102305616311,-0.09092726,8.819944,4.211368,0.0,0.0,0.0
20102307995322,-0.11964113,8.781659,4.206582,0.0,0.0,0.0
20102310374332,-0.13878371,8.786445,4.2017965,0.0,0.0,0.0
20102312753343,-0.18664017,8.772088,4.2352962,0.0,0.0,0.0
20102315132301,-0.23449662,8.748159,4.2592244,0.0,0.0,0.0
20102317511364,-0.25842485,8.7577305,4.278367,0.0,0.0,0.0
20102319890322,-0.2632105,8.781659,4.2687955,0.0,0.0,0.0
20102322269332,-0.3062813,8.772088,4.26401,0.0,0.0,0.0
20102324648343,-0.32063824,8.781659,4.2448673,0.0,0.0,0.0
20102327027353,-0.33499518,8.781659,4.2592244,0.0,0.0,0.0
20102329406364,-0.3493521,8.776874,4.2927237,0.0,0.0,0.0
20102331785374,-0.33499518,8.772088,4.2927237,0.0,0.0,0.0
20102334164384,-0.32542387,8.781659,4.3070807,0.0,0.0,0.0
20102336543343,-0.31106696,8.752945,4.3118663,0.0,0.0,0.0
20102338922405,-0.32542387,8.752945,4.3070807,0.0,0.0,0.0
20102341301416,-0.32542387,8.738588,4.316652,0.0,0.0,0.0
20102343680374,-0.31585258,8.7673025,4.3070807,0.0,0.0,0.0
20102346059384,-0.30149564,8.772088,4.3070807,0.0,0.0,0.0
20102348438395,-0.29671,8.781659,4.3262234,0.0,0.0,0.0
20102350817405,-0.30149564,8.781659,4.321438,0.0,0.0,0.0
20102353196416,-0.29671,8.781659,4.331009,0.0,0.0,0.0
20102355575374,-0.3062813,8.776874,4.345366,0.0,0.0,0.0
20102357954436,-0.33020952,8.772088,4.3357944,0.0,0.0,0.0
20102360333447,-0.37328035,8.776874,4.3118663,0.0,0.0,0.0
20102362712457,-0.4211368,8.786445,4.3070807,0.0,0.0,0.0
20102365091416,-0.4642076,8.805588,4.331009,0.0,0.0,0.0
20102367470426,-0.4977071,8.810373,4.321438,0.0,0.0,0.0
20102369849436,-0.53599226,8.82473,4.331009,0.0,0.0,0.0
20102372228447,-0.57906306,8.834301,4.321438,0.0,0.0,0.0
20102374607457,-0.61734825,8.867801,4.321438,0.0,0.0,0.0
20102376986468,-0.64606214,8.867801,4.302295,0.0,0.0,0.0
20102379365478,-0.66041905,8.877372,4.302295,0.0,0.0,0.0
20102381744489,-0.66041905,8.882157,4.287938,0.0,0.0,0.0
20102384123499,-0.64606214,8.886943,4.2831526,0.0,0.0,0.0
20102386502457,-0.61734825,8.882157,4.2927237,0.0,0.0,0.0
20102388881468,-0.5886344,8.896515,4.287938,0.0,0.0,0.0
20102391260478,-0.526421,8.915657,4.302295,0.0,0.0,0.0
20102393639489,-0.4881358,8.906086,4.278367,0.0,0.0,0.0
20102396018499,-0.4642076,8.915657,4.2927237,0.0,0.0,0.0
20102398397509,-0.3924229,8.920443,4.287938,0.0,0.0,0.0
20102400776520,-0.33020952,8.930014,4.3070807,0.0,0.0,0.0
20102403155530,-0.30149564,8.930014,4.2975097,0.0,0.0,0.0
20102405534541,-0.2632105,8.930014,4.2687955,0.0,0.0,0.0
20102407913551,-0.2105684,8.930014,4.273581,0.0,0.0,0.0
20102410292509,-0.15792629,8.891729,4.2448673,0.0,0.0,0.0
20102412671520,-0.15314065,8.920443,4.2257247,0.0,0.0,0.0
20102415050530,-0.17706887,8.9348,4.249653,0.0,0.0,0.0
20102417429541,-0.19142582,8.906086,4.249653,0.0,0.0,0.0
20102419808551,-0.22971097,8.920443,4.3070807,0.0,0.0,0.0
20102422187561,-0.2632105,8.939586,4.345366,0.0,0.0,0.0
20102424566572,-0.32542387,8.953942,4.331009,0.0,0.0,0.0
20102426945582,-0.35413775,9.006584,4.331009,0.0,0.0,0.0
20102429324593,-0.37328035,9.040084,4.316652,0.0,0.0,0.0
20102431703551,-0.4211368,9.040084,4.2975097,0.0,0.0,0.0
20102434082561,-0.4354937,9.049655,4.321438,0.0,0.0,0.0
20102436461572,-0.42592242,9.030513,4.3501515,0.0,0.0,0.0
20102438840582,-0.42592242,9.016156,4.3740797,0.0,0.0,0.0
20102441219593,-0.3924229,8.997013,4.3788652,0.0,0.0,0.0
20102443598603,-0.35413775,8.987442,4.3788652,0.0,0.0,0.0
20102445977614,-0.33020952,8.968299,4.369294,0.0,0.0,0.0
20102448356624,-0.27756742,8.9348,4.369294,0.0,0.0,0.0
20102450735634,-0.22492532,8.920443,4.388437,0.0,0.0,0.0
20102453114593,-0.16271193,8.9013,4.398008,0.0,0.0,0.0
20102455493603,-0.09092726,8.867801,4.3836513,0.0,0.0,0.0
20102457872614,-0.02871387,8.867801,4.388437,0.0,0.0,0.0
20102460251624,-0.033499517,8.85823,4.359723,0.0,0.0,0.0
20102462630634,-0.043070808,8.877372,4.331009,0.0,0.0,0.0
20102465009645,-0.062213387,8.877372,4.331009,0.0,0.0,0.0
20102467388655,-0.09571291,8.863015,4.345366,0.0,0.0,0.0
20102469767666,-0.12921242,8.853444,4.3405805,0.0,0.0,0.0
20102472146676,-0.2009971,8.85823,4.3405805,0.0,0.0,0.0
20102474525634,-0.29671,8.848659,4.354937,0.0,0.0,0.0
20102476904645,-0.41635114,8.843872,4.3357944,0.0,0.0,0.0
20102479283655,-0.5072784,8.867801,4.321438,0.0,0.0,0.0
20102481662666,-0.5694918,8.872586,4.3118663,0.0,0.0,0.0
20102484041676,-0.6364908,8.863015,4.2975097,0.0,0.0,0.0
20102486420686,-0.6843473,8.863015,4.3118663,0.0,0.0,0.0
20102488799697,-0.72263247,8.853444,4.316652,0.0,0.0,0.0
20102491178707,-0.72263247,8.872586,4.302295,0.0,0.0,0.0
20102493557718,-0.70348984,8.867801,4.2975097,0.0,0.0,0.0
20102495936676,-0.67477596,8.843872,4.278367,0.0,0.0,0.0
20102498315686,-0.6269195,8.85823,4.273581,0.0,0.0,0.0
20102500694697,-0.5694918,8.877372,4.254439,0.0,0.0,0.0
20102503073707,-0.5024927,8.882157,4.2448673,0.0,0.0,0.0
20102505452718,-0.38763726,8.85823,4.2352962,0.0,0.0,0.0
20102507831728,-0.30149564,8.843872,4.23051,0.0,0.0,0.0
20102510210739,-0.24885355,8.839087,4.2352962,0.0,0.0,0.0
20102512589749,-0.18185452,8.839087,4.2257247,0.0,0.0,0.0
20102514968759,-0.13399807,8.867801,4.206582,0.0,0.0,0.0
20102517347770,-0.1052842,8.85823,4.2161536,0.0,0.0,0.0
20102519726780,-0.08135597,8.877372,4.206582,0.0,0.0,0.0
20102522105791,-0.07178468,8.839087,4.197011,0.0,0.0,0.0
20102524484749,-0.1052842,8.843872,4.2257247,0.0,0.0,0.0
20102526863759,-0.13878371,8.839087,4.240082,0.0,0.0,0.0
20102529242770,-0.16749759,8.877372,4.249653,0.0,0.0,0.0
20102531621780,-0.2440679,8.886943,4.249653,0.0,0.0,0.0
20102534000791,-0.31585258,8.877372,4.249653,0.0,0.0,0.0
20102536379801,-0.37806597,8.863015,4.254439,0.0,0.0,0.0
20102538758811,-0.43070808,8.872586,4.2687955,0.0,0.0,0.0
20102541137822,-0.4881358,8.882157,4.2687955,0.0,0.0,0.0
20102543516780,-0.52163535,8.886943,4.278367,0.0,0.0,0.0
20102545895791,-0.55034924,8.872586,4.2831526,0.0,0.0,0.0
20102548274801,-0.55513483,8.872586,4.287938,0.0,0.0,0.0
20102550653811,-0.51206404,8.886943,4.3070807,0.0,0.0,0.0
20102553032770,-0.4977071,8.872586,4.3118663,0.0,0.0,0.0
20102555411832,-0.46899325,8.877372,4.3405805,0.0,0.0,0.0
20102557790843,-0.38285163,8.863015,4.3645086,0.0,0.0,0.0
20102560169853,-0.32542387,8.896515,4.345366,0.0,0.0,0.0
20102562548864,-0.23928227,8.886943,4.3501515,0.0,0.0,0.0
20102564927822,-0.17228323,8.882157,4.3836513,0.0,0.0,0.0
20102567306832,-0.11006984,8.891729,4.3645086,0.0,0.0,0.0
20102569685843,-0.07178468,8.906086,4.359723,0.0,0.0,0.0
20102572064853,-0.0047856453,8.920443,4.345366,0.0,0.0,0.0
20102574443864,0.019142581,8.920443,4.331009,0.0,0.0,0.0
20102576822874,0.014356935,8.906086,4.345366,0.0,0.0,0.0
20102579201884,0.009571291,8.896515,4.3501515,0.0,0.0,0.0
20102581580895,-0.02871387,8.906086,4.3740797,0.0,0.0,0.0
20102583959905,-0.0526421,8.906086,4.3501515,0.0,0.0,0.0
20102586338916,-0.13399807,8.906086,4.3357944,0.0,0.0,0.0
20102588717874,-0.2009971,8.9013,4.354937,0.0,0.0,0.0
20102591096884,-0.28235307,8.9013,4.3501515,0.0,0.0,0.0
20102593475895,-0.37806597,8.886943,4.345366,0.0,0.0,0.0
20102595854905,-0.45942193,8.882157,4.345366,0.0,0.0,0.0
20102598233916,-0.51206404,8.882157,4.3357944,0.0,0.0,0.0
20102600612874,-0.5694918,8.882157,4.3501515,0.0,0.0,0.0
20102602991936,-0.6029913,8.872586,4.354937,0.0,0.0,0.0
20102605370947,-0.6412765,8.848659,4.3405805,0.0,0.0,0.0
20102607749957,-0.67477596,8.863015,4.3262234,0.0,0.0,0.0
20102610128968,-0.6795616,8.872586,4.316652,0.0,0.0,0.0
20102612507926,-0.66999036,8.906086,4.302295,0.0,0.0,0.0
20102614886936,-0.6412765,8.896515,4.287938,0.0,0.0,0.0
20102617265947,-0.63170516,8.906086,4.2927237,0.0,0.0,0.0
20102619644957,-0.5886344,8.891729,4.2975097,0.0,0.0,0.0
20102622023968,-0.5599205,8.925228,4.302295,0.0,0.0,0.0
20102624402978,-0.51206404,8.930014,4.278367,0.0,0.0,0.0
20102626781936,-0.4546363,8.9108715,4.287938,0.0,0.0,0.0
20102629160999,-0.44985065,8.9348,4.287938,0.0,0.0,0.0
20102631540009,-0.39720857,8.944371,4.302295,0.0,0.0,0.0
20102633918968,-0.3589234,8.930014,4.287938,0.0,0.0,0.0
20102636297978,-0.37328035,8.930014,4.2975097,0.0,0.0,0.0
20102638676989,-0.3589234,8.915657,4.2831526,0.0,0.0,0.0
20102641055999,-0.33499518,8.882157,4.2927237,0.0,0.0,0.0
20102643435009,-0.33020952,8.853444,4.3070807,0.0,0.0,0.0
20102645814020,-0.3589234,8.82473,4.3262234,0.0,0.0,0.0
20102648193030,-0.3684947,8.853444,4.302295,0.0,0.0,0.0
20102650572041,-0.39720857,8.85823,4.3118663,0.0,0.0,0.0
20102652951051,-0.41635114,8.839087,4.2927237,0.0,0.0,0.0
20102655330061,-0.4546363,8.829515,4.287938,0.0,0.0,0.0
20102657709020,-0.49292147,8.839087,4.2927237,0.0,0.0,0.0
20102660088030,-0.4833502,8.834301,4.2975097,0.0,0.0,0.0
20102662467041,-0.526421,8.829515,4.316652,0.0,0.0,0.0
20102664846051,-0.53599226,8.829515,4.331009,0.0,0.0,0.0
20102667225061,-0.5886344,8.819944,4.3118663,0.0,0.0,0.0
20102669604072,-0.61734825,8.834301,4.3070807,0.0,0.0,0.0
20102671983082,-0.63170516,8.839087,4.302295,0.0,0.0,0.0
20102674362093,-0.64606214,8.839087,4.316652,0.0,0.0,0.0
20102676741103,-0.6364908,8.819944,4.321438,0.0,0.0,0.0
20102679120114,-0.6412765,8.819944,4.316652,0.0,0.0,0.0
20102681499072,-0.64606214,8.834301,4.3118663,0.0,0.0,0.0
20102683878082,-0.65084773,8.853444,4.2927237,0.0,0.0,0.0
20102686257093,-0.6125626,8.815159,4.2975097,0.0,0.0,0.0
20102688636103,-0.6269195,8.815159,4.278367,0.0,0.0,0.0
20102691015114,-0.6221339,8.843872,4.2831526,0.0,0.0,0.0
20102693394124,-0.6029913,8.82473,4.2975097,0.0,0.0,0.0
20102695773134,-0.57906306,8.819944,4.2831526,0.0,0.0,0.0
20102698152145,-0.5886344,8.810373,4.302295,0.0,0.0,0.0
20102700531155,-0.5886344,8.82473,4.287938,0.0,0.0,0.0
20102702910166,-0.60777694,8.810373,4.287938,0.0,0.0,0.0
20102705289176,-0.5838487,8.805588,4.278367,0.0,0.0,0.0
20102707668134,-0.5838487,8.82473,4.2831526,0.0,0.0,0.0
20102710047145,-0.57906306,8.839087,4.2831526,0.0,0.0,0.0
20102712426155,-0.60777694,8.805588,4.2927237,0.0,0.0,0.0
20102714805166,-0.57906306,8.810373,4.2927237,0.0,0.0,0.0
20102717184176,-0.57427746,8.829515,4.3118663,0.0,0.0,0.0
20102719563186,-0.57427746,8.834301,4.3118663,0.0,0.0,0.0
20102721942197,-0.57906306,8.829515,4.302295,0.0,0.0,0.0
20102724321207,-0.5455636,8.834301,4.321438,0.0,0.0,0.0
20102726700218,-0.5455636,8.810373,4.331009,0.0,0.0,0.0
20102729079124,-0.55513483,8.805588,4.3405805,0.0,0.0,0.0
20102731458186,-0.56470615,8.815159,4.331009,0.0,0.0,0.0
20102733837197,-0.5694918,8.829515,4.3262234,0.0,0.0,0.0
20102736216207,-0.57906306,8.829515,4.3357944,0.0,0.0,0.0
20102738595218,-0.5886344,8.834301,4.3262234,0.0,0.0,0.0
20102740974228,-0.6029913,8.843872,4.321438,0.0,0.0,0.0
20102743353239,-0.6269195,8.863015,4.3070807,0.0,0.0,0.0
20102745732249,-0.6364908,8.877372,4.316652,0.0,0.0,0.0
20102748111259,-0.66041905,8.853444,4.3262234,0.0,0.0,0.0
20102750490218,-0.6891329,8.843872,4.316652,0.0,0.0,0.0
20102752869228,-0.72263247,8.829515,4.302295,0.0,0.0,0.0
20102755248239,-0.7465607,8.834301,4.2927237,0.0,0.0,0.0
20102757627249,-0.7609176,8.839087,4.273581,0.0,0.0,0.0
20102760006259,-0.7752745,8.834301,4.2592244,0.0,0.0,0.0
20102762385270,-0.7896315,8.819944,4.26401,0.0,0.0,0.0
20102764764280,-0.7896315,8.810373,4.2592244,0.0,0.0,0.0
20102767143291,-0.80877405,8.805588,4.26401,0.0,0.0,0.0
20102769522301,-0.7896315,8.810373,4.2831526,0.0,0.0,0.0
20102771901311,-0.7848458,8.82473,4.2975097,0.0,0.0,0.0
20102774280270,-0.7704889,8.853444,4.287938,0.0,0.0,0.0
20102776659280,-0.7752745,8.834301,4.287938,0.0,0.0,0.0
20102779038291,-0.76570326,8.867801,4.287938,0.0,0.0,0.0
20102781417301,-0.72741807,8.882157,4.3070807,0.0,0.0,0.0
20102783796311,-0.7178468,8.882157,4.302295,0.0,0.0,0.0
20102786175322,-0.7513463,8.9108715,4.2927237,0.0,0.0,0.0
20102788554332,-0.72741807,8.915657,4.302295,0.0,0.0,0.0
20102790933343,-0.72263247,8.9108715,4.2975097,0.0,0.0,0.0
20102793312353,-0.7082755,8.891729,4.2975097,0.0,0.0,0.0
20102795691311,-0.6987042,8.906086,4.331009,0.0,0.0,0.0
20102798070322,-0.7082755,8.920443,4.3501515,0.0,0.0,0.0
20102800449332,-0.7322037,8.915657,4.3501515,0.0,0.0,0.0
20102802828343,-0.6939186,8.915657,4.3501515,0.0,0.0,0.0
20102805207353,-0.6843473,8.915657,4.3501515,0.0,0.0,0.0
20102807586364,-0.7082755,8.896515,4.354937,0.0,0.0,0.0
20102809965374,-0.67477596,8.877372,4.3645086,0.0,0.0,0.0
20102812344384,-0.6652047,8.882157,4.3740797,0.0,0.0,0.0
20102814723395,-0.66999036,8.867801,4.3836513,0.0,0.0,0.0
20102817102405,-0.66999036,8.877372,4.3788652,0.0,0.0,0.0
20102819481416,-0.67477596,8.896515,4.3788652,0.0,0.0,0.0
20102821860374,-0.6556334,8.882157,4.3645086,0.0,0.0,0.0
20102824239384,-0.6939186,8.886943,4.359723,0.0,0.0,0.0
20102826618395,-0.6987042,8.896515,4.345366,0.0,0.0,0.0
20102828997353,-0.72741807,8.9013,4.354937,0.0,0.0,0.0
20102831376416,-0.7609176,8.891729,4.354937,0.0,0.0,0.0
20102833755426,-0.7848458,8.891729,4.3501515,0.0,0.0,0.0
20102836134436,-0.80877405,8.9013,4.354937,0.0,0.0,0.0
20102838513447,-0.8279166,8.896515,4.345366,0.0,0.0,0.0
20102840892457,-0.85184485,8.863015,4.3262234,0.0,0.0,0.0
20102843271468,-0.8709874,8.867801,4.2927237,0.0,0.0,0.0
20102845650426,-0.89013004,8.872586,4.321438,0.0,0.0,0.0
20102848029436,-0.9236295,8.882157,4.302295,0.0,0.0,0.0
20102850408447,-0.9284152,8.877372,4.287938,0.0,0.0,0.0
20102852787457,-0.95712906,8.863015,4.287938,0.0,0.0,0.0
20102855166468,-0.9523434,8.863015,4.26401,0.0,0.0,0.0
20102857545478,-0.98584294,8.848659,4.26401,0.0,0.0,0.0
20102859924489,-1.0001999,8.853444,4.2592244,0.0,0.0,0.0
20102862303499,-0.9906286,8.848659,4.2448673,0.0,0.0,0.0
20102864682509,-0.971486,8.848659,4.2448673,0.0,0.0,0.0
20102867061520,-0.94755775,8.829515,4.2448673,0.0,0.0,0.0
20102869440478,-0.9379865,8.834301,4.273581,0.0,0.0,0.0
20102871819489,-0.89491564,8.843872,4.2687955,0.0,0.0,0.0
20102874198499,-0.8757731,8.839087,4.254439,0.0,0.0,0.0
20102876577509,-0.8422736,8.839087,4.2592244,0.0,0.0,0.0
20102878956520,-0.7848458,8.843872,4.254439,0.0,0.0,0.0
20102881335530,-0.75613195,8.829515,4.26401,0.0,0.0,0.0
20102883714541,-0.7082755,8.819944,4.2687955,0.0,0.0,0.0
20102886093551,-0.67477596,8.810373,4.273581,0.0,0.0,0.0
20102888472561,-0.6412765,8.805588,4.2592244,0.0,0.0,0.0
20102890851572,-0.63170516,8.796016,4.249653,0.0,0.0,0.0
20102893230530,-0.6029913,8.839087,4.2687955,0.0,0.0,0.0
20102895609541,-0.5694918,8.819944,4.2927237,0.0,0.0,0.0
20102897988551,-0.5599205,8.79123,4.316652,0.0,0.0,0.0
20102900367561,-0.56470615,8.800801,4.3262234,0.0,0.0,0.0
20102902746572,-0.5982057,8.819944,4.3118663,0.0,0.0,0.0
20102905125582,-0.5886344,8.853444,4.287938,0.0,0.0,0.0
20102907504593,-0.5982057,8.853444,4.278367,0.0,0.0,0.0
20102909883603,-0.63170516,8.843872,4.287938,0.0,0.0,0.0
20102912262614,-0.64606214,8.843872,4.2975097,0.0,0.0,0.0
20102914641624,-0.6987042,8.848659,4.2927237,0.0,0.0,0.0
20102917020582,-0.72741807,8.863015,4.2927237,0.0,0.0,0.0
20102919399593,-0.74177504,8.886943,4.287938,0.0,0.0,0.0
20102921778603,-0.7800602,8.891729,4.273581,0.0,0.0,0.0
20102924157614,-0.8422736,8.877372,4.273581,0.0,0.0,0.0
20102926536624,-0.8662018,8.867801,4.278367,0.0,0.0,0.0
20102928915634,-0.89013004,8.85823,4.278367,0.0,0.0,0.0
20102931294645,-0.91405827,8.867801,4.2927237,0.0,0.0,0.0
20102933673655,-0.91405827,8.843872,4.3070807,0.0,0.0,0.0
20102936052666,-0.90448695,8.829515,4.3262234,0.0,0.0,0.0
20102938431624,-0.8997013,8.843872,4.3118663,0.0,0.0,0.0
20102940810634,-0.8422736,8.85823,4.316652,0.0,0.0,0.0
20102943189645,-0.8039884,8.863015,4.321438,0.0,0.0,0.0
20102945568655,-0.7465607,8.853444,4.331009,0.0,0.0,0.0
20102947947666,-0.6652047,8.82473,4.3501515,0.0,0.0,0.0
20102950326676,-0.5982057,8.853444,4.3645086,0.0,0.0,0.0
20102952705686,-0.5072784,8.843872,4.3788652,0.0,0.0,0.0
20102955084697,-0.43070808,8.848659,4.369294,0.0,0.0,0.0
20102957463707,-0.3684947,8.85823,4.3645086,0.0,0.0,0.0
20102959842718,-0.2727818,8.85823,4.369294,0.0,0.0,0.0
20102962221676,-0.18185452,8.867801,4.3932223,0.0,0.0,0.0
20102964600686,-0.13399807,8.853444,4.4171505,0.0,0.0,0.0
20102966979697,-0.06699903,8.863015,4.426722,0.0,0.0,0.0
20102969358707,-0.05742774,8.867801,4.421936,0.0,0.0,0.0
20102971737718,-0.043070808,8.9013,4.398008,0.0,0.0,0.0
20102974116728,-0.038285162,8.925228,4.3836513,0.0,0.0,0.0
20102976495739,-0.08135597,8.9108715,4.359723,0.0,0.0,0.0
20102978874749,-0.11485548,8.915657,4.3501515,0.0,0.0,0.0
20102981253759,-0.15314065,8.949157,4.345366,0.0,0.0,0.0
20102983632770,-0.24885355,8.963513,4.3645086,0.0,0.0,0.0
20102986011728,-0.36370903,8.953942,4.369294,0.0,0.0,0.0
20102988390739,-0.4642076,8.930014,4.369294,0.0,0.0,0.0
20102990769749,-0.526421,8.925228,4.345366,0.0,0.0,0.0
20102993148759,-0.6412765,8.920443,4.331009,0.0,0.0,0.0
20102995527770,-0.76570326,8.925228,4.3357944,0.0,0.0,0.0
20102997906780,-0.8470592,8.906086,4.359723,0.0,0.0,0.0
20103000285791,-0.95712906,8.9013,4.3788652,0.0,0.0,0.0
20103002664801,-1.0432707,8.886943,4.4171505,0.0,0.0,0.0
20103005043811,-1.0911272,8.9013,4.436293,0.0,0.0,0.0
20103007422822,-1.1246266,8.896515,4.4410787,0.0,0.0,0.0
20103009801780,-1.1772687,8.891729,4.421936,0.0,0.0,0.0
20103012180791,-1.1629118,8.863015,4.3788652,0.0,0.0,0.0
20103014559801,-1.1772687,8.867801,4.359723,0.0,0.0,0.0
20103016938811,-1.1772687,8.886943,4.3501515,0.0,0.0,0.0
20103019317822,-1.1389836,8.877372,4.3357944,0.0,0.0,0.0
20103021696832,-1.119841,8.939586,4.331009,0.0,0.0,0.0
20103024075843,-1.0767702,8.939586,4.3118663,0.0,0.0,0.0
20103026454853,-1.0097711,8.896515,4.278367,0.0,0.0,0.0
20103028833864,-0.95712906,8.891729,4.287938,0.0,0.0,0.0
20103031212874,-0.9092726,8.853444,4.278367,0.0,0.0,0.0
20103033591832,-0.86141616,8.810373,4.240082,0.0,0.0,0.0
20103035970843,-0.83748794,8.82473,4.1874394,0.0,0.0,0.0
20103038349853,-0.8039884,8.815159,4.1635113,0.0,0.0,0.0
20103040728864,-0.7752745,8.796016,4.1443686,0.0,0.0,0.0
20103043107874,-0.74177504,8.762517,4.197011,0.0,0.0,0.0
20103045486884,-0.70348984,8.705089,4.26401,0.0,0.0,0.0
20103047865895,-0.72263247,8.690732,4.3357944,0.0,0.0,0.0
20103050244905,-0.67477596,8.738588,4.3740797,0.0,0.0,0.0
20103052623916,-0.66999036,8.762517,4.3788652,0.0,0.0,0.0
20103055002926,-0.64606214,8.7673025,4.3262234,0.0,0.0,0.0
20103057381884,-0.6364908,8.805588,4.2927237,0.0,0.0,0.0
20103059760895,-0.6221339,8.853444,4.3740797,0.0,0.0,0.0
20103062139905,-0.64606214,8.800801,4.4602213,0.0,0.0,0.0
20103064518916,-0.65084773,8.800801,4.5415773,0.0,0.0,0.0
20103066897926,-0.66041905,8.781659,4.56072,0.0,0.0,0.0
20103069276936,-0.66999036,8.762517,4.4841495,0.0,0.0,0.0
20103071655947,-0.72263247,8.786445,4.412365,0.0,0.0,0.0
20103074034957,-0.7465607,8.829515,4.3836513,0.0,0.0,0.0
20103076413968,-0.7704889,8.877372,4.426722,0.0,0.0,0.0
20103078792978,-0.7896315,8.848659,4.508078,0.0,0.0,0.0
20103081171989,-0.79441714,8.85823,4.618148,0.0,0.0,0.0
20103083550947,-0.7800602,8.867801,4.6755753,0.0,0.0,0.0
20103085929957,-0.7513463,8.877372,4.6468616,0.0,0.0,0.0
20103088308968,-0.6939186,8.85823,4.551149,0.0,0.0,0.0
20103090687978,-0.61734825,8.939586,4.5128636,0.0,0.0,0.0
20103093066989,-0.5168497,8.939586,4.45065,0.0,0.0,0.0
20103095445999,-0.46899325,8.834301,4.3357944,0.0,0.0,0.0
20103097825009,-0.39720857,8.958728,4.3836513,0.0,0.0,0.0
20103100204020,-0.29192436,9.025727,4.4315076,0.0,0.0,0.0
20103102583030,-0.22971097,8.925228,4.3836513,0.0,0.0,0.0
20103104962041,-0.22492532,9.355937,4.5798626,0.0,0.0,0.0
20103107340999,-0.124426775,9.178867,4.1587257,0.0,0.0,0.0
20103109720009,-0.16271193,9.236296,4.034299,0.0,0.0,0.0
20103112099020,-0.21535404,9.30808,4.106084,0.0,0.0,0.0
20103114478030,-0.16749759,9.064013,4.0869412,0.0,0.0,0.0
20103116857041,-0.13399807,9.083155,4.316652,0.0,0.0,0.0
20103119236051,-0.16749759,8.9013,4.3070807,0.0,0.0,0.0
20103121615061,-0.23449662,9.025727,4.316652,0.0,0.0,0.0
20103123994072,-0.20578274,8.9013,3.938586,0.0,0.0,0.0
20103126373082,-0.28713873,8.867801,3.7184465,0.0,0.0,0.0
20103128752093,-0.3684947,8.82473,3.694518,0.0,0.0,0.0
20103131131051,-0.44506502,8.930014,3.7710886,0.0,0.0,0.0
20103133510061,-0.5024927,8.896515,3.7950168,0.0,0.0,0.0
20103135889072,-0.6221339,8.886943,3.8955152,0.0,0.0,0.0
20103138268082,-0.7513463,8.973084,4.0103707,0.0,0.0,0.0
20103140647093,-0.75613195,8.930014,3.9720855,0.0,0.0,0.0
20103143026103,-0.8997013,8.977871,4.0151563,0.0,0.0,0.0
20103145405114,-0.94277215,8.666803,3.6658044,0.0,0.0,0.0
20103147784124,-0.8327023,8.580662,3.1872396,0.0,0.0,0.0
20103150163134,-0.8566305,8.6141615,3.0149565,0.0,0.0,0.0
20103152542145,-0.71306115,8.618947,3.3260236,0.0,0.0,0.0
20103154921103,-0.6843473,8.5423765,4.0773697,0.0,0.0,0.0
20103157300114,-0.67477596,8.585447,4.752146,0.0,0.0,0.0
20103159679124,-0.6939186,8.633304,4.9579287,0.0,0.0,0.0
20103162058134,-0.5072784,8.724232,4.685147,0.0,0.0,0.0
20103164437145,-0.3924229,8.79123,4.034299,0.0,0.0,0.0
20103166816155,-0.30149564,9.01137,3.6466618,0.0,0.0,0.0
20103169195166,-0.0526421,8.997013,3.7328033,0.0,0.0,0.0
20103171574176,0.08135597,8.958728,4.4171505,0.0,0.0,0.0
20103173953186,0.13399807,8.906086,5.1206403,0.0,0.0,0.0
20103176332197,0.22013968,9.006584,5.503492,0.0,0.0,0.0
20103178711155,0.34456646,8.963513,5.2498527,0.0,0.0,0.0
20103181090166,0.31585258,9.245867,4.843073,0.0,0.0,0.0
20103183469176,0.38763726,9.389436,3.9816568,0.0,0.0,0.0
20103185848186,0.19142582,8.595019,3.0053852,0.0,0.0,0.0
20103188227197,0.41635114,8.719446,3.5892339,0.0,0.0,0.0
20103190606207,-0.39720857,9.221938,5.4795637,0.0,0.0,0.0
20103192985218,-0.4019942,8.9826565,6.250053,0.0,0.0,0.0
20103195364228,-0.6652047,8.628518,6.1878395,0.0,0.0,0.0
20103197743239,-0.6795616,8.834301,5.1014977,0.0,0.0,0.0
20103200122249,-1.1772687,8.9013,3.3212378,0.0,0.0,0.0
20103202501259,-0.7178468,9.025727,2.4502504,0.0,0.0,0.0
20103204880218,-0.8709874,8.781659,3.1633115,0.0,0.0,0.0
20103207259228,-1.0576276,8.398808,4.5942197,0.0,0.0,0.0
20103209638239,-0.9954142,8.274381,5.6709895,0.0,0.0,0.0
20103212017249,-0.7322037,8.250452,5.4221363,0.0,0.0,0.0
20103214396259,-0.6125626,8.26481,4.211368,0.0,0.0,0.0
20103216775270,-0.7178468,8.403593,3.0867412,0.0,0.0,0.0
20103219154280,-0.33020952,8.446664,2.8809586,0.0,0.0,0.0
20103221533291,-0.4833502,8.504091,3.7998023,0.0,0.0,0.0
20103223912301,-0.44506502,8.394022,5.072784,0.0,0.0,0.0
20103226291311,-0.47377887,8.427522,5.8337016,0.0,0.0,0.0
20103228670270,-0.31106696,8.551949,5.493921,0.0,0.0,0.0
20103231049280,-0.31585258,8.896515,4.5128636,0.0,0.0,0.0
20103233428291,-0.16749759,8.958728,3.4217365,0.0,0.0,0.0
20103235807301,-0.06699903,9.097511,3.278167,0.0,0.0,0.0
20103238186311,-0.12921242,8.987442,3.8476589,0.0,0.0,0.0
20103240565322,-0.10049855,9.020942,4.8382874,0.0,0.0,0.0
