t_ns,ax,ay,az,accuracy
30767974181881,0.05742774,9.111869,3.737589,3
30767976560787,0.14356937,9.12144,3.7280176,3
30767978939693,0.17706887,9.102298,3.790231,3
30767981318599,0.18664017,9.078369,3.8285162,3
30767983697558,0.17228323,9.078369,3.8763726,3
30767986076464,0.11485548,9.08794,3.8476589,3
30767988455422,0.07178468,9.083155,3.8093736,3
30767990834329,0.023928227,9.102298,3.7663028,3
30767993213235,-0.06699903,9.12144,3.7663028,3
30767995592141,-0.14356937,9.116654,3.790231,3
30767997971047,-0.23449662,9.12144,3.8380876,3
30768000350006,-0.30149564,9.135797,3.8620157,3
30768002728912,-0.34456646,9.15494,3.8524444,3
30768005107870,-0.4019942,9.135797,3.8237305,3
30768007486777,-0.41635114,9.150154,3.7806597,3
30768009865683,-0.39720857,9.126225,3.7710886,3
30768012244589,-0.3684947,9.140582,3.8093736,3
30768014623547,-0.29192436,9.140582,3.8380876,3
30768017002454,-0.19621146,9.135797,3.8333018,3
30768019381360,-0.09092726,9.150154,3.8333018,3
30768021760318,0.0,9.140582,3.7998023,3
30768024139224,0.11006984,9.140582,3.751946,3
30768026518131,0.2009971,9.111869,3.7328033,3
30768028897037,0.31585258,9.08794,3.7471602,3
30768031275995,0.39720857,9.08794,3.7615173,3
30768033654902,0.42592242,9.092726,3.7854455,3
30768036033808,0.44985065,9.102298,3.7854455,3
30768038412766,0.4642076,9.097511,3.7758741,3
30768040791672,0.4833502,9.092726,3.751946,3
30768043170579,0.43070808,9.102298,3.7423747,3
30768045549537,0.4019942,9.135797,3.7423747,3
30768047928443,0.36370903,9.15494,3.7471602,3
30768050307349,0.31106696,9.169296,3.7663028,3
30768052686256,0.26799613,9.183653,3.7710886,3
30768055065214,0.21535404,9.188439,3.751946,3
30768057444120,0.17228323,9.202796,3.7280176,3
30768059823027,0.124426775,9.217153,3.7184465,3
30768062201933,0.1052842,9.226724,3.7328033,3
30768064580891,0.11964113,9.2075815,3.7423747,3
30768066959797,0.11006984,9.221938,3.7280176,3
30768069338704,0.17228323,9.23151,3.737589,3
30768071717610,0.23928227,9.19801,3.7423747,3
30768074096568,0.29671,9.2075815,3.7328033,3
30768076475474,0.44985065,9.217153,3.6897326,3
30768078854433,0.56470615,9.2075815,3.7088752,3
30768081233339,0.67477596,9.164511,3.6897326,3
30768083612245,0.76570326,9.145369,3.694518,3
30768085991152,0.89013004,9.145369,3.7136607,3
30768088370110,0.94755775,9.159725,3.694518,3
30768090749016,1.0001999,9.164511,3.6801612,3
30768093127922,1.0097711,9.150154,3.6610186,3
30768095506881,0.971486,9.174082,3.6610186,3
30768097885787,0.91884387,9.193225,3.6658044,3
30768100264693,0.8662018,9.212367,3.6849468,3
30768102643599,0.7896315,9.202796,3.6801612,3
30768105022558,0.6987042,9.178867,3.6897326,3
30768107401464,0.61734825,9.202796,3.7088752,3
30768109780370,0.52163535,9.188439,3.7136607,3
30768112159329,0.42592242,9.164511,3.7136607,3
30768114538235,0.38763726,9.159725,3.7423747,3
30768116917141,0.3493521,9.140582,3.7471602,3
30768119296099,0.31585258,9.131011,3.7567315,3
30768121675006,0.26799613,9.12144,3.7663028,3
30768124053912,0.25842485,9.107083,3.7615173,3
30768126432818,0.2536392,9.097511,3.7998023,3
30768128811777,0.26799613,9.073584,3.7806597,3
30768131190683,0.32542387,9.073584,3.7806597,3
30768133569589,0.3684947,9.097511,3.790231,3
30768135948547,0.40677986,9.078369,3.7806597,3
30768138327454,0.44027936,9.059227,3.790231,3
30768140706360,0.4642076,9.044869,3.7615173,3
30768143085266,0.49292147,9.059227,3.7567315,3
30768145464224,0.4881358,9.083155,3.751946,3
30768147843131,0.4833502,9.073584,3.7567315,3
30768150222037,0.44985065,9.068798,3.7758741,3
30768152600995,0.41635114,9.068798,3.790231,3
30768154979902,0.35413775,9.064013,3.804588,3
30768157358808,0.27756742,9.059227,3.8141594,3
30768159737714,0.21535404,9.064013,3.8141594,3
30768162116672,0.148355,9.044869,3.8237305,3
30768164495579,0.09571291,9.049655,3.8333018,3
30768166874485,0.019142581,9.064013,3.8285162,3
30768169253443,-0.014356935,9.064013,3.8572302,3
30768171632349,-0.06699903,9.059227,3.8524444,3
30768174011256,-0.09092726,9.092726,3.842873,3
30768176390214,-0.086141616,9.078369,3.804588,3
30768178769120,-0.086141616,9.078369,3.8141594,3
30768181148027,-0.08135597,9.059227,3.8237305,3
30768183526933,-0.06699903,9.020942,3.8141594,3
30768185905891,-0.043070808,9.025727,3.8476589,3
30768188284797,-0.02871387,9.016156,3.8572302,3
30768190663704,-0.0047856453,8.997013,3.8476589,3
30768193042662,0.023928227,9.035298,3.8333018,3
30768195421568,0.0526421,9.030513,3.8380876,3
30768197800474,0.05742774,9.016156,3.8333018,3
30768200179381,0.06699903,9.020942,3.818945,3
30768202558339,0.06699903,9.035298,3.8285162,3
30768204937245,0.062213387,9.0544405,3.842873,3
30768207316152,0.047856454,9.020942,3.8285162,3
30768209695110,0.043070808,9.030513,3.842873,3
30768212074016,0.033499517,9.020942,3.818945,3
30768214452922,0.0047856453,9.030513,3.804588,3
30768216831881,-0.023928227,9.025727,3.842873,3
30768219210787,-0.0526421,9.040084,3.8476589,3
30768221589693,-0.05742774,9.030513,3.8333018,3
30768223968599,-0.11006984,9.020942,3.8380876,3
30768226347558,-0.15314065,9.030513,3.8572302,3
30768228726464,-0.16271193,9.016156,3.842873,3
30768231105370,-0.16749759,8.992228,3.8620157,3
30768233484329,-0.16749759,9.006584,3.8668015,3
30768235863235,-0.17706887,9.01137,3.8811584,3
30768238242141,-0.18185452,9.025727,3.8763726,3
30768240621047,-0.15792629,9.025727,3.900301,3
30768242999954,-0.13399807,9.025727,3.9050865,3
30768245378912,-0.11485548,9.044869,3.885944,3
30768247757818,-0.11006984,9.073584,3.8907297,3
30768250136777,-0.076570325,9.083155,3.8907297,3
30768252515683,-0.047856454,9.078369,3.8668015,3
30768254894537,-0.047856454,9.059227,3.8524444,3
30768257273495,-0.047856454,9.097511,3.8237305,3
30768259652454,-0.08135597,9.116654,3.7950168,3
30768262031360,-0.14356937,9.107083,3.7710886,3
30768264410266,-0.17228323,9.12144,3.7615173,3
30768266789224,-0.21535404,9.116654,3.7758741,3
30768269168131,-0.26799613,9.116654,3.7854455,3
30768271547037,-0.33020952,9.145369,3.7567315,3
30768273925995,-0.37328035,9.150154,3.737589,3
30768276304902,-0.37806597,9.159725,3.7423747,3
30768278683808,-0.3924229,9.15494,3.7471602,3
30768281062714,-0.3684947,9.19801,3.737589,3
30768283441672,-0.32063824,9.202796,3.7567315,3
30768285820579,-0.29192436,9.2075815,3.7615173,3
30768288199485,-0.29192436,9.221938,3.7471602,3
30768290578443,-0.25842485,9.23151,3.7423747,3
30768292957349,-0.2105684,9.241081,3.7184465,3
30768295336256,-0.16749759,9.269794,3.6849468,3
30768297715214,-0.15314065,9.274581,3.6897326,3
30768300094120,-0.13878371,9.288938,3.67059,3
30768302473027,-0.11006984,9.293723,3.656233,3
30768304851933,-0.09092726,9.298509,3.6610186,3
30768307230891,-0.0526421,9.255438,3.6370904,3
30768309609797,-0.05742774,9.23151,3.6466618,3
30768311988704,-0.062213387,9.221938,3.656233,3
30768314367662,-0.07178468,9.193225,3.656233,3
30768316746568,-0.1052842,9.174082,3.6753755,3
30768319125474,-0.11964113,9.15494,3.6897326,3
30768321504381,-0.17228323,9.131011,3.6993039,3
30768323883339,-0.2105684,9.150154,3.6801612,3
30768326262245,-0.25842485,9.126225,3.6849468,3
30768328641152,-0.30149564,9.116654,3.6993039,3
30768331020110,-0.35413775,9.126225,3.7184465,3
30768333399016,-0.35413775,9.107083,3.7040894,3
30768335777922,-0.3684947,9.102298,3.7088752,3
30768338156881,-0.38763726,9.107083,3.7328033,3
30768340535787,-0.3684947,9.111869,3.751946,3
30768342914693,-0.3684947,9.097511,3.737589,3
30768345293652,-0.3684947,9.092726,3.7710886,3
30768347672558,-0.35413775,9.083155,3.7950168,3
30768350051464,-0.35413775,9.064013,3.818945,3
30768352430370,-0.34456646,9.064013,3.842873,3
30768354809329,-0.35413775,9.064013,3.871587,3
30768357188235,-0.3589234,9.044869,3.8763726,3
30768359567141,-0.34456646,9.035298,3.9050865,3
30768361946099,-0.3397808,9.030513,3.9433718,3
30768364325006,-0.35413775,9.01137,3.9433718,3
30768366703912,-0.3397808,9.01137,3.9481573,3
30768369082818,-0.33020952,8.968299,3.952943,3
30768371461724,-0.3493521,8.953942,3.9481573,3
30768373840683,-0.35413775,8.9348,3.9673,3
30768376219589,-0.3684947,8.939586,3.9816568,3
30768378598547,-0.38763726,8.9348,3.991228,3
30768380977454,-0.39720857,8.939586,3.991228,3
30768383356360,-0.40677986,8.953942,3.9768713,3
30768385735318,-0.41156548,8.953942,3.9960139,3
30768388114224,-0.41156548,8.968299,4.019942,3
30768390493131,-0.39720857,8.958728,4.024728,3
30768392872037,-0.38285163,8.939586,4.0438704,3
30768395250995,-0.3397808,8.9348,4.0677986,3
30768397629902,-0.33020952,8.973084,4.091727,3
30768400008808,-0.32063824,8.973084,4.082155,3
30768402387766,-0.30149564,8.968299,4.0773697,3
30768404766672,-0.31106696,8.9826565,4.082155,3
30768407145579,-0.31106696,8.987442,4.115655,3
30768409524485,-0.3493521,8.973084,4.125226,3
30768411903443,-0.36370903,8.977871,4.1587257,3
30768414282349,-0.44985065,8.997013,4.1874394,3
30768416661256,-0.46899325,8.939586,4.211368,3
30768419040214,-0.52163535,8.877372,4.211368,3
30768421419120,-0.53599226,8.872586,4.23051,3
30768423797974,-0.4546363,8.829515,4.273581,3
30768426176985,-0.36370903,8.7673025,4.3262234,3
30768428555891,-0.26799613,8.786445,4.359723,3
30768430934797,-0.15314065,8.772088,4.3645086,3
30768433313704,-0.02871387,8.733803,4.321438,3
30768435692662,0.06699903,8.7577305,4.302295,3
30768438071568,0.14356937,8.772088,4.273581,3
30768440450474,0.14356937,8.786445,4.254439,3
30768442829433,0.08135597,8.7673025,4.240082,3
30768445208339,0.009571291,8.786445,4.254439,3
30768447587245,-0.05742774,8.815159,4.2687955,3
30768449966204,-0.17228323,8.853444,4.2592244,3
30768452345110,-0.2727818,8.843872,4.26401,3
30768454724016,-0.36370903,8.829515,4.273581,3
30768457102922,-0.40677986,8.786445,4.3357944,3
30768459481881,-0.42592242,8.776874,4.369294,3
30768461860787,-0.4211368,8.729017,4.4075794,3
30768464239693,-0.44506502,8.71466,4.4315076,3
30768466618652,-0.44506502,8.681161,4.436293,3
30768468997558,-0.4546363,8.647661,4.4458647,3
30768471376464,-0.4354937,8.628518,4.4554358,3
30768473755422,-0.44506502,8.6141615,4.4315076,3
30768476134329,-0.43070808,8.63809,4.426722,3
30768478513235,-0.4546363,8.700303,4.4315076,3
30768480892141,-0.45942193,8.724232,4.412365,3
30768483271099,-0.47856453,8.79123,4.388437,3
30768485650006,-0.4977071,8.872586,4.3740797,3
30768488028912,-0.5168497,8.925228,4.3836513,3
30768490407870,-0.52163535,8.949157,4.421936,3
30768492786777,-0.526421,8.944371,4.436293,3
30768495165631,-0.52163535,8.992228,4.4315076,3
30768497544641,-0.4833502,8.968299,4.4602213,3
30768499923547,-0.49292147,8.930014,4.479364,3
30768502302454,-0.4977071,8.939586,4.5128636,3
30768504681360,-0.4642076,8.896515,4.5224347,3
30768507060318,-0.44506502,8.834301,4.517649,3
30768509439224,-0.39720857,8.839087,4.4889355,3
30768511818131,-0.41635114,8.9108715,4.5320063,3
30768514197089,-0.33020952,8.85823,4.4315076,3
30768516575995,-0.41156548,8.886943,4.345366,3
30768518954902,-0.4881358,8.944371,4.26401,3
30768521333860,-0.6364908,8.949157,4.2257247,3
30768523712766,-0.6795616,8.906086,4.2448673,3
30768526091672,-0.8135597,8.958728,4.3357944,3
30768528470579,-0.9092726,8.953942,4.388437,3
30768530849537,-0.9762716,8.872586,4.398008,3
30768533228443,-0.98584294,8.886943,4.3932223,3
30768535607349,-0.9284152,8.896515,4.3836513,3
30768537986308,-0.86141616,8.853444,4.369294,3
30768540365214,-0.79441714,8.839087,4.4458647,3
30768542744120,-0.6939186,8.82473,4.508078,3
30768545123027,-0.6364908,8.796016,4.5559344,3
30768547501985,-0.5982057,8.781659,4.551149,3
30768549880891,-0.59342,8.805588,4.4985065,3
30768552259797,-0.59342,8.819944,4.4315076,3
30768554638756,-0.66041905,8.853444,4.421936,3
30768557017662,-0.6939186,8.896515,4.4410787,3
30768559396568,-0.7369894,8.930014,4.4745784,3
30768561775527,-0.8039884,8.958728,4.5128636,3
30768564154433,-0.7896315,8.992228,4.546363,3
30768566533339,-0.7896315,9.049655,4.5415773,3
30768568912297,-0.76570326,9.030513,4.546363,3
30768571291204,-0.74177504,9.025727,4.570291,3
30768573670110,-0.75613195,8.987442,4.613362,3
30768576049068,-0.76570326,8.944371,4.699504,3
30768578427974,-0.7369894,8.867801,4.7425747,3
30768580806881,-0.7369894,8.805588,4.7952166,3
30768583185787,-0.7322037,8.762517,4.7856455,3
30768585564745,-0.72263247,8.709874,4.7712884,3
30768587943652,-0.6843473,8.666803,4.7377887,3
30768590322558,-0.6987042,8.618947,4.709075,3
30768592701516,-0.72263247,8.595019,4.666004,3
30768595080422,-0.7609176,8.566305,4.6707897,3
30768597459329,-0.82313097,8.52802,4.6372905,3
30768599838287,-0.9236295,8.52802,4.599005,3
30768602217193,-1.0097711,8.52802,4.536792,3
30768604596099,-1.1150553,8.547162,4.4841495,3
30768606975006,-1.2490535,8.571091,4.4745784,3
30768609353964,-1.3639089,8.571091,4.4841495,3
30768611732870,-1.4739788,8.551949,4.503292,3
30768614111777,-1.6175481,8.575876,4.5128636,3
30768616490735,-1.6654046,8.590233,4.508078,3
30768618869641,-1.7228323,8.642876,4.493721,3
30768621248547,-1.7563318,8.685946,4.4458647,3
30768623627506,-1.7371893,8.738588,4.412365,3
30768626006412,-1.6701902,8.786445,4.3645086,3
30768628385318,-1.5840486,8.810373,4.3501515,3
30768630764277,-1.4596218,8.886943,4.316652,3
30768633143183,-1.2921243,8.9108715,4.26401,3
30768635522089,-1.1485549,8.963513,4.1874394,3
30768637900995,-0.9523434,9.01137,4.106084,3
30768640279954,-0.74177504,9.016156,4.024728,3
30768642658860,-0.55034924,9.025727,3.9481573,3
30768645037766,-0.3589234,9.040084,3.8907297,3
30768647416724,-0.16749759,9.0544405,3.8572302,3
30768649795631,0.0047856453,9.078369,3.7998023,3
30768652174537,0.13399807,9.092726,3.751946,3
30768654553443,0.23928227,9.107083,3.6658044,3
30768656932402,0.29192436,9.126225,3.603591,3
30768659311308,0.31585258,9.150154,3.5318062,3
30768661690214,0.2536392,9.19801,3.6179478,3
30768664069172,0.22492532,9.12144,3.522235,3
30768666448079,-0.05742774,9.245867,3.507878,3
30768668826985,-0.033499517,9.241081,3.4360933,3
30768671205943,-0.2440679,9.241081,3.359523,3
30768673584849,-0.33499518,9.269794,3.249453,3
30768675963756,-0.38763726,9.303294,3.278167,3
30768678342714,-0.43070808,9.269794,3.2303107,3
30768680721620,-0.59342,9.336794,3.196811,3
30768683100527,-0.6221339,9.327223,3.1441689,3
30768685479433,-0.61734825,9.327223,3.1250265,3
30768687858391,-0.6987042,9.341579,3.0915267,3
30768690237297,-0.7704889,9.403793,3.101098,3
30768692616204,-0.7800602,9.403793,3.1250265,3
30768694995110,-0.81834537,9.3511505,3.0723844,3
30768697374068,-0.80877405,9.38465,3.0867412,3
30768699752974,-0.7465607,9.408579,3.1058838,3
30768702131933,-0.66999036,9.442079,3.0723844,3
30768704510839,-0.5886344,9.480363,3.062813,3
30768706889745,-0.5312066,9.509077,3.0580273,3
30768709268704,-0.44027936,9.489935,3.0436704,3
30768711647610,-0.37806597,9.542577,3.0388846,3
30768714026516,-0.3397808,9.542577,3.034099,3
30768716405422,-0.28713873,9.542577,3.034099,3
30768718784381,-0.19142582,9.628718,3.0388846,3
30768721163287,-0.2440679,9.772287,3.1489546,3
30768723542193,-0.19142582,9.7196455,3.062813,3
30768725921152,-0.3589234,9.777073,3.0436704,3
30768728300058,-0.43070808,9.82493,2.9862428,3
30768730678964,-0.6652047,9.796216,3.0197423,3
30768733057870,-0.83748794,9.690931,3.1489546,3
30768735436829,-1.0911272,9.710074,3.3403804,3
30768737815735,-1.2777673,9.623933,3.4073794,3
30768740194641,-1.4931214,9.504292,3.4217365,3
30768742573599,-1.6031911,9.456435,3.3547373,3
30768744952506,-1.7515461,9.413364,3.3164523,3
30768747331412,-1.8281165,9.312865,3.306881,3
30768749710370,-1.8855443,9.226724,3.4025939,3
30768752089277,-1.9477576,9.19801,3.4743786,3
30768754468183,-2.0195422,9.174082,3.5174494,3
30768756847141,-2.0482562,9.111869,3.4600215,3
30768759226047,-2.0865414,9.159725,3.3786657,3
30768761604954,-2.115255,9.164511,3.2733815,3
30768763983912,-2.1870399,9.145369,3.2685957,3
30768766362818,-2.2348964,9.12144,3.3499517,3
30768768741724,-2.254039,9.131011,3.4600215,3
30768771120631,-2.2636101,9.078369,3.5413775,3
30768773499589,-2.254039,9.064013,3.5988052,3
30768775878443,-2.158326,9.040084,3.5700915,3
30768778257402,-2.0338993,9.020942,3.5653057,3
30768780636360,-1.9094725,9.01137,3.6083765,3
30768783015266,-1.8424734,9.006584,3.7040894,3
30768785394172,-1.7228323,9.01137,3.7950168,3
30768787773131,-1.6462619,8.9826565,3.8285162,3
30768790152037,-1.5936198,8.992228,3.818945,3
30768792530891,-1.5409778,9.020942,3.7950168,3
30768794909849,-1.4979069,9.044869,3.7615173,3
30768797288808,-1.4931214,9.073584,3.7423747,3
30768799667714,-1.4883357,9.078369,3.751946,3
30768802046620,-1.5122639,9.08794,3.7615173,3
30768804425579,-1.5218352,9.064013,3.790231,3
30768806804485,-1.5361922,9.049655,3.790231,3
30768809183391,-1.5218352,9.064013,3.7806597,3
30768811562349,-1.5122639,9.030513,3.7806597,3
30768813941256,-1.5122639,9.006584,3.8093736,3
30768816320162,-1.4835501,8.973084,3.8524444,3
30768818699068,-1.4596218,8.9826565,3.9242291,3
30768821078027,-1.430908,8.925228,3.9481573,3
30768823456933,-1.3926228,8.930014,3.9577286,3
30768825835839,-1.3447664,8.925228,3.9146578,3
30768828214797,-1.253839,8.915657,3.9194436,3
30768830593704,-1.1485549,8.877372,3.8811584,3
30768832972610,-1.1150553,8.896515,3.9098723,3
30768835351568,-1.038485,8.872586,3.8763726,3
30768837730474,-1.0097711,8.886943,3.8955152,3
30768840109381,-0.89013004,8.886943,3.8907297,3
30768842488339,-0.8327023,8.906086,3.8237305,3
30768844867245,-0.7082755,8.9348,3.804588,3
30768847246152,-0.55513483,8.968299,3.8093736,3
30768849625058,-0.4546363,8.992228,3.8476589,3
30768852004016,-0.37806597,8.963513,3.8380876,3
30768854382922,-0.34456646,8.977871,3.8476589,3
30768856761829,-0.32063824,8.973084,3.8763726,3
30768859140787,-0.3397808,8.973084,3.900301,3
30768861519693,-0.4019942,8.9826565,3.9098723,3
30768863898599,-0.5407779,9.006584,3.9194436,3
30768866277558,-0.72263247,9.01137,3.9577286,3
30768868656464,-0.79920274,8.930014,3.900301,3
30768871035370,-0.9667004,8.949157,3.9146578,3
30768873414329,-0.9762716,8.939586,3.8955152,3
30768875793235,-0.971486,8.906086,3.9290147,3
30768878172141,-0.8853444,8.863015,3.9290147,3
30768880551099,-0.79920274,8.906086,3.9481573,3
30768882930006,-0.5838487,8.877372,3.885944,3
30768885308860,-0.4642076,8.930014,3.8476589,3
30768887687818,-0.35413775,8.997013,3.818945,3
30768890066777,-0.2536392,9.025727,3.7998023,3
30768892445683,-0.2632105,9.040084,3.804588,3
30768894824589,-0.27756742,9.073584,3.8285162,3
30768897203547,-0.32542387,9.083155,3.8476589,3
30768899582454,-0.3493521,9.107083,3.818945,3
30768901961360,-0.3924229,9.097511,3.7854455,3
30768904340318,-0.41635114,9.083155,3.7806597,3
30768906719224,-0.40677986,9.083155,3.790231,3
30768909098131,-0.4019942,9.068798,3.8668015,3
30768911477089,-0.39720857,9.064013,3.9338005,3
30768913855995,-0.4211368,9.068798,3.9625144,3
30768916234902,-0.4642076,9.068798,3.952943,3
30768918613808,-0.5312066,9.078369,3.9338005,3
30768920992766,-0.6556334,9.111869,3.9290147,3
30768923371672,-0.76570326,9.102298,3.9146578,3
30768925750579,-0.91405827,9.131011,3.9050865,3
30768928129537,-0.9906286,9.131011,3.885944,3
30768930508391,-1.1006985,9.145369,3.8811584,3
30768932887349,-1.18684,9.131011,3.842873,3
30768935266308,-1.2155539,9.140582,3.804588,3
30768937645214,-1.2155539,9.145369,3.7806597,3
30768940024120,-1.2251252,9.107083,3.7950168,3
30768942403079,-1.2299109,9.073584,3.8285162,3
30768944781985,-1.1916257,9.068798,3.8333018,3
30768947160891,-1.1533405,9.068798,3.871587,3
30768949539849,-1.119841,9.016156,3.8955152,3
30768951918756,-1.119841,9.016156,3.8907297,3
30768954297662,-1.1246266,8.968299,3.900301,3
30768956676568,-1.1437693,8.963513,3.8955152,3
30768959055527,-1.134198,8.930014,3.9098723,3
30768961434433,-1.1389836,8.920443,3.900301,3
30768963813339,-1.1581261,8.930014,3.8668015,3
30768966192297,-1.1820544,8.915657,3.8380876,3
30768968571204,-1.2011969,8.920443,3.7998023,3
30768970950110,-1.2346965,8.939586,3.7854455,3
30768973329016,-1.2729816,9.006584,3.7854455,3
30768975707974,-1.3160524,9.025727,3.7950168,3
30768978086881,-1.3734802,9.040084,3.804588,3
30768980465839,-1.3926228,9.073584,3.8237305,3
30768982844745,-1.4596218,9.102298,3.8333018,3
30768985223652,-1.4739788,9.102298,3.8333018,3
30768987602558,-1.4931214,9.102298,3.8524444,3
30768989981516,-1.5409778,9.169296,3.8763726,3
30768992360422,-1.5888343,9.174082,3.9146578,3
30768994739329,-1.5744773,9.131011,3.9194436,3
30768997118287,-1.5744773,9.12144,3.9625144,3
30768999497193,-1.430908,9.078369,3.952943,3
30769001876099,-1.3016955,9.040084,3.952943,3
30769004255058,-1.134198,9.0544405,3.938586,3
30769006633964,-0.971486,9.044869,3.938586,3
30769009012870,-0.7369894,9.001799,3.9146578,3
30769011391777,-0.5694918,9.001799,3.900301,3
30769013770735,-0.38285163,9.001799,3.871587,3
30769016149641,-0.2440679,9.035298,3.8380876,3
30769018528547,-0.13878371,9.044869,3.790231,3
30769020907506,-0.148355,9.0544405,3.7758741,3
30769023286412,-0.15314065,9.044869,3.7423747,3
30769025665318,-0.17706887,9.001799,3.723232,3
30769028044277,-0.26799613,9.01137,3.7136607,3
30769030423183,-0.3397808,9.035298,3.7328033,3
30769032802089,-0.4546363,9.001799,3.7471602,3
30769035180995,-0.5694918,8.997013,3.7663028,3
30769037559954,-0.61734825,8.987442,3.804588,3
30769039938860,-0.6795616,8.997013,3.8237305,3
30769042317766,-0.72263247,8.973084,3.8237305,3
30769044696724,-0.76570326,8.963513,3.8524444,3
30769047075631,-0.79441714,8.977871,3.8668015,3
30769049454537,-0.79441714,8.9826565,3.8811584,3
30769051833495,-0.7704889,8.992228,3.8572302,3
30769054212402,-0.72741807,9.006584,3.8333018,3
30769056591308,-0.6939186,9.020942,3.804588,3
30769058970266,-0.6221339,9.020942,3.7758741,3
30769061349172,-0.55513483,9.040084,3.7854455,3
30769063728079,-0.4833502,9.044869,3.7663028,3
30769066107037,-0.4211368,9.0544405,3.7806597,3
30769068485943,-0.34456646,9.059227,3.7998023,3
30769070864849,-0.29671,9.030513,3.8093736,3
30769073243808,-0.26799613,9.020942,3.8141594,3
30769075622714,-0.2632105,9.001799,3.8380876,3
30769078001620,-0.2440679,8.977871,3.8620157,3
30769080380474,-0.28713873,8.958728,3.8955152,3
30769082759485,-0.35413775,8.939586,3.9146578,3
30769085138391,-0.4211368,8.939586,3.9338005,3
30769087517297,-0.55034924,8.930014,3.9194436,3
30769089896256,-0.66999036,8.906086,3.8955152,3
30769092275162,-0.79920274,8.915657,3.8572302,3
30769094654068,-0.93320084,8.9013,3.842873,3
30769097033027,-1.0145568,8.9348,3.8380876,3
30769099411933,-1.0863415,8.949157,3.8380876,3
30769101790839,-1.1485549,8.968299,3.8141594,3
30769104169797,-1.2011969,8.968299,3.790231,3
30769106548704,-1.2107682,8.953942,3.8093736,3
30769108927558,-1.1964114,8.949157,3.8141594,3
30769111306568,-1.1581261,8.949157,3.818945,3
30769113685474,-1.0671989,8.930014,3.8333018,3
30769116064381,-0.971486,8.920443,3.8763726,3
30769118443287,-0.8757731,8.925228,3.8955152,3
30769120822245,-0.7848458,8.877372,3.9050865,3
30769123201152,-0.66999036,8.877372,3.885944,3
30769125580058,-0.57906306,8.891729,3.8955152,3
30769127959016,-0.4642076,8.863015,3.8668015,3
30769130337870,-0.3684947,8.853444,3.8524444,3
30769132716829,-0.2727818,8.886943,3.8476589,3
30769135095787,-0.28713873,8.930014,3.8907297,3
30769137474693,-0.21535404,8.85823,3.818945,3
30769139853599,-0.26799613,8.9108715,3.7615173,3
30769142232558,-0.3493521,8.944371,3.737589,3
30769144611464,-0.47856453,8.920443,3.7758741,3
30769146990370,-0.6029913,8.877372,3.842873,3
30769149369277,-0.8135597,8.915657,3.9242291,3
30769151748235,-0.94755775,8.891729,3.9481573,3
30769154127141,-1.0719845,8.853444,3.9290147,3
30769156506047,-1.1485549,8.839087,3.9050865,3
30769158885006,-1.2011969,8.853444,3.9050865,3
30769161263912,-1.2107682,8.829515,3.9338005,3
30769163642818,-1.1964114,8.829515,3.9577286,3
30769166021724,-1.1772687,8.867801,3.9816568,3
30769168400683,-1.0815558,8.882157,3.9673,3
30769170779589,-0.9810573,8.920443,3.9050865,3
30769173158547,-0.89013004,9.001799,3.8380876,3
30769175537454,-0.79441714,9.025727,3.7854455,3
30769177916360,-0.66041905,9.044869,3.7615173,3
30769180295318,-0.55034924,9.068798,3.7710886,3
30769182674224,-0.44506502,9.097511,3.7998023,3
30769185053131,-0.33499518,9.116654,3.790231,3
30769187432037,-0.23449662,9.126225,3.790231,3
30769189810995,-0.13399807,9.135797,3.7950168,3
30769192189902,-0.07178468,9.15494,3.8333018,3
30769194568808,-0.043070808,9.174082,3.9050865,3
30769196947766,0.0047856453,9.169296,3.9673,3
30769199326672,-0.02871387,9.236296,4.0103707,3
30769201705527,-0.043070808,9.274581,4.0151563,3
30769204084537,-0.15314065,9.312865,4.0151563,3
30769206463391,-0.29671,9.370294,3.9864426,3
30769208842349,-0.5599205,9.466006,4.063013,3
30769211221308,-0.61734825,9.332008,3.9290147,3
30769213600214,-0.8566305,9.41815,3.9960139,3
30769215979120,-0.74177504,9.312865,3.9290147,3
30769218358079,-0.7082755,9.327223,3.991228,3
30769220736985,-0.52163535,9.250652,3.9194436,3
30769223115839,-0.4546363,9.312865,3.952943,3
30769225494849,-0.10049855,9.193225,3.8476589,3
30769227873756,0.019142581,9.260223,3.8380876,3
30769230252662,0.18664017,9.317652,3.7615173,3
30769232631568,0.24885355,9.355937,3.751946,3
30769235010527,0.27756742,9.360723,3.790231,3
30769237389433,0.18664017,9.41815,3.842873,3
30769239768339,0.086141616,9.442079,3.8524444,3
30769242147297,-0.0526421,9.475577,3.8763726,3
30769244526204,-0.148355,9.52822,3.8763726,3
30769246905110,-0.29671,9.600004,3.9625144,3
30769249284016,-0.37806597,9.552148,4.0534415,3
30769251662974,-0.45942193,9.52822,4.197011,3
30769254041881,-0.5072784,9.523434,4.2927237,3
30769256420839,-0.6125626,9.49472,4.3788652,3
30769258799745,-0.67477596,9.389436,4.388437,3
30769261178652,-0.7322037,9.293723,4.4171505,3
30769263557610,-0.72263247,9.150154,4.426722,3
30769265936516,-0.75613195,9.001799,4.465007,3
30769268315422,-0.72263247,8.848659,4.4554358,3
30769270694329,-0.6939186,8.748159,4.4315076,3
30769273073287,-0.6125626,8.628518,4.388437,3
30769275452193,-0.4546363,8.537591,4.3262234,3
30769277831099,-0.4546363,8.56152,4.3740797,3
30769280210058,-0.23928227,8.413164,4.1922255,3
30769282588964,-0.3589234,8.4705925,4.182654,3
30769284967870,-0.37328035,8.441878,4.1204405,3
30769287346829,-0.51206404,8.432307,4.2352962,3
30769289725735,-0.55513483,8.360522,4.321438,3
30769292104641,-0.7465607,8.432307,4.4171505,3
30769294483599,-0.7513463,8.456235,4.4171505,3
30769296862506,-0.7609176,8.49452,4.426722,3
30769299241412,-0.7178468,8.532805,4.4075794,3
30769301620370,-0.65084773,8.56152,4.412365,3
30769303999277,-0.526421,8.571091,4.421936,3
30769306378183,-0.41156548,8.657232,4.4602213,3
30769308757089,-0.3397808,8.729017,4.4554358,3
30769311136047,-0.32063824,8.829515,4.4315076,3
30769313514954,-0.36370903,8.9013,4.331009,3
30769315893860,-0.4977071,9.020942,4.2448673,3
30769318272818,-0.66999036,9.040084,4.15394,3
30769320651724,-0.9284152,9.102298,4.1443686,3
30769323030631,-1.0959128,9.12144,4.1204405,3
30769325409589,-1.3734802,9.145369,4.1108694,3
30769327788495,-1.5888343,9.08794,4.0151563,3
30769330167402,-1.8041883,9.0544405,3.9577286,3
30769332546360,-1.9716859,8.958728,3.9673,3
30769334925266,-2.1391835,8.886943,4.0438704,3
30769337304172,-2.268396,8.781659,4.058227,3
30769339683131,-2.3449662,8.7577305,4.0295134,3
30769342062037,-2.388037,8.752945,3.9673,3
30769344440943,-2.3832514,8.743374,3.8763726,3
30769346819902,-2.37368,8.762517,3.790231,3
30769349198808,-2.254039,8.800801,3.7280176,3
30769351577714,-2.115255,8.867801,3.6993039,3
30769353956672,-1.9621146,8.906086,3.6227336,3
30769356335579,-1.7467605,8.992228,3.522235,3
30769358714485,-1.4883357,9.078369,3.3786657,3
30769361093391,-1.2346965,9.135797,3.2350962,3
30769363472349,-0.9906286,9.174082,3.182454,3
30769365851256,-0.75613195,9.260223,3.2063823,3
30769368230162,-0.5599205,9.269794,3.2446675,3
30769370609120,-0.3924229,9.2793665,3.2925239,3
30769372988027,-0.2440679,9.312865,3.306881,3
30769375366933,-0.18664017,9.322437,3.2590244,3
30769377745891,-0.2105684,9.336794,3.2638102,3
30769380124797,-0.24885355,9.346365,3.2877383,3
30769382503704,-0.3924229,9.365508,3.306881,3
30769384882662,-0.57427746,9.38465,3.3355947,3
30769387261568,-0.70348984,9.365508,3.3355947,3
30769389640474,-0.8805587,9.389436,3.278167,3
30769392019381,-0.98584294,9.4229355,3.158526,3
30769394398339,-1.0480564,9.480363,3.0532417,3
30769396777193,-1.0959128,9.499506,2.981457,3
30769399156152,-1.1581261,9.52822,2.952743,3
30769401535058,-1.1485549,9.537791,2.952743,3
30769403914016,-1.1102697,9.5760765,2.952743,3
30769406292922,-1.0863415,9.556933,2.914458,3
30769408671881,-1.038485,9.5665045,2.885744,3
30769411050787,-0.9810573,9.595219,2.8809586,3
30769413429693,-0.90448695,9.552148,2.900101,3
30769415808652,-0.8327023,9.52822,2.9383862,3
30769418187558,-0.72263247,9.49472,2.9623144,3
30769420566464,-0.6652047,9.466006,2.9862428,3
30769422945422,-0.5694918,9.475577,2.981457,3
30769425324329,-0.4977071,9.470792,2.9431717,3
30769427703235,-0.4354937,9.461221,2.9383862,3
30769430082193,-0.38285163,9.41815,2.9336007,3
30769432461099,-0.32063824,9.432507,2.9575288,3
30769434840006,-0.29671,9.45165,2.9718857,3
30769437218912,-0.23449662,9.432507,2.9671001,3
30769439597870,-0.22492532,9.442079,2.9718857,3
30769441976777,-0.22013968,9.408579,2.9575288,3
30769444355735,-0.23928227,9.427721,2.9623144,3
30769446734641,-0.22971097,9.4229355,2.9671001,3
30769449113547,-0.26799613,9.408579,3.010171,3
30769451492454,-0.32542387,9.394221,3.062813,3
30769453871412,-0.37328035,9.375079,3.1106694,3
30769456250318,-0.4354937,9.375079,3.1250265,3
30769458629224,-0.5168497,9.360723,3.1537402,3
30769461008183,-0.57427746,9.375079,3.158526,3
30769463387089,-0.6221339,9.3511505,3.1680973,3
30769465765995,-0.5694918,9.38465,3.2015967,3
30769468144954,-0.6125626,9.446864,3.2590244,3
30769470523860,-0.6125626,9.403793,3.2877383,3
30769472902766,-0.6269195,9.413364,3.249453,3
30769475281724,-0.6891329,9.461221,3.1920254,3
30769477660631,-0.75613195,9.461221,3.1728828,3
30769480039537,-0.8757731,9.399008,3.278167,3
30769482418443,-0.9762716,9.341579,3.397808,3
30769484797402,-1.1006985,9.360723,3.5126636,3
30769487176308,-1.119841,9.2793665,3.546163,3
30769489555266,-1.1724831,9.341579,3.5509489,3
30769491934172,-1.2346965,9.288938,3.5940197,3
30769494313079,-1.105484,9.174082,3.6131623,3
30769496691985,-1.1581261,9.107083,3.6131623,3
30769499070943,-0.8757731,9.2075815,3.804588,3
30769501449849,-0.85184485,9.111869,3.8285162,3
30769503828756,-0.7896315,9.12144,3.7854455,3
30769506207714,-0.71306115,9.116654,3.6753755,3
30769508586620,-0.7178468,9.236296,3.6993039,3
30769510965527,-0.9762716,9.12144,3.656233,3
30769513344485,-1.1006985,9.19801,3.7950168,3
30769515723391,-1.2394822,9.135797,3.7758741,3
30769518102297,-1.5266209,9.188439,3.9816568,3
30769520481256,-1.6797615,9.035298,3.9050865,3
30769522860162,-1.7419748,9.092726,3.9290147,3
30769525239068,-1.7419748,9.006584,3.885944,3
30769527618027,-1.6654046,8.963513,3.9290147,3
30769529996933,-1.4883357,8.886943,3.9864426,3
30769532375839,-1.2394822,8.882157,4.058227,3
30769534754745,-0.9954142,8.848659,4.0390844,3
30769537133704,-0.7465607,8.853444,4.130012,3
30769539512558,-0.5886344,8.82473,4.072584,3
30769541891568,-0.37806597,8.886943,4.034299,3
30769544270474,-0.23449662,8.886943,4.0295134,3
30769546649381,-0.17228323,8.906086,4.0677986,3
30769549028339,-0.16749759,8.920443,4.058227,3
30769551407245,-0.11964113,9.001799,4.0438704,3
30769553786152,-0.11485548,8.977871,4.0007997,3
30769556165058,-0.15314065,9.030513,4.091727,3
30769558544016,-0.13878371,8.949157,3.991228,3
30769560922922,-0.20578274,9.01137,4.024728,3
30769563301829,-0.17228323,8.977871,4.106084,3
30769565680787,-0.33020952,8.915657,4.101298,3
30769568059693,-0.38763726,8.930014,4.173083,3
30769570438599,-0.31106696,8.872586,4.2257247,3
30769572817558,-0.46899325,8.863015,4.249653,3
30769575196464,-0.46899325,8.815159,4.2161536,3
30769577575370,-0.3924229,8.843872,4.1922255,3
30769579954329,-0.3397808,8.85823,4.1635113,3
30769582333183,-0.37806597,8.848659,4.173083,3
30769584712141,-0.27756742,8.85823,4.139583,3
30769587091047,-0.21535404,8.915657,4.115655,3
30769589470006,-0.22013968,8.9108715,4.0534415,3
30769591848912,-0.21535404,8.925228,4.0534415,3
30769594227818,-0.15792629,8.968299,4.005585,3
30769596606777,-0.13399807,8.977871,3.9720855,3
30769598985683,-0.11964113,9.001799,4.005585,3
30769601364589,-0.11006984,9.025727,4.082155,3
30769603743547,-0.062213387,8.9826565,4.091727,3
30769606122454,-0.033499517,8.953942,4.115655,3
30769608501360,-0.009571291,8.963513,4.1491547,3
30769610880318,-0.019142581,8.973084,4.1587257,3
30769613259224,0.0047856453,8.963513,4.168297,3
30769615638131,0.009571291,8.958728,4.168297,3
30769618017089,-0.05742774,8.958728,4.1922255,3
30769620395995,-0.1052842,8.963513,4.182654,3
30769622774902,-0.15314065,8.963513,4.1587257,3
30769625153860,-0.20578274,8.953942,4.130012,3
30769627532766,-0.30149564,8.977871,4.106084,3
30769629911672,-0.33020952,8.977871,4.0534415,3
30769632290631,-0.3397808,8.992228,4.0103707,3
30769634669537,-0.37328035,9.020942,3.9864426,3
30769637048443,-0.38285163,8.997013,3.9673,3
30769639427349,-0.3589234,8.9826565,3.9481573,3
30769641806308,-0.34456646,8.977871,3.9290147,3
30769644185214,-0.31585258,8.987442,3.9194436,3
30769646564172,-0.26799613,8.997013,3.9290147,3
30769648943079,-0.2009971,9.001799,3.9290147,3
30769651321985,-0.22971097,9.064013,3.9768713,3
30769653700943,-0.19621146,9.025727,3.9290147,3
30769656079849,-0.28235307,9.097511,3.9050865,3
30769658458756,-0.3062813,9.164511,3.8093736,3
30769660837662,-0.41156548,9.15494,3.8476589,3
30769663216620,-0.4642076,9.107083,3.8668015,3
30769665595527,-0.53599226,9.150154,3.9290147,3
30769667974433,-0.55513483,9.12144,3.9098723,3
30769670353391,-0.5072784,9.083155,3.8620157,3
30769672732297,-0.44985065,9.092726,3.804588,3
30769675111152,-0.38285163,9.107083,3.790231,3
30769677490162,-0.27756742,9.064013,3.790231,3
30769679869068,-0.2009971,9.049655,3.804588,3
30769682247974,-0.148355,9.064013,3.8237305,3
30769684626933,-0.11006984,9.068798,3.804588,3
30769687005787,-0.06699903,9.073584,3.751946,3
30769689384745,-0.12921242,9.111869,3.7184465,3
30769691763704,-0.2009971,9.126225,3.6849468,3
30769694142610,-0.28713873,9.140582,3.6849468,3
30769696521516,-0.36370903,9.174082,3.6801612,3
30769698900474,-0.4354937,9.174082,3.694518,3
30769701279381,-0.4833502,9.174082,3.6801612,3
30769703658287,-0.4833502,9.169296,3.6514473,3
30769706037245,-0.46899325,9.159725,3.6275191,3
30769708416152,-0.44027936,9.15494,3.6131623,3
30769710795058,-0.40677986,9.145369,3.6275191,3
30769713173964,-0.33020952,9.145369,3.6610186,3
30769715552922,-0.2440679,9.140582,3.6849468,3
30769717931829,-0.21535404,9.131011,3.7136607,3
30769720310735,-0.19621146,9.140582,3.7040894,3
30769722689693,-0.18185452,9.15494,3.6801612,3
30769725068599,-0.20578274,9.164511,3.6514473,3
30769727447506,-0.22013968,9.202796,3.656233,3
30769729826464,-0.2536392,9.178867,3.6658044,3
30769732205370,-0.28713873,9.174082,3.6753755,3
30769734584277,-0.29192436,9.19801,3.6466618,3
30769736963235,-0.28235307,9.174082,3.6610186,3
30769739342141,-0.28713873,9.159725,3.641876,3
30769741721047,-0.30149564,9.178867,3.6466618,3
30769744100006,-0.28713873,9.15494,3.6658044,3
30769746478912,-0.28235307,9.150154,3.6993039,3
30769748857818,-0.3397808,9.145369,3.737589,3
30769751236777,-0.3684947,9.145369,3.7615173,3
30769753615683,-0.41156548,9.140582,3.7710886,3
30769755994589,-0.4642076,9.126225,3.7758741,3
30769758373547,-0.52163535,9.111869,3.7663028,3
30769760752454,-0.5407779,9.135797,3.7423747,3
30769763131360,-0.5694918,9.135797,3.7663028,3
30769765510318,-0.6029913,9.111869,3.7758741,3
30769767889224,-0.63170516,9.111869,3.7806597,3
30769770268131,-0.5982057,9.102298,3.7854455,3
30769772647089,-0.59342,9.111869,3.7854455,3
30769775025995,-0.56470615,9.073584,3.7806597,3
30769777404902,-0.51206404,9.083155,3.7806597,3
30769779783808,-0.46899325,9.064013,3.8093736,3
30769782162766,-0.44506502,9.0544405,3.8380876,3
30769784541672,-0.41635114,9.040084,3.8524444,3
30769786920579,-0.41156548,8.987442,3.885944,3
30769789299537,-0.3924229,8.973084,3.8524444,3
30769791678443,-0.40677986,8.977871,3.8572302,3
30769794057349,-0.44506502,8.987442,3.8668015,3
30769796436308,-0.47377887,8.992228,3.8524444,3
30769798815214,-0.5168497,8.992228,3.871587,3
30769801194120,-0.57906306,9.001799,3.871587,3
30769803573079,-0.6364908,9.025727,3.871587,3
30769805951985,-0.6939186,9.035298,3.8668015,3
30769808330891,-0.72741807,9.0544405,3.8811584,3
30769810709849,-0.72741807,9.059227,3.8763726,3
30769813088756,-0.7704889,9.068798,3.8955152,3
30769815467662,-0.7800602,9.078369,3.9194436,3
30769817846568,-0.7609176,9.064013,3.8955152,3
30769820225527,-0.74177504,9.0544405,3.9146578,3
30769822604433,-0.7322037,9.044869,3.938586,3
30769824983391,-0.7082755,9.049655,3.9338005,3
30769827362297,-0.6795616,9.064013,3.9242291,3
30769829741204,-0.6269195,9.049655,3.9290147,3
30769832120162,-0.5599205,9.030513,3.938586,3
30769834499068,-0.55034924,9.025727,3.9290147,3
30769836877974,-0.49292147,9.049655,3.938586,3
30769839256881,-0.4354937,9.059227,3.9338005,3
30769841635839,-0.39720857,9.044869,3.9194436,3
30769844014745,-0.3589234,9.030513,3.900301,3
30769846393652,-0.32542387,9.030513,3.8955152,3
30769848772610,-0.28713873,9.035298,3.871587,3
30769851151516,-0.28713873,9.040084,3.8763726,3
30769853530422,-0.30149564,9.030513,3.871587,3
30769855909381,-0.33499518,9.040084,3.8763726,3
30769858288287,-0.3589234,9.0544405,3.8955152,3
30769860667193,-0.43070808,9.044869,3.9146578,3
30769863046152,-0.46899325,9.025727,3.9050865,3
30769865425058,-0.4833502,9.035298,3.9050865,3
30769867803964,-0.52163535,9.030513,3.9146578,3
30769870182922,-0.55513483,9.025727,3.9194436,3
30769872561829,-0.59342,9.040084,3.9338005,3
30769874940735,-0.6269195,9.044869,3.952943,3
30769877319693,-0.6029913,9.01137,3.938586,3
30769879698599,-0.5886344,8.9826565,3.9242291,3
30769882077506,-0.53599226,9.006584,3.9098723,3
30769884456464,-0.4546363,9.006584,3.900301,3
30769886835370,-0.3493521,8.9826565,3.9098723,3
30769889214277,-0.2536392,9.006584,3.9098723,3
30769891593235,-0.18664017,9.006584,3.9050865,3
30769893972089,-0.09571291,8.9826565,3.885944,3
30769896351047,-0.0526421,9.006584,3.842873,3
30769898729954,-0.0526421,9.078369,3.7950168,3
30769901108912,-0.076570325,9.107083,3.7998023,3
30769903487818,-0.13399807,9.126225,3.790231,3
30769905866777,-0.19621146,9.135797,3.8141594,3
30769908245683,-0.2727818,9.126225,3.8237305,3
30769910624537,-0.3062813,9.097511,3.8333018,3
30769913003495,-0.3924229,9.092726,3.8476589,3
30769915382454,-0.47377887,9.097511,3.8524444,3
30769917761360,-0.5168497,9.0544405,3.8811584,3
30769920140266,-0.5599205,9.0544405,3.885944,3
30769922519224,-0.6029913,9.049655,3.8955152,3
30769924898131,-0.6269195,9.035298,3.8955152,3
30769927277037,-0.64606214,9.030513,3.8907297,3
30769929655995,-0.66999036,9.040084,3.8763726,3
30769932034902,-0.66999036,9.064013,3.8620157,3
30769934413808,-0.6795616,9.083155,3.8572302,3
30769936792766,-0.66041905,9.116654,3.818945,3
30769939171672,-0.6269195,9.12144,3.790231,3
30769941550579,-0.57427746,9.140582,3.7758741,3
30769943929537,-0.5455636,9.145369,3.7663028,3
30769946308443,-0.47856453,9.140582,3.751946,3
30769948687349,-0.42592242,9.164511,3.7471602,3
30769951066308,-0.38285163,9.150154,3.751946,3
30769953445214,-0.34456646,9.12144,3.7710886,3
30769955824120,-0.33020952,9.145369,3.7854455,3
30769958203079,-0.32063824,9.111869,3.8093736,3
30769960581985,-0.37328035,9.08794,3.842873,3
30769962960891,-0.4211368,9.092726,3.8333018,3
30769965339849,-0.46899325,9.102298,3.8285162,3
30769967719277,-0.53599226,9.111869,3.8285162,3
30769970097662,-0.5982057,9.102298,3.8620157,3
30769972476620,-0.6364908,9.107083,3.842873,3
30769974855527,-0.65084773,9.12144,3.8093736,3
30769977234433,-0.70348984,9.097511,3.7950168,3
30769979613391,-0.6987042,9.111869,3.804588,3
30769981992245,-0.6939186,9.12144,3.7998023,3
30769984371204,-0.6412765,9.116654,3.7710886,3
30769986750110,-0.65084773,9.116654,3.7567315,3
30769989129068,-0.60777694,9.116654,3.7758741,3
30769991507974,-0.61734825,9.12144,3.7758741,3
30769993886829,-0.55513483,9.107083,3.804588,3
30769996265839,-0.526421,9.111869,3.790231,3
30769998644745,-0.46899325,9.131011,3.804588,3
30770001023652,-0.43070808,9.107083,3.804588,3
30770003402610,-0.37328035,9.116654,3.8093736,3
30770005781516,-0.33499518,9.097511,3.7998023,3
30770008160422,-0.27756742,9.08794,3.7998023,3
30770010539381,-0.23449662,9.08794,3.8285162,3
30770012918287,-0.19142582,9.078369,3.8285162,3
30770015297193,-0.18185452,9.078369,3.818945,3
30770017676152,-0.17228323,9.068798,3.8237305,3
30770020055058,-0.17706887,9.073584,3.8141594,3
30770022433964,-0.2105684,9.073584,3.818945,3
30770024812922,-0.23449662,9.078369,3.804588,3
30770027191829,-0.26799613,9.08794,3.8093736,3
30770029570735,-0.31106696,9.083155,3.8141594,3
30770031949693,-0.37806597,9.083155,3.8285162,3
30770034328599,-0.42592242,9.078369,3.8285162,3
30770036707506,-0.44985065,9.083155,3.842873,3
30770039086464,-0.4881358,9.08794,3.8524444,3
30770041465370,-0.5024927,9.068798,3.842873,3
30770043844277,-0.5024927,9.059227,3.8620157,3
30770046223235,-0.49292147,9.064013,3.8763726,3
30770048602141,-0.4833502,9.064013,3.8811584,3
30770050981047,-0.46899325,9.049655,3.8955152,3
30770053360006,-0.4354937,9.025727,3.9050865,3
30770055738860,-0.40677986,9.025727,3.885944,3
30770058117818,-0.3684947,9.025727,3.885944,3
30770060496777,-0.33499518,9.01137,3.8763726,3
30770062875683,-0.33020952,9.049655,3.8763726,3
30770065254589,-0.31585258,9.044869,3.8763726,3
30770067633547,-0.28713873,9.064013,3.8572302,3
30770070012454,-0.30149564,9.064013,3.871587,3
30770072391308,-0.31585258,9.064013,3.871587,3
30770074770266,-0.35413775,9.059227,3.8763726,3
30770077149224,-0.40677986,9.083155,3.900301,3
30770079528131,-0.42592242,9.073584,3.9290147,3
30770081907037,-0.4546363,9.064013,3.9242291,3
30770084285995,-0.49292147,9.044869,3.9194436,3
30770086664902,-0.526421,9.030513,3.9338005,3
30770089043808,-0.5407779,9.049655,3.9338005,3
30770091422766,-0.55513483,9.025727,3.9625144,3
30770093801672,-0.5838487,9.020942,3.9577286,3
30770096180631,-0.5886344,9.035298,3.9577286,3
30770098559537,-0.5838487,9.030513,3.938586,3
30770100938443,-0.55513483,9.020942,3.9242291,3
30770103317349,-0.5407779,9.016156,3.9338005,3
30770105696308,-0.4881358,9.030513,3.9338005,3
30770108075162,-0.44985065,9.01137,3.9194436,3
30770110454120,-0.41156548,8.997013,3.9433718,3
30770112833079,-0.39720857,9.016156,3.9242291,3
30770115211985,-0.34456646,9.006584,3.9290147,3
30770117590891,-0.32063824,9.001799,3.9338005,3
30770119969849,-0.29192436,9.01137,3.9290147,3
30770122348756,-0.26799613,8.997013,3.9194436,3
30770124727662,-0.2536392,8.992228,3.9146578,3
30770127106620,-0.27756742,8.973084,3.9098723,3
30770129485527,-0.28713873,8.987442,3.938586,3
30770131864433,-0.31585258,8.997013,3.938586,3
30770134243391,-0.3589234,9.001799,3.9673,3
30770136622297,-0.38763726,9.016156,3.9768713,3
30770139001204,-0.43070808,9.025727,3.9768713,3
30770141380162,-0.44506502,9.035298,3.9768713,3
30770143759068,-0.47856453,9.035298,3.9673,3
30770146137974,-0.4881358,9.035298,3.9673,3
30770148516881,-0.49292147,9.01137,3.9673,3
30770150895839,-0.4833502,9.020942,3.9577286,3
30770153274745,-0.45942193,9.049655,3.952943,3
30770155653704,-0.45942193,9.0544405,3.9433718,3
30770158032610,-0.47856453,9.020942,3.9481573,3
30770160411516,-0.47856453,9.020942,3.9625144,3
30770162790474,-0.47856453,9.035298,3.952943,3
30770165169381,-0.46899325,9.025727,3.9577286,3
30770167548287,-0.45942193,9.025727,3.9481573,3
30770169927193,-0.44985065,9.01137,3.9673,3
30770172306152,-0.43070808,9.016156,3.9720855,3
30770174685058,-0.4211368,9.006584,3.952943,3
30770177063912,-0.41635114,8.992228,3.952943,3
30770179442922,-0.39720857,9.006584,3.9577286,3
30770181821829,-0.40677986,9.025727,3.938586,3
30770184200787,-0.3924229,9.016156,3.9433718,3
30770186579693,-0.37806597,9.016156,3.9433718,3
30770188958599,-0.39720857,9.030513,3.9433718,3
30770191337506,-0.39720857,9.044869,3.9338005,3
30770193716464,-0.4019942,9.049655,3.9481573,3
30770196095370,-0.40677986,9.040084,3.9481573,3
30770198474277,-0.4211368,9.073584,3.9433718,3
30770200853235,-0.44027936,9.064013,3.938586,3
30770203232141,-0.44027936,9.078369,3.9338005,3
30770205611047,-0.44985065,9.08794,3.952943,3
30770207990006,-0.44985065,9.08794,3.9481573,3
30770210368912,-0.44506502,9.073584,3.952943,3
30770212747818,-0.44506502,9.064013,3.9673,3
30770215126777,-0.44985065,9.078369,3.9720855,3
30770217505683,-0.41156548,9.078369,3.952943,3
30770219884589,-0.41156548,9.083155,3.9338005,3
30770222263547,-0.4019942,9.078369,3.9242291,3
30770224642454,-0.37328035,9.059227,3.9194436,3
30770227021360,-0.35413775,9.049655,3.9242291,3
30770229400318,-0.3684947,9.068798,3.9290147,3
30770231779224,-0.37328035,9.0544405,3.9242291,3
30770234158131,-0.4019942,9.030513,3.8763726,3
30770236537089,-0.4211368,9.059227,3.842873,3
30770238915995,-0.4642076,9.064013,3.8524444,3
30770241294902,-0.53599226,9.030513,3.9098723,3
30770243673860,-0.6029913,9.025727,3.9768713,3
30770246052766,-0.63170516,9.006584,4.0007997,3
30770248431672,-0.6364908,9.016156,3.9625144,3
30770250810631,-0.65084773,9.016156,3.8811584,3
30770253189537,-0.5982057,9.040084,3.8333018,3
30770255568443,-0.55513483,9.020942,3.8476589,3
30770257947402,-0.47856453,9.044869,3.885944,3
30770260326308,-0.44027936,9.044869,3.9290147,3
30770262705214,-0.3589234,9.040084,3.9625144,3
30770265084172,-0.2727818,9.0544405,3.9481573,3
30770267463079,-0.2105684,9.0544405,3.885944,3
30770269841985,-0.13878371,9.049655,3.8572302,3
30770272220943,-0.076570325,9.049655,3.8620157,3
30770274599849,-0.05742774,9.044869,3.8955152,3
30770276978756,-0.038285162,9.044869,3.938586,3
30770279357714,-0.0047856453,9.059227,3.9625144,3
30770281736620,-0.009571291,9.0544405,3.9433718,3
30770284115527,-0.019142581,9.068798,3.900301,3
30770286494485,-0.062213387,9.078369,3.8763726,3
30770288873391,-0.15314065,9.064013,3.8668015,3
30770291252297,-0.2536392,9.068798,3.8907297,3
30770293631204,-0.3493521,9.064013,3.9481573,3
30770296010162,-0.41635114,9.049655,4.0007997,3
30770298389068,-0.5072784,9.059227,4.005585,3
30770300767974,-0.5599205,9.059227,3.9673,3
30770303146933,-0.6125626,9.078369,3.9433718,3
30770305525839,-0.61734825,9.073584,3.9338005,3
30770307904745,-0.6221339,9.049655,3.9481573,3
30770310283704,-0.5599205,9.025727,3.9768713,3
30770312662610,-0.52163535,9.0544405,4.0007997,3
30770315041516,-0.44506502,9.059227,3.9816568,3
30770317420474,-0.3684947,9.044869,3.9768713,3
30770319799381,-0.3062813,9.025727,3.9338005,3
30770322178287,-0.23449662,9.035298,3.8907297,3
30770324557245,-0.15314065,9.040084,3.9146578,3
30770326936152,-0.06699903,9.016156,3.938586,3
30770329315058,-0.0047856453,9.006584,3.952943,3
30770331694016,0.019142581,8.992228,3.9673,3
30770334072922,0.014356935,8.9826565,3.952943,3
30770336451829,-0.014356935,9.01137,3.9433718,3
30770338830787,-0.047856454,8.997013,3.9433718,3
30770341209693,-0.10049855,8.9826565,3.952943,3
30770343588599,-0.13399807,8.997013,3.9816568,3
30770345967558,-0.2105684,9.006584,3.9960139,3
30770348346464,-0.29192436,9.006584,3.9625144,3
30770350725370,-0.3589234,8.973084,3.9673,3
30770353104329,-0.40677986,9.006584,3.9577286,3
30770355483235,-0.44985065,9.016156,3.9625144,3
30770357862141,-0.49292147,9.030513,3.9673,3
30770360241099,-0.47856453,9.030513,3.9864426,3
30770362620006,-0.46899325,9.025727,4.0007997,3
30770364998912,-0.44506502,9.049655,3.9720855,3
30770367377870,-0.38763726,9.064013,3.9433718,3
30770369756777,-0.36370903,9.030513,3.9290147,3
30770372135683,-0.31106696,9.020942,3.9338005,3
30770374514641,-0.29192436,9.030513,3.952943,3
30770376893547,-0.25842485,9.020942,3.9816568,3
30770379272454,-0.18664017,9.020942,3.9816568,3
30770381651412,-0.16271193,9.030513,3.9720855,3
30770384030318,-0.11006984,9.025727,3.9577286,3
30770386409224,-0.11006984,9.01137,3.9338005,3
30770388788183,-0.09092726,9.016156,3.9242291,3
30770391167089,-0.11964113,9.006584,3.9433718,3
30770393545995,-0.13399807,9.006584,3.9673,3
30770395924954,-0.15314065,9.025727,3.9433718,3
30770398303860,-0.20578274,9.059227,3.9481573,3
30770400682766,-0.22013968,9.0544405,3.938586,3
30770403061724,-0.2440679,9.040084,3.9433718,3
30770405440631,-0.29192436,9.064013,3.9481573,3
30770407819537,-0.3062813,9.073584,3.9433718,3
30770410198443,-0.32063824,9.068798,3.938586,3
30770412577402,-0.3493521,9.064013,3.9290147,3
30770414956308,-0.34456646,9.078369,3.938586,3
30770417335266,-0.33020952,9.059227,3.9194436,3
30770419714172,-0.32542387,9.059227,3.9098723,3
30770422093079,-0.3062813,9.059227,3.9194436,3
30770424472037,-0.28713873,9.059227,3.9290147,3
30770426850943,-0.2632105,9.059227,3.938586,3
30770429229849,-0.22492532,9.035298,3.9290147,3
30770431608756,-0.22971097,9.0544405,3.9242291,3
30770433987662,-0.21535404,9.064013,3.9146578,3
30770436366620,-0.17228323,9.078369,3.9098723,3
30770438745527,-0.13878371,9.083155,3.8907297,3
30770441124485,-0.12921242,9.092726,3.900301,3
30770443503391,-0.11964113,9.083155,3.9050865,3
30770445882297,-0.11964113,9.078369,3.8955152,3
30770448261256,-0.1052842,9.08794,3.8907297,3
30770450640162,-0.14356937,9.064013,3.8907297,3
30770453019068,-0.18664017,9.073584,3.8763726,3
30770455398027,-0.22013968,9.064013,3.9050865,3
30770457776933,-0.24885355,9.064013,3.9098723,3
30770460155839,-0.30149564,9.073584,3.8955152,3
30770462534797,-0.35413775,9.078369,3.885944,3
30770464913704,-0.39720857,9.097511,3.885944,3
30770467292610,-0.41156548,9.092726,3.8763726,3
30770469671568,-0.44506502,9.078369,3.885944,3
30770472050474,-0.47856453,9.078369,3.8668015,3
30770474429381,-0.47856453,9.0544405,3.8524444,3
30770476808339,-0.4642076,9.068798,3.8811584,3
30770479187245,-0.4019942,9.068798,3.8907297,3
30770481566152,-0.36370903,9.078369,3.8763726,3
30770483945110,-0.35413775,9.068798,3.8668015,3
30770486324016,-0.3062813,9.068798,3.8380876,3
30770488702922,-0.2632105,9.083155,3.8380876,3
30770491081881,-0.21535404,9.078369,3.842873,3
30770493460787,-0.17228323,9.083155,3.8476589,3
30770495839693,-0.14356937,9.073584,3.8237305,3
30770498218652,-0.11006984,9.078369,3.8285162,3
30770500597558,-0.08135597,9.083155,3.8285162,3
30770502976464,-0.09092726,9.092726,3.8380876,3
30770505355422,-0.09571291,9.08794,3.8333018,3
30770507734329,-0.13878371,9.078369,3.8333018,3
30770510113235,-0.15314065,9.092726,3.8572302,3
30770512492193,-0.15314065,9.111869,3.871587,3
30770514871099,-0.15792629,9.111869,3.8668015,3
30770517250006,-0.18664017,9.116654,3.8524444,3
30770519628964,-0.22492532,9.111869,3.842873,3
30770522007870,-0.2536392,9.135797,3.8476589,3
30770524386777,-0.24885355,9.107083,3.8476589,3
30770526765735,-0.2440679,9.111869,3.8524444,3
30770529144641,-0.2632105,9.097511,3.8524444,3
30770531523547,-0.23449662,9.083155,3.8524444,3
30770533902506,-0.23449662,9.08794,3.842873,3
30770536281412,-0.21535404,9.064013,3.8476589,3
30770538660318,-0.20578274,9.078369,3.8572302,3
30770541039277,-0.18185452,9.073584,3.842873,3
30770543418183,-0.18185452,9.073584,3.8524444,3
30770545797089,-0.18664017,9.0544405,3.8572302,3
30770548176047,-0.19142582,9.030513,3.8668015,3
30770550554954,-0.20578274,9.040084,3.8763726,3
30770552933808,-0.22013968,9.059227,3.8907297,3
30770555312818,-0.18664017,9.068798,3.8811584,3
30770557691724,-0.21535404,9.078369,3.8668015,3
30770560070631,-0.22013968,9.078369,3.885944,3
30770562449589,-0.2440679,9.0544405,3.8955152,3
30770564828443,-0.2536392,9.078369,3.8811584,3
30770567207402,-0.24885355,9.068798,3.8955152,3
30770569586360,-0.25842485,9.059227,3.8811584,3
30770571965266,-0.27756742,9.059227,3.8955152,3
30770574344172,-0.28235307,9.064013,3.9146578,3
30770576723131,-0.26799613,9.059227,3.8955152,3
30770579102037,-0.24885355,9.040084,3.9146578,3
30770581480943,-0.2440679,9.064013,3.9194436,3
30770583859902,-0.2536392,9.064013,3.9098723,3
30770586238808,-0.26799613,9.0544405,3.9194436,3
30770588617714,-0.2536392,9.044869,3.9098723,3
30770590996672,-0.23928227,9.0544405,3.9194436,3
30770593375579,-0.2632105,9.025727,3.938586,3
30770595754485,-0.29671,9.016156,3.9433718,3
30770598133443,-0.3062813,9.030513,3.9433718,3
30770600512349,-0.30149564,9.025727,3.9481573,3
30770602891256,-0.31106696,9.044869,3.9481573,3
30770605270214,-0.3062813,9.030513,3.9481573,3
30770607649120,-0.31106696,9.035298,3.9577286,3
30770610028027,-0.33499518,9.0544405,3.952943,3
30770612406985,-0.33020952,9.059227,3.9481573,3
30770614785891,-0.3062813,9.068798,3.9433718,3
30770617164797,-0.29671,9.044869,3.9338005,3
30770619543756,-0.27756742,9.025727,3.9481573,3
30770621922662,-0.28235307,9.006584,3.9577286,3
30770624301568,-0.27756742,9.035298,3.952943,3
30770626680527,-0.26799613,9.049655,3.9673,3
30770629059433,-0.25842485,9.035298,3.9720855,3
30770631438339,-0.2536392,9.01137,3.9577286,3
30770633817297,-0.25842485,9.006584,3.9720855,3
30770636196204,-0.22971097,9.025727,3.9768713,3
30770638575110,-0.24885355,9.025727,3.9768713,3
30770640954068,-0.24885355,9.016156,3.9625144,3
30770643332974,-0.2536392,9.001799,3.9768713,3
30770645711881,-0.24885355,9.016156,3.9481573,3
30770648090839,-0.24885355,9.030513,3.952943,3
30770650469745,-0.2727818,9.020942,3.9720855,3
30770652848652,-0.28713873,9.025727,3.9816568,3
30770655227610,-0.28235307,9.016156,3.9720855,3
30770657606516,-0.26799613,9.020942,3.952943,3
30770659985422,-0.27756742,9.020942,3.9577286,3
30770662364381,-0.29192436,9.040084,3.9673,3
30770664743287,-0.3062813,9.044869,3.991228,3
30770667122193,-0.31106696,9.044869,3.9816568,3
30770669501152,-0.29671,9.035298,3.9864426,3
30770671880058,-0.31585258,9.025727,3.9960139,3
30770674258964,-0.29671,9.01137,3.9864426,3
30770676637922,-0.3062813,8.987442,3.991228,3
30770679016829,-0.31106696,8.997013,3.9864426,3
30770681395735,-0.29192436,9.001799,3.9768713,3
30770683774693,-0.26799613,9.006584,3.9864426,3
30770686153599,-0.2727818,9.016156,3.9960139,3
30770688532506,-0.2536392,9.025727,3.9720855,3
30770690911464,-0.19142582,9.020942,3.9673,3
30770693290370,-0.17228323,9.030513,3.9673,3
30770695669277,-0.16271193,9.035298,3.991228,3
30770698048235,-0.13399807,9.035298,4.0007997,3
30770700427141,-0.11485548,9.025727,3.9768713,3
30770702806047,-0.08135597,9.020942,3.9673,3
30770705185006,-0.07178468,9.006584,3.9673,3
30770707563912,-0.07178468,9.006584,3.9625144,3
30770709942818,-0.08135597,9.025727,3.952943,3
30770712321777,-0.10049855,9.016156,3.9673,3
30770714700683,-0.1052842,9.030513,3.952943,3
30770717079589,-0.14356937,9.035298,3.952943,3
30770719458495,-0.15314065,9.001799,3.952943,3
30770721837454,-0.21535404,8.997013,3.9433718,3
30770724216360,-0.2440679,9.006584,3.9338005,3
30770726595318,-0.2536392,9.044869,3.9338005,3
30770728974224,-0.13399807,9.145369,3.8763726,3
30770731353027,0.0047856453,8.9826565,3.7854455,3
30770733732089,-0.033499517,8.963513,3.9577286,3
30770736110995,-0.13399807,9.078369,4.0534415,3
30770738489902,-0.19621146,9.068798,4.1204405,3
30770740868860,-0.25842485,8.949157,4.024728,3
30770743247766,-0.36370903,9.08794,3.8907297,3
30770745626672,-0.39720857,9.135797,3.804588,3
30770748005631,-0.44027936,9.049655,3.8285162,3
30770750384537,-0.5024927,9.016156,3.9242291,3
30770752763443,-0.526421,9.08794,4.0438704,3
30770755142402,-0.53599226,9.068798,4.0773697,3
30770757521308,-0.5024927,9.049655,4.034299,3
30770759900214,-0.4642076,9.12144,3.9194436,3
30770762279172,-0.3924229,9.111869,3.8524444,3
30770764658079,-0.31585258,9.064013,3.8572302,3
30770767036985,-0.2632105,9.064013,3.9194436,3
30770769415943,-0.17706887,9.078369,4.0007997,3
30770771794849,-0.1052842,9.035298,4.0151563,3
30770774173756,-0.0526421,9.025727,3.9625144,3
30770776552714,-0.023928227,9.064013,3.885944,3
30770778931620,-0.0047856453,9.049655,3.804588,3
30770781310527,0.02871387,9.040084,3.8093736,3
30770783689485,0.019142581,9.044869,3.8811584,3
30770786068391,-0.019142581,9.049655,3.9625144,3
30770788447297,-0.062213387,9.035298,3.9960139,3
30770790826204,-0.11485548,9.025727,3.9433718,3
30770793205162,-0.18185452,9.035298,3.900301,3
30770795584068,-0.23449662,9.016156,3.8572302,3
30770797962974,-0.3062813,9.006584,3.8668015,3
30770800341933,-0.37328035,9.040084,3.9242291,3
30770802720839,-0.41156548,9.020942,3.9720855,3
30770805099797,-0.45942193,9.020942,3.9864426,3
30770807478704,-0.47377887,9.035298,3.9673,3
30770809857558,-0.47856453,9.049655,3.9290147,3
30770812236568,-0.47856453,9.064013,3.885944,3
30770814615474,-0.44985065,9.044869,3.8955152,3
30770816994381,-0.40677986,9.044869,3.9290147,3
30770819373339,-0.34456646,9.049655,3.9720855,3
30770821752245,-0.25842485,9.044869,3.9768713,3
30770824131152,-0.19621146,9.064013,3.9673,3
30770826510110,-0.13878371,9.059227,3.9290147,3
30770828889016,-0.086141616,9.059227,3.9098723,3
30770831267922,-0.05742774,9.059227,3.8955152,3
30770833646881,-0.009571291,9.064013,3.9194436,3
30770836025787,-0.014356935,9.049655,3.9625144,3
30770838404693,-0.014356935,9.044869,3.9625144,3
30770840783652,-0.019142581,9.059227,3.952943,3
30770843162558,-0.033499517,9.059227,3.9242291,3
30770845541464,-0.09092726,9.059227,3.8955152,3
30770847920422,-0.13878371,9.044869,3.9050865,3
30770850299329,-0.18664017,9.0544405,3.952943,3
30770852678235,-0.23449662,9.040084,3.9720855,3
30770855057193,-0.29671,9.044869,3.9720855,3
30770857436047,-0.33499518,9.030513,3.9577286,3
30770859815006,-0.3684947,9.035298,3.9242291,3
30770862193964,-0.41156548,9.044869,3.9146578,3
30770864572870,-0.41635114,9.049655,3.9242291,3
30770866951777,-0.39720857,9.035298,3.9433718,3
30770869330683,-0.37328035,9.020942,3.9481573,3
30770871709641,-0.32542387,9.040084,3.9433718,3
30770874088547,-0.31585258,9.064013,3.9290147,3
30770876467506,-0.2727818,9.059227,3.9242291,3
30770878846412,-0.20578274,9.068798,3.9146578,3
30770881225318,-0.14356937,9.0544405,3.9050865,3
30770883604277,-0.124426775,9.035298,3.9146578,3
30770885983183,-0.06699903,9.040084,3.938586,3
30770888362089,-0.033499517,9.064013,3.9433718,3
30770890741047,-0.043070808,9.064013,3.9433718,3
30770893119954,-0.038285162,9.059227,3.9098723,3
30770895498860,-0.0526421,9.068798,3.9194436,3
30770897877766,-0.0526421,9.073584,3.9146578,3
30770900256724,-0.086141616,9.044869,3.9098723,3
30770902635631,-0.148355,9.0544405,3.9290147,3
30770905014589,-0.16749759,9.044869,3.9290147,3
30770907393495,-0.22971097,9.040084,3.9194436,3
30770909772402,-0.28235307,9.030513,3.9338005,3
30770912151360,-0.3062813,9.049655,3.9481573,3
30770914530266,-0.33499518,9.059227,3.9194436,3
30770916909172,-0.34456646,9.0544405,3.9146578,3
30770919288079,-0.36370903,9.040084,3.9242291,3
30770921667037,-0.3684947,9.030513,3.938586,3
30770924045943,-0.35413775,9.035298,3.938586,3
30770926424902,-0.33020952,9.0544405,3.9194436,3
30770928803808,-0.3062813,9.0544405,3.9242291,3
30770931182662,-0.2727818,9.0544405,3.9050865,3
30770933561672,-0.23928227,9.044869,3.9146578,3
30770935940579,-0.19621146,9.030513,3.9338005,3
30770938319485,-0.17228323,9.044869,3.9194436,3
30770940698443,-0.14356937,9.059227,3.9050865,3
30770943077349,-0.1052842,9.068798,3.900301,3
30770945456256,-0.1052842,9.049655,3.8955152,3
30770947835214,-0.086141616,9.0544405,3.8907297,3
30770950214120,-0.076570325,9.064013,3.9146578,3
30770952593027,-0.08135597,9.083155,3.9194436,3
30770954971985,-0.10049855,9.073584,3.9194436,3
30770957350891,-0.11485548,9.092726,3.9146578,3
30770959729797,-0.13878371,9.107083,3.9098723,3
30770962108756,-0.17706887,9.08794,3.9194436,3
30770964487662,-0.22013968,9.08794,3.9242291,3
30770966866568,-0.25842485,9.068798,3.900301,3
30770969245527,-0.28713873,9.049655,3.9098723,3
30770971624433,-0.29192436,9.068798,3.9146578,3
30770974003287,-0.29192436,9.092726,3.9194436,3
30770976382297,-0.31585258,9.078369,3.9050865,3
30770978761204,-0.3062813,9.049655,3.9098723,3
30770981140110,-0.3062813,9.059227,3.8907297,3
30770983519068,-0.27756742,9.064013,3.900301,3
30770985897974,-0.2536392,9.049655,3.8955152,3
30770988276881,-0.22013968,9.073584,3.8955152,3
30770990655839,-0.2009971,9.049655,3.8811584,3
30770993034745,-0.18664017,9.035298,3.8811584,3
30770995413652,-0.16271193,9.0544405,3.8763726,3
30770997792610,-0.16749759,9.040084,3.885944,3
30771000171516,-0.16749759,9.035298,3.885944,3
30771002550422,-0.15792629,9.016156,3.8955152,3
30771004929381,-0.17706887,9.035298,3.8955152,3
30771007308287,-0.18664017,9.049655,3.885944,3
30771009687193,-0.18185452,9.068798,3.8811584,3
30771012066152,-0.19621146,9.073584,3.8811584,3
30771014445058,-0.18185452,9.059227,3.885944,3
30771016823964,-0.22013968,9.064013,3.885944,3
30771019202922,-0.23928227,9.049655,3.8811584,3
30771021581829,-0.24885355,9.059227,3.8907297,3
30771023960735,-0.2440679,9.040084,3.8907297,3
30771026339693,-0.2536392,9.059227,3.8763726,3
30771028718599,-0.24885355,9.059227,3.8811584,3
30771031097558,-0.22971097,9.064013,3.8763726,3
30771033476464,-0.2105684,9.078369,3.8811584,3
30771035855370,-0.19621146,9.097511,3.8668015,3
30771038234329,-0.18185452,9.078369,3.871587,3
30771040613235,-0.14356937,9.064013,3.8620157,3
30771042992141,-0.148355,9.049655,3.8668015,3
30771045371047,-0.14356937,9.068798,3.8572302,3
30771047750006,-0.13878371,9.059227,3.8572302,3
30771050128912,-0.13399807,9.068798,3.8572302,3
30771052507870,-0.12921242,9.068798,3.8620157,3
30771054886777,-0.13878371,9.078369,3.8763726,3
30771057265683,-0.148355,9.068798,3.871587,3
30771059644589,-0.16271193,9.092726,3.871587,3
30771062023547,-0.16749759,9.068798,3.8811584,3
30771064402454,-0.19142582,9.064013,3.8955152,3
30771066781360,-0.20578274,9.0544405,3.9050865,3
30771069160318,-0.23449662,9.064013,3.8907297,3
30771071539224,-0.22013968,9.068798,3.8763726,3
30771073918183,-0.25842485,9.064013,3.8763726,3
30771076297089,-0.2727818,9.049655,3.8907297,3
30771078675995,-0.2727818,9.049655,3.9050865,3
30771081054902,-0.28235307,9.059227,3.9146578,3
30771083433860,-0.27756742,9.078369,3.9146578,3
30771085812766,-0.25842485,9.064013,3.900301,3
30771088191724,-0.23449662,9.068798,3.871587,3
30771090570631,-0.22013968,9.073584,3.8811584,3
30771092949537,-0.18185452,9.073584,3.8811584,3
30771095328443,-0.18664017,9.073584,3.871587,3
30771097707402,-0.15792629,9.073584,3.871587,3
30771100086308,-0.15314065,9.073584,3.8763726,3
30771102465266,-0.13878371,9.08794,3.871587,3
30771104844172,-0.124426775,9.078369,3.8572302,3
30771107223079,-0.1052842,9.0544405,3.871587,3
30771109602037,-0.10049855,9.078369,3.8811584,3
30771111980943,-0.076570325,9.0544405,3.900301,3
30771114359849,-0.086141616,9.044869,3.8907297,3
30771116738808,-0.11485548,9.0544405,3.8811584,3
30771119117714,-0.12921242,9.064013,3.885944,3
30771121496620,-0.16271193,9.064013,3.8907297,3
30771123875579,-0.17706887,9.068798,3.8907297,3
30771126254485,-0.18664017,9.073584,3.885944,3
30771128633391,-0.19142582,9.073584,3.8955152,3
30771131012349,-0.19621146,9.102298,3.9050865,3
30771133391256,-0.21535404,9.102298,3.9050865,3
30771135770162,-0.2105684,9.092726,3.8907297,3
30771138149120,-0.22971097,9.068798,3.8907297,3
30771140528027,-0.22971097,9.044869,3.885944,3
30771142906933,-0.2105684,9.044869,3.8955152,3
30771145285839,-0.20578274,9.044869,3.8955152,3
30771147664797,-0.17706887,9.0544405,3.885944,3
30771150043704,-0.18185452,9.064013,3.885944,3
30771152422662,-0.16271193,9.068798,3.8907297,3
30771154801568,-0.14356937,9.064013,3.900301,3
30771157180474,-0.13399807,9.064013,3.9098723,3
30771159559433,-0.124426775,9.044869,3.8907297,3
30771161938339,-0.13399807,9.0544405,3.885944,3
30771164317245,-0.11964113,9.068798,3.900301,3
30771166696204,-0.13399807,9.044869,3.8955152,3
30771169075110,-0.124426775,9.044869,3.8811584,3
30771171454016,-0.13399807,9.035298,3.8955152,3
30771173832974,-0.12921242,9.0544405,3.8955152,3
30771176211881,-0.14356937,9.0544405,3.885944,3
30771178590787,-0.16271193,9.040084,3.8955152,3
30771180969745,-0.18185452,9.049655,3.9098723,3
30771183348652,-0.17228323,9.044869,3.9194436,3
30771185727558,-0.2105684,9.040084,3.9146578,3
30771188106516,-0.22013968,9.040084,3.9146578,3
30771190485422,-0.23449662,9.040084,3.938586,3
30771192864329,-0.2632105,9.0544405,3.9433718,3
30771195243287,-0.27756742,9.0544405,3.952943,3
30771197622193,-0.26799613,9.049655,3.9481573,3
30771200001099,-0.24885355,9.040084,3.9242291,3
30771202380058,-0.21535404,9.040084,3.9433718,3
30771204758964,-0.2105684,9.044869,3.9481573,3
30771207137870,-0.18185452,9.040084,3.9481573,3
30771209516829,-0.18185452,9.040084,3.9290147,3
30771211895735,-0.15314065,9.0544405,3.938586,3
30771214274693,-0.13878371,9.040084,3.9242291,3
30771216653599,-0.13399807,9.030513,3.9338005,3
30771219032506,-0.11485548,9.020942,3.9242291,3
30771221411464,-0.11006984,9.049655,3.9242291,3
30771223790370,-0.13878371,9.049655,3.9098723,3
30771226169277,-0.15314065,9.059227,3.9242291,3
30771228548235,-0.15314065,9.0544405,3.938586,3
30771230927141,-0.16271193,9.064013,3.9481573,3
30771233306047,-0.16271193,9.035298,3.9338005,3
30771235684954,-0.17706887,9.044869,3.9433718,3
30771238063860,-0.18185452,9.040084,3.9338005,3
30771240442766,-0.17706887,9.040084,3.952943,3
30771242821777,-0.2105684,9.044869,3.9433718,3
30771245200683,-0.21535404,9.064013,3.952943,3
30771247579589,-0.21535404,9.078369,3.9481573,3
30771249958547,-0.22492532,9.059227,3.9338005,3
30771252337454,-0.2105684,9.049655,3.9242291,3
30771254716360,-0.22013968,9.059227,3.9338005,3
30771257095318,-0.20578274,9.068798,3.9242291,3
30771259474172,-0.18664017,9.059227,3.9338005,3
30771261853131,-0.18185452,9.064013,3.9338005,3
30771264232089,-0.17228323,9.0544405,3.9433718,3
30771266610995,-0.16749759,9.044869,3.9433718,3
30771268989902,-0.15314065,9.059227,3.9194436,3
30771271368860,-0.13878371,9.049655,3.9194436,3
30771273747766,-0.12921242,9.059227,3.9194436,3
30771276126672,-0.11485548,9.059227,3.9242291,3
30771278505631,-0.11485548,9.059227,3.9194436,3
30771280884537,-0.1052842,9.040084,3.900301,3
30771283263443,-0.11964113,9.030513,3.9098723,3
30771285642402,-0.12921242,9.044869,3.9098723,3
30771288021308,-0.11485548,9.035298,3.9242291,3
30771290400214,-0.124426775,9.049655,3.938586,3
30771292779172,-0.12921242,9.049655,3.9338005,3
30771295158079,-0.16271193,9.044869,3.9146578,3
30771297536985,-0.16271193,9.068798,3.9050865,3
30771299915943,-0.17228323,9.044869,3.8907297,3
30771302294849,-0.16271193,9.059227,3.885944,3
30771304673756,-0.16749759,9.049655,3.885944,3
30771307052714,-0.18185452,9.035298,3.8763726,3
30771309431620,-0.19142582,9.030513,3.8811584,3
30771311810527,-0.19142582,9.044869,3.900301,3
30771314189485,-0.15792629,9.0544405,3.885944,3
30771316568391,-0.16271193,9.059227,3.8955152,3
30771318947297,-0.16271193,9.068798,3.8907297,3
30771321326256,-0.148355,9.059227,3.9098723,3
30771323705162,-0.16749759,9.0544405,3.9194436,3
30771326084120,-0.17228323,9.035298,3.9242291,3
30771328463027,-0.15314065,9.030513,3.9338005,3
30771330841933,-0.15792629,9.049655,3.9194436,3
30771333220891,-0.16749759,9.044869,3.9194436,3
30771335599797,-0.17228323,9.049655,3.9146578,3
30771337978704,-0.17706887,9.040084,3.9242291,3
30771340357662,-0.19621146,9.044869,3.9290147,3
30771342736516,-0.17706887,9.064013,3.9194436,3
30771345115474,-0.17706887,9.073584,3.9338005,3
30771347494433,-0.17228323,9.049655,3.9242291,3
30771349873339,-0.18664017,9.016156,3.9098723,3
30771352252245,-0.17228323,9.0544405,3.8955152,3
30771354631204,-0.15314065,9.0544405,3.8955152,3
30771357010110,-0.17706887,9.059227,3.9194436,3
30771359389016,-0.17706887,9.0544405,3.9194436,3
30771361767974,-0.16749759,9.068798,3.900301,3
30771364146881,-0.15792629,9.083155,3.9146578,3
30771366525787,-0.15314065,9.064013,3.900301,3
30771368904745,-0.10049855,9.064013,3.9050865,3
30771371283652,-0.124426775,9.078369,3.9050865,3
30771373662558,-0.13878371,9.064013,3.8907297,3
30771376041516,-0.14356937,9.059227,3.8955152,3
30771378420422,-0.12921242,9.092726,3.9098723,3
30771380799329,-0.13399807,9.092726,3.885944,3
30771383178287,-0.13399807,9.083155,3.8955152,3
30771385557193,-0.15792629,9.064013,3.9194436,3
30771387936152,-0.14356937,9.078369,3.9098723,3
30771390315058,-0.148355,9.035298,3.900301,3
30771392693964,-0.15314065,9.030513,3.900301,3
30771395072870,-0.16749759,9.049655,3.9098723,3
30771397451829,-0.18664017,9.049655,3.900301,3
30771399830735,-0.18185452,9.059227,3.9146578,3
30771402209641,-0.16749759,9.059227,3.9146578,3
30771404588599,-0.16271193,9.0544405,3.9098723,3
30771406967506,-0.148355,9.059227,3.9098723,3
30771409346412,-0.15314065,9.044869,3.9050865,3
30771411725370,-0.13878371,9.064013,3.9098723,3
30771414104277,-0.16271193,9.064013,3.900301,3
30771416483235,-0.148355,9.049655,3.8955152,3
30771418862141,-0.13878371,9.059227,3.885944,3
30771421241047,-0.11964113,9.064013,3.9050865,3
30771423620006,-0.12921242,9.068798,3.9194436,3
30771425998912,-0.11964113,9.0544405,3.8955152,3
30771428377818,-0.13399807,9.040084,3.8907297,3
30771430756724,-0.11485548,9.030513,3.8907297,3
30771433135683,-0.10049855,9.040084,3.9098723,3
30771435514589,-0.1052842,9.064013,3.9146578,3
30771437893547,-0.148355,9.044869,3.9242291,3
30771440272454,-0.13399807,9.040084,3.9242291,3
30771442651360,-0.16271193,9.030513,3.9146578,3
30771445030266,-0.17706887,9.049655,3.900301,3
30771447409224,-0.16749759,9.016156,3.9050865,3
30771449788131,-0.148355,9.030513,3.8955152,3
30771452167037,-0.2105684,9.049655,3.790231,3
30771454545995,-0.31585258,9.068798,3.7328033,3
30771456924902,-0.45942193,9.040084,3.7663028,3
30771459303860,-0.66999036,9.01137,3.9146578,3
30771461682766,-0.8470592,9.044869,4.058227,3
30771464061672,-0.9619147,9.078369,4.1108694,3
30771466440631,-0.9810573,9.044869,4.0151563,3
30771468819537,-0.9236295,9.078369,3.900301,3
30771471198443,-0.80877405,9.097511,3.8620157,3
30771473577402,-0.6029913,9.073584,3.8524444,3
30771475956308,-0.4019942,9.040084,3.8955152,3
30771478335266,-0.2009971,9.068798,3.9625144,3
30771480714172,0.043070808,9.059227,3.9577286,3
30771483093079,0.26799613,9.030513,3.8811584,3
30771485472037,0.49292147,9.035298,3.8093736,3
30771487850891,0.7178468,9.030513,3.7950168,3
30771490229849,0.8662018,9.049655,3.8093736,3
30771492608808,0.971486,9.030513,3.8572302,3
30771494987714,1.0049855,9.025727,3.9146578,3
30771497366620,0.94277215,9.040084,3.9290147,3
30771499745579,0.7896315,9.064013,3.8907297,3
30771502124485,0.6221339,9.083155,3.8620157,3
30771504503391,0.3924229,9.102298,3.8141594,3
30771506882349,0.14356937,9.083155,3.8380876,3
30771509261256,-0.08135597,9.083155,3.885944,3
30771511640162,-0.26799613,9.111869,3.9338005,3
30771514019120,-0.46899325,9.08794,3.952943,3
30771516398027,-0.57427746,9.097511,3.9481573,3
30771518776933,-0.6125626,9.097511,3.9146578,3
30771521155891,-0.6029913,9.111869,3.8620157,3
30771523534797,-0.57427746,9.107083,3.8572302,3
30771525913704,-0.4977071,9.068798,3.8955152,3
30771528292662,-0.39720857,9.064013,3.9146578,3
30771530671568,-0.26799613,9.035298,3.9290147,3
30771533050474,-0.15314065,9.030513,3.938586,3
30771535429433,-0.038285162,9.049655,3.9194436,3
30771537808339,0.076570325,9.0544405,3.8763726,3
30771540187245,0.14356937,9.0544405,3.8668015,3
30771542566204,0.17228323,9.0544405,3.900301,3
30771544945110,0.18664017,9.040084,3.9098723,3
30771547324016,0.17706887,9.025727,3.9194436,3
30771549702974,0.15792629,9.030513,3.9194436,3
30771552081881,0.10049855,9.035298,3.8955152,3
30771554460787,0.038285162,9.030513,3.9050865,3
30771556839745,-0.047856454,9.035298,3.8955152,3
30771559218652,-0.15792629,9.035298,3.9242291,3
30771561597558,-0.23928227,9.059227,3.9433718,3
30771563976516,-0.31585258,9.064013,3.9481573,3
30771566355422,-0.3684947,9.0544405,3.9290147,3
30771568734381,-0.43070808,9.059227,3.9338005,3
30771571113287,-0.44506502,9.073584,3.9290147,3
30771573492193,-0.4642076,9.078369,3.9433718,3
30771575871152,-0.45942193,9.068798,3.952943,3
30771578250058,-0.44506502,9.059227,3.9481573,3
30771580628964,-0.38763726,9.073584,3.9577286,3
30771583007922,-0.32063824,9.064013,3.9194436,3
30771585386829,-0.22971097,9.068798,3.9146578,3
30771587765683,-0.15314065,9.083155,3.9050865,3
30771590144693,-0.076570325,9.078369,3.8955152,3
30771592523599,0.009571291,9.08794,3.9098723,3
30771594902506,0.09571291,9.059227,3.9146578,3
30771597281464,0.14356937,9.049655,3.9050865,3
30771599660370,0.148355,9.078369,3.900301,3
30771602039277,0.12921242,9.078369,3.8955152,3
30771604418235,0.11964113,9.068798,3.8955152,3
30771606797141,0.06699903,9.073584,3.900301,3
30771609176047,-0.014356935,9.068798,3.885944,3
30771611555006,-0.09092726,9.068798,3.8763726,3
30771613933912,-0.18664017,9.083155,3.8907297,3
30771616312818,-0.24885355,9.064013,3.8811584,3
30771618691777,-0.31585258,9.059227,3.8668015,3
30771621070683,-0.3589234,9.073584,3.8811584,3
30771623449641,-0.4354937,9.097511,3.8811584,3
30771625828547,-0.45942193,9.08794,3.8955152,3
30771628207454,-0.44506502,9.092726,3.8763726,3
30771630586412,-0.40677986,9.078369,3.8668015,3
30771632965318,-0.38763726,9.068798,3.8572302,3
30771635344224,-0.3397808,9.064013,3.8763726,3
30771637723183,-0.22971097,9.068798,3.8620157,3
30771640102089,-0.148355,9.073584,3.8620157,3
30771642480995,-0.06699903,9.078369,3.8763726,3
30771644859954,0.0047856453,9.078369,3.8524444,3
30771647238860,0.07178468,9.078369,3.8524444,3
30771649617766,0.10049855,9.068798,3.8524444,3
30771651996724,0.13399807,9.078369,3.8333018,3
30771654375631,0.148355,9.0544405,3.8524444,3
30771656754537,0.11964113,9.073584,3.8476589,3
30771659133495,0.09092726,9.08794,3.8524444,3
30771661512402,0.014356935,9.08794,3.8620157,3
30771663891308,-0.02871387,9.068798,3.8620157,3
30771666270266,-0.08135597,9.078369,3.8572302,3
30771668649172,-0.15792629,9.083155,3.8572302,3
30771671028079,-0.19142582,9.092726,3.8620157,3
30771673407037,-0.23449662,9.092726,3.8620157,3
30771675785943,-0.26799613,9.097511,3.8620157,3
30771678164849,-0.29192436,9.092726,3.8763726,3
30771680543808,-0.28713873,9.097511,3.8524444,3
30771682922714,-0.24885355,9.08794,3.871587,3
30771685301620,-0.2440679,9.078369,3.8668015,3
30771687680579,-0.19621146,9.08794,3.8572302,3
30771690059485,-0.18185452,9.08794,3.8380876,3
30771692438443,-0.11485548,9.107083,3.8476589,3
30771694817349,-0.086141616,9.08794,3.8380876,3
30771697196256,-0.07178468,9.073584,3.842873,3
30771699575214,-0.043070808,9.092726,3.8524444,3
30771701954120,-0.023928227,9.068798,3.842873,3
30771704333027,-0.043070808,9.073584,3.8476589,3
30771706711985,-0.019142581,9.078369,3.8620157,3
30771709090891,-0.023928227,9.073584,3.8524444,3
30771711469797,-0.033499517,9.064013,3.8572302,3
30771713848756,-0.07178468,9.073584,3.8572302,3
30771716227662,-0.11485548,9.059227,3.8620157,3
30771718606568,-0.11485548,9.064013,3.871587,3
30771720985527,-0.15314065,9.078369,3.8668015,3
30771723364433,-0.19621146,9.068798,3.8668015,3
30771725743339,-0.19621146,9.064013,3.8907297,3
30771728122297,-0.2440679,9.049655,3.8811584,3
30771730501204,-0.24885355,9.040084,3.8907297,3
30771732880110,-0.23928227,9.068798,3.8907297,3
30771735259068,-0.24885355,9.064013,3.885944,3
30771737637974,-0.24885355,9.0544405,3.8955152,3
30771740016933,-0.22013968,9.0544405,3.9098723,3
30771742395839,-0.21535404,9.0544405,3.9242291,3
30771744774745,-0.18185452,9.020942,3.9146578,3
30771747153704,-0.17706887,9.035298,3.9146578,3
30771749532610,-0.17706887,9.035298,3.9194436,3
30771751911516,-0.15792629,9.0544405,3.9194436,3
30771754290474,-0.14356937,9.059227,3.9242291,3
30771756669381,-0.124426775,9.044869,3.9242291,3
30771759048287,-0.1052842,9.025727,3.9290147,3
30771761427245,-0.12921242,9.016156,3.9290147,3
30771763806152,-0.11964113,9.035298,3.9433718,3
30771766185058,-0.13878371,9.044869,3.9242291,3
30771768564016,-0.12921242,9.073584,3.9338005,3
30771770942922,-0.16749759,9.064013,3.9290147,3
30771773321881,-0.18664017,9.0544405,3.9338005,3
30771775700787,-0.20578274,9.049655,3.9290147,3
30771778079693,-0.22971097,9.040084,3.9481573,3
30771780458652,-0.22971097,9.044869,3.9577286,3
30771782837506,-0.23928227,9.0544405,3.9673,3
30771785216464,-0.25842485,9.035298,3.9625144,3
30771787595422,-0.2536392,9.035298,3.9433718,3
30771789974329,-0.2632105,9.040084,3.9433718,3
30771792353235,-0.24885355,9.040084,3.952943,3
30771794732193,-0.19621146,9.030513,3.9433718,3
30771797111099,-0.2009971,9.030513,3.9481573,3
30771799490006,-0.16271193,9.030513,3.9433718,3
30771801868964,-0.14356937,9.030513,3.9433718,3
30771804247870,-0.13399807,9.020942,3.9433718,3
30771806626777,-0.14356937,9.025727,3.9577286,3
30771809005735,-0.11006984,9.035298,3.9768713,3
30771811384641,-0.11006984,9.030513,3.9673,3
30771813763547,-0.11485548,9.025727,3.952943,3
30771816142506,-0.124426775,9.040084,3.9481573,3
30771818521412,-0.124426775,9.0544405,3.9433718,3
30771820900318,-0.13399807,9.068798,3.9577286,3
30771823279277,-0.14356937,9.049655,3.9673,3
30771825658183,-0.13878371,9.035298,3.9720855,3
30771828037089,-0.17228323,9.040084,3.9625144,3
30771830416047,-0.17706887,9.049655,3.9768713,3
30771832794954,-0.22492532,9.044869,3.9673,3
30771835173912,-0.22971097,9.044869,3.9673,3
30771837552818,-0.23928227,9.044869,3.9625144,3
30771839931724,-0.25842485,9.068798,3.9577286,3
30771842310683,-0.23928227,9.049655,3.9481573,3
30771844689589,-0.24885355,9.025727,3.938586,3
30771847068495,-0.22013968,9.030513,3.9481573,3
30771849447454,-0.22492532,9.020942,3.9577286,3
30771851826360,-0.2105684,9.040084,3.952943,3
30771854205266,-0.20578274,9.044869,3.9433718,3
30771856584224,-0.2009971,9.030513,3.938586,3
30771858963131,-0.19142582,9.035298,3.9290147,3
30771861342037,-0.17706887,9.025727,3.9433718,3
30771863720995,-0.16749759,9.044869,3.9481573,3
30771866099902,-0.17706887,9.044869,3.9338005,3
30771868478756,-0.15792629,9.0544405,3.9481573,3
30771870857766,-0.16271193,9.049655,3.9433718,3
30771873236672,-0.15314065,9.064013,3.938586,3
30771875615579,-0.15314065,9.073584,3.938586,3
30771877994537,-0.16749759,9.064013,3.9290147,3
30771880373443,-0.16749759,9.0544405,3.9290147,3
30771882752402,-0.16749759,9.059227,3.938586,3
30771885131256,-0.1052842,9.049655,3.9290147,3
30771887510214,-0.062213387,9.044869,3.9146578,3
30771889889172,-0.038285162,9.020942,3.9098723,3
30771892268079,-0.02871387,9.049655,3.9098723,3
30771894646985,-0.05742774,9.040084,3.9194436,3
30771897025943,-0.1052842,9.035298,3.938586,3
30771899404849,-0.11964113,9.030513,3.9338005,3
30771901783756,-0.13399807,9.040084,3.9290147,3
30771904162714,-0.15792629,9.040084,3.9290147,3
30771906541620,-0.16749759,9.049655,3.9194436,3
30771908920527,-0.19621146,9.049655,3.900301,3
30771911299485,-0.22013968,9.044869,3.900301,3
30771913678391,-0.22492532,9.025727,3.9242291,3
30771916057297,-0.22492532,9.040084,3.9194436,3
30771918436256,-0.23928227,9.040084,3.9242291,3
30771920815162,-0.23449662,9.049655,3.9050865,3
30771923194068,-0.18664017,9.059227,3.900301,3
30771925573027,-0.15314065,9.064013,3.9050865,3
30771927951933,-0.148355,9.044869,3.9050865,3
30771930330891,-0.124426775,9.040084,3.8955152,3
30771932709797,-0.09092726,9.044869,3.9050865,3
30771935088704,-0.07178468,9.049655,3.9050865,3
30771937467662,-0.043070808,9.059227,3.9194436,3
30771939846568,-0.062213387,9.059227,3.9146578,3
30771942225474,-0.09092726,9.059227,3.9146578,3
30771944604433,-0.09092726,9.073584,3.9098723,3
30771946983339,-0.086141616,9.064013,3.9242291,3
30771949362245,-0.09571291,9.064013,3.9194436,3
30771951741204,-0.11964113,9.0544405,3.9098723,3
30771954120110,-0.124426775,9.059227,3.9242291,3
30771956499016,-0.15314065,9.059227,3.9098723,3
30771958877974,-0.148355,9.035298,3.9242291,3
30771961256881,-0.17228323,9.049655,3.9098723,3
30771963635787,-0.18185452,9.040084,3.9098723,3
30771966014745,-0.18664017,9.044869,3.9146578,3
30771968393652,-0.17706887,9.059227,3.9194436,3
30771970772610,-0.18185452,9.035298,3.9050865,3
30771973151516,-0.17706887,9.035298,3.8955152,3
30771975530422,-0.19142582,9.0544405,3.9050865,3
30771977909381,-0.17706887,9.049655,3.9050865,3
30771980288287,-0.15314065,9.040084,3.8955152,3
30771982667193,-0.148355,9.049655,3.900301,3
30771985046152,-0.16749759,9.035298,3.9050865,3
30771987425058,-0.18185452,9.049655,3.9242291,3
30771989803964,-0.15314065,9.059227,3.9050865,3
30771992182922,-0.16749759,9.0544405,3.8907297,3
30771994561829,-0.14356937,9.049655,3.8955152,3
30771996940735,-0.12921242,9.0544405,3.900301,3
30771999319693,-0.12921242,9.049655,3.885944,3
30772001698599,-0.11006984,9.020942,3.8955152,3
30772004077506,-0.11006984,9.035298,3.8955152,3
30772006456464,-0.06699903,9.059227,3.9098723,3
30772008835370,-0.05742774,9.073584,3.900301,3
30772011214329,-0.047856454,9.068798,3.9146578,3
30772013593235,-0.06699903,9.040084,3.8811584,3
30772015972141,-0.09571291,9.025727,3.9050865,3
30772018351099,-0.09092726,9.030513,3.8955152,3
30772020730006,-0.1052842,9.049655,3.9146578,3
30772023108912,-0.124426775,9.030513,3.9050865,3
30772025487870,-0.124426775,9.035298,3.8955152,3
30772027866777,-0.15314065,9.064013,3.9050865,3
30772030245683,-0.14356937,9.068798,3.9098723,3
30772032624641,-0.148355,9.059227,3.8955152,3
30772035003547,-0.16749759,9.064013,3.8907297,3
30772037382454,-0.16271193,9.049655,3.900301,3
30772039761412,-0.15792629,9.049655,3.885944,3
30772042140318,-0.15792629,9.059227,3.871587,3
30772044519224,-0.13878371,9.083155,3.8763726,3
30772046898183,-0.148355,9.064013,3.8955152,3
30772049277089,-0.11485548,9.044869,3.9050865,3
30772051656047,-0.11964113,9.044869,3.900301,3
30772054034954,-0.11964113,9.059227,3.885944,3
30772056413860,-0.13399807,9.073584,3.8907297,3
30772058792818,-0.14356937,9.064013,3.885944,3
30772061171724,-0.15314065,9.0544405,3.900301,3
30772063550631,-0.13399807,9.059227,3.8955152,3
30772065929537,-0.16271193,9.064013,3.8811584,3
30772068308495,-0.16271193,9.073584,3.9050865,3
30772070687402,-0.15314065,9.064013,3.9050865,3
30772073066360,-0.15314065,9.049655,3.9050865,3
30772075445266,-0.16749759,9.068798,3.8811584,3
30772077824224,-0.18185452,9.044869,3.8763726,3
30772080203131,-0.18664017,9.035298,3.8763726,3
30772082582037,-0.19142582,9.068798,3.8955152,3
30772084960943,-0.16749759,9.083155,3.9050865,3
30772087339902,-0.17228323,9.073584,3.900301,3
30772089718808,-0.16749759,9.073584,3.8955152,3
30772092097766,-0.17228323,9.107083,3.9050865,3
30772094476672,-0.19621146,9.126225,3.9050865,3
30772096855579,-0.17228323,9.111869,3.9050865,3
30772099234537,-0.15792629,9.097511,3.885944,3
30772101613443,-0.13399807,9.078369,3.871587,3
30772103992349,-0.11006984,9.078369,3.8572302,3
30772106371308,-0.09092726,9.073584,3.8524444,3
30772108750214,-0.08135597,9.08794,3.8524444,3
30772111129120,-0.0526421,9.083155,3.8380876,3
30772113508027,-0.02871387,9.078369,3.842873,3
30772115886985,-0.023928227,9.078369,3.8524444,3
30772118265943,-0.038285162,9.092726,3.8763726,3
30772120644849,-0.047856454,9.097511,3.8811584,3
30772123023756,-0.07178468,9.092726,3.8668015,3
30772125402714,-0.08135597,9.073584,3.842873,3
30772127781568,-0.09571291,9.073584,3.8333018,3
30772130160527,-0.10049855,9.068798,3.8476589,3
30772132539485,-0.13878371,9.073584,3.8572302,3
30772134918391,-0.148355,9.068798,3.8572302,3
30772137297297,-0.17228323,9.0544405,3.8380876,3
30772139676256,-0.20578274,9.073584,3.8333018,3
30772142055162,-0.20578274,9.107083,3.8380876,3
30772144434068,-0.2105684,9.08794,3.8476589,3
30772146813027,-0.22971097,9.08794,3.8333018,3
30772149191933,-0.20578274,9.083155,3.8285162,3
30772151570891,-0.2009971,9.078369,3.818945,3
30772153949797,-0.19621146,9.073584,3.8285162,3
30772156328704,-0.15314065,9.0544405,3.8380876,3
30772158707610,-0.12921242,9.083155,3.8380876,3
30772161086568,-0.12921242,9.078369,3.8237305,3
30772163465474,-0.09571291,9.08794,3.818945,3
30772165844433,-0.06699903,9.08794,3.842873,3
30772168223339,-0.07178468,9.064013,3.8572302,3
30772170602245,-0.06699903,9.068798,3.8620157,3
30772172981204,-0.047856454,9.08794,3.8572302,3
30772175360110,-0.07178468,9.068798,3.8668015,3
30772177739016,-0.09571291,9.064013,3.8620157,3
30772180117922,-0.13399807,9.083155,3.8524444,3
30772182496881,-0.15792629,9.064013,3.8668015,3
30772184875839,-0.18185452,9.0544405,3.8572302,3
30772187254745,-0.17706887,9.064013,3.8620157,3
30772189633652,-0.2105684,9.068798,3.871587,3
30772192012610,-0.23928227,9.064013,3.8763726,3
30772194391516,-0.2632105,9.059227,3.8668015,3
30772196770422,-0.2632105,9.059227,3.8572302,3
30772199149381,-0.2536392,9.049655,3.8524444,3
30772201528287,-0.2440679,9.044869,3.8763726,3
30772203907193,-0.23928227,9.068798,3.8811584,3
30772206286152,-0.2009971,9.059227,3.8763726,3
30772208665058,-0.19621146,9.083155,3.885944,3
30772211043964,-0.16271193,9.064013,3.8811584,3
30772213422922,-0.17228323,9.08794,3.871587,3
30772215801829,-0.15314065,9.083155,3.8907297,3
30772218180735,-0.12921242,9.083155,3.9050865,3
30772220559693,-0.11006984,9.078369,3.900301,3
30772222938599,-0.09092726,9.0544405,3.9242291,3
30772225317558,-0.09571291,9.049655,3.9242291,3
30772227696464,-0.09571291,9.040084,3.9242291,3
30772230075370,-0.11485548,9.049655,3.9242291,3
30772232454329,-0.09571291,9.073584,3.9290147,3
30772234833235,-0.11964113,9.064013,3.9290147,3
30772237212141,-0.124426775,9.064013,3.9242291,3
30772239591099,-0.13878371,9.040084,3.9194436,3
30772241970006,-0.15792629,9.035298,3.9338005,3
30772244348912,-0.148355,9.040084,3.9290147,3
30772246727870,-0.15314065,9.044869,3.9098723,3
30772249106777,-0.13878371,9.064013,3.9050865,3
30772251485683,-0.17228323,9.049655,3.9194436,3
30772253864641,-0.18664017,9.030513,3.9242291,3
30772256243547,-0.15792629,9.030513,3.9242291,3
30772258622506,-0.16749759,9.025727,3.9242291,3
30772261001412,-0.14356937,9.025727,3.9338005,3
30772263380318,-0.15314065,9.049655,3.9338005,3
30772265759277,-0.124426775,9.064013,3.938586,3
30772268138183,-0.12921242,9.049655,3.9338005,3
30772270517089,-0.148355,9.044869,3.938586,3
30772272896047,-0.148355,9.040084,3.9433718,3
30772275274954,-0.13878371,9.049655,3.9577286,3
30772277653860,-0.11485548,9.049655,3.9481573,3
30772280032818,-0.124426775,9.040084,3.9433718,3
30772282411724,-0.10049855,9.044869,3.938586,3
30772284790683,-0.09571291,9.030513,3.952943,3
30772287169589,-0.10049855,9.030513,3.9625144,3
30772289548495,-0.10049855,9.020942,3.9433718,3
30772291927454,-0.14356937,9.016156,3.9577286,3
30772294306360,-0.16271193,9.016156,3.9577286,3
30772296685266,-0.148355,9.020942,3.9577286,3
30772299064224,-0.148355,9.025727,3.9577286,3
30772301443131,-0.16749759,9.020942,3.9338005,3
30772303822037,-0.18185452,9.049655,3.9720855,3
30772306200995,-0.2105684,9.035298,3.952943,3
30772308579902,-0.2105684,9.025727,3.9481573,3
30772310958808,-0.19142582,9.030513,3.9338005,3
30772313337766,-0.22971097,9.049655,3.9577286,3
30772315716360,-0.22492532,9.025727,3.9577286,3
30772318095631,-0.19621146,9.040084,3.9768713,3
30772320474537,-0.17706887,9.040084,3.9577286,3
30772322853443,-0.2009971,9.068798,3.9577286,3
30772325232402,-0.17228323,9.040084,3.9625144,3
30772327611308,-0.148355,9.049655,3.9338005,3
30772329990214,-0.14356937,9.044869,3.9290147,3
30772332369172,-0.15314065,9.030513,3.9433718,3
30772334748079,-0.15792629,9.040084,3.952943,3
30772337126985,-0.15792629,9.030513,3.9338005,3
30772339505943,-0.15314065,9.035298,3.952943,3
30772341884849,-0.16271193,9.030513,3.952943,3
30772344263808,-0.17228323,9.049655,3.9577286,3
30772346642714,-0.19142582,9.025727,3.938586,3
30772349021620,-0.2105684,9.030513,3.9481573,3
30772351400579,-0.21535404,9.030513,3.9290147,3
30772353779485,-0.22971097,9.030513,3.9481573,3
30772356158391,-0.23928227,9.025727,3.9433718,3
30772358537349,-0.2632105,9.020942,3.9577286,3
30772360916256,-0.27756742,9.030513,3.9338005,3
30772363295162,-0.2632105,9.035298,3.9338005,3
30772365674120,-0.2440679,9.035298,3.9338005,3
30772368053027,-0.26799613,9.044869,3.938586,3
30772370431933,-0.22013968,9.035298,3.9433718,3
30772372810891,-0.2009971,9.044869,3.938586,3
30772375189797,-0.17706887,9.059227,3.9290147,3
30772377568756,-0.18185452,9.064013,3.9433718,3
30772379947662,-0.18185452,9.059227,3.938586,3
30772382326516,-0.17706887,9.064013,3.9242291,3
30772384705527,-0.17228323,9.073584,3.938586,3
30772387084433,-0.17228323,9.078369,3.9433718,3
30772389463339,-0.16271193,9.073584,3.9577286,3
30772391842297,-0.16749759,9.044869,3.9625144,3
30772394221204,-0.16271193,9.035298,3.9577286,3
30772396600162,-0.17228323,9.049655,3.9338005,3
30772398979068,-0.18185452,9.049655,3.938586,3
30772401357974,-0.19621146,9.025727,3.9481573,3
30772403736933,-0.2009971,9.040084,3.938586,3
30772406115839,-0.2105684,9.044869,3.9433718,3
30772408494745,-0.16271193,9.064013,3.938586,3
30772410873652,-0.16749759,9.068798,3.9338005,3
30772413252610,-0.19621146,9.049655,3.952943,3
30772415631516,-0.2009971,9.040084,3.9338005,3
30772418010474,-0.19142582,9.049655,3.9146578,3
30772420389381,-0.2009971,9.044869,3.9242291,3
30772422768287,-0.19142582,9.049655,3.9194436,3
30772425147245,-0.17228323,9.049655,3.9290147,3
30772427526152,-0.17228323,9.049655,3.9194436,3
30772429905058,-0.13399807,9.025727,3.9146578,3
30772432284016,-0.11964113,9.030513,3.9242291,3
30772434662922,-0.1052842,9.01137,3.9146578,3
30772437041881,-0.13399807,9.025727,3.9146578,3
30772439420787,-0.12921242,9.049655,3.9194436,3
30772441799693,-0.11006984,9.044869,3.9481573,3
30772444178652,-0.12921242,9.035298,3.9577286,3
30772446557558,-0.14356937,9.040084,3.9433718,3
30772448936464,-0.16749759,9.059227,3.9433718,3
30772451315422,-0.18185452,9.0544405,3.9290147,3
30772453694329,-0.18664017,9.059227,3.9194436,3
30772456073235,-0.2105684,9.059227,3.9194436,3
30772458452193,-0.23449662,9.040084,3.938586,3
30772460831099,-0.24885355,9.044869,3.9338005,3
30772463210058,-0.22971097,9.068798,3.9146578,3
30772465588964,-0.22492532,9.092726,3.9194436,3
30772467967870,-0.20578274,9.078369,3.9194436,3
30772470346829,-0.21535404,9.073584,3.9242291,3
30772472725735,-0.2009971,9.092726,3.9290147,3
30772475104641,-0.17706887,9.08794,3.9194436,3
30772477483599,-0.15314065,9.068798,3.9338005,3
30772479862506,-0.13399807,9.068798,3.9290147,3
30772482241412,-0.11485548,9.064013,3.9146578,3
30772484620370,-0.124426775,9.059227,3.900301,3
30772486999277,-0.10049855,9.0544405,3.9146578,3
30772489378235,-0.11006984,9.0544405,3.9242291,3
30772491757141,-0.09092726,9.0544405,3.9098723,3
30772494136047,-0.10049855,9.035298,3.9242291,3
30772496515006,-0.11485548,9.0544405,3.9194436,3
30772498893912,-0.11006984,9.049655,3.9098723,3
30772501272818,-0.13878371,9.0544405,3.9098723,3
30772503651777,-0.16271193,9.059227,3.9050865,3
30772506030683,-0.2105684,9.044869,3.9194436,3
30772508409589,-0.2105684,9.040084,3.9194436,3
30772510788495,-0.20578274,9.044869,3.9050865,3
30772513167454,-0.20578274,9.049655,3.9338005,3
30772515546412,-0.19621146,9.049655,3.9290147,3
30772517925318,-0.2105684,9.064013,3.9242291,3
30772520304224,-0.22013968,9.059227,3.900301,3
30772522683183,-0.19621146,9.059227,3.8955152,3
30772525062089,-0.16749759,9.068798,3.9242291,3
30772527440995,-0.13399807,9.059227,3.9290147,3
30772529819954,-0.13399807,9.068798,3.9242291,3
30772532198860,-0.11006984,9.049655,3.9146578,3
30772534577766,-0.08135597,9.0544405,3.9290147,3
30772536956724,-0.09571291,9.064013,3.9146578,3
30772539335631,-0.09092726,9.078369,3.9146578,3
30772541714537,-0.07178468,9.068798,3.9242291,3
30772544093495,-0.076570325,9.078369,3.9242291,3
30772546472402,-0.08135597,9.073584,3.9338005,3
30772548851360,-0.11006984,9.0544405,3.9433718,3
30772551230266,-0.08135597,9.0544405,3.9338005,3
30772553609172,-0.10049855,9.068798,3.9290147,3
30772555988131,-0.10049855,9.068798,3.9338005,3
30772558367037,-0.09571291,9.059227,3.9242291,3
30772560745943,-0.11964113,9.068798,3.9242291,3
30772563124902,-0.15314065,9.049655,3.9290147,3
30772565503808,-0.2009971,9.049655,3.938586,3
30772567882714,-0.2009971,9.0544405,3.9290147,3
30772570261672,-0.21535404,9.0544405,3.9146578,3
30772572640579,-0.21535404,9.040084,3.938586,3
30772575019537,-0.2105684,9.044869,3.9338005,3
30772577398443,-0.22013968,9.0544405,3.9290147,3
30772579777349,-0.2009971,9.044869,3.9481573,3
30772582156308,-0.2105684,9.030513,3.952943,3
30772584535214,-0.2009971,9.030513,3.952943,3
30772586914172,-0.17228323,9.044869,3.9290147,3
30772589293079,-0.148355,9.030513,3.9290147,3
30772591671985,-0.12921242,9.020942,3.9146578,3
30772594050943,-0.11485548,9.044869,3.9194436,3
30772596429849,-0.09571291,9.035298,3.9146578,3
30772598808756,-0.09092726,9.040084,3.9290147,3
30772601187714,-0.076570325,9.044869,3.9481573,3
30772603566620,-0.06699903,9.044869,3.9433718,3
30772605945527,-0.086141616,9.040084,3.9194436,3
30772608324485,-0.086141616,9.035298,3.9146578,3
30772610703391,-0.076570325,9.049655,3.9290147,3
30772613082297,-0.11006984,9.030513,3.9290147,3
30772615461256,-0.148355,9.020942,3.9338005,3
30772617840162,-0.14356937,9.035298,3.9481573,3
30772620219120,-0.16271193,9.044869,3.952943,3
30772622598027,-0.17706887,9.040084,3.9338005,3
30772624976933,-0.20578274,9.030513,3.9242291,3
30772627355891,-0.2105684,9.049655,3.9433718,3
30772629734797,-0.2105684,9.049655,3.9433718,3
30772632113652,-0.23449662,9.064013,3.9338005,3
30772634492662,-0.22971097,9.068798,3.9290147,3
30772636871568,-0.2105684,9.068798,3.9242291,3
30772639250527,-0.19142582,9.059227,3.9194436,3
30772641629433,-0.17706887,9.044869,3.9290147,3
30772644008339,-0.148355,9.040084,3.9242291,3
30772646387297,-0.12921242,9.025727,3.9146578,3
30772648766204,-0.13399807,9.044869,3.9194436,3
30772651145110,-0.086141616,9.059227,3.9338005,3
30772653524068,-0.07178468,9.064013,3.9242291,3
30772655902974,-0.06699903,9.0544405,3.9338005,3
30772658281881,-0.06699903,9.0544405,3.938586,3
30772660660839,-0.047856454,9.035298,3.9098723,3
30772663039745,-0.043070808,9.040084,3.9050865,3
30772665418704,-0.05742774,9.049655,3.9146578,3
30772667797610,-0.086141616,9.049655,3.9098723,3
30772670176516,-0.11964113,9.040084,3.9050865,3
30772672555474,-0.13878371,9.035298,3.9098723,3
30772674934381,-0.148355,9.0544405,3.900301,3
30772677313287,-0.15792629,9.044869,3.8907297,3
30772679692245,-0.17706887,9.0544405,3.871587,3
30772682071152,-0.19621146,9.068798,3.885944,3
30772684450058,-0.21535404,9.078369,3.8907297,3
30772686829016,-0.19142582,9.08794,3.900301,3
30772689207922,-0.17706887,9.064013,3.8907297,3
30772691586881,-0.17706887,9.059227,3.9050865,3
30772693965787,-0.15314065,9.068798,3.9050865,3
30772696344693,-0.124426775,9.068798,3.9098723,3
30772698723652,-0.11485548,9.0544405,3.900301,3
30772701102558,-0.10049855,9.073584,3.900301,3
30772703481464,-0.09571291,9.092726,3.9050865,3
30772705860422,-0.07178468,9.064013,3.9098723,3
30772708239329,-0.043070808,9.064013,3.9242291,3
30772710618287,-0.047856454,9.073584,3.9098723,3
30772712997193,-0.047856454,9.059227,3.900301,3
30772715376099,-0.062213387,9.064013,3.8907297,3
30772717755058,-0.0526421,9.044869,3.8955152,3
30772720133964,-0.047856454,9.0544405,3.9098723,3
30772722512870,-0.086141616,9.064013,3.9050865,3
30772724891829,-0.07178468,9.044869,3.8907297,3
30772727270735,-0.09092726,9.0544405,3.9050865,3
30772729649641,-0.08135597,9.040084,3.8955152,3
30772732028599,-0.08135597,9.059227,3.8907297,3
30772734407506,-0.086141616,9.040084,3.8955152,3
30772736786412,-0.09092726,9.025727,3.9098723,3
30772739165370,-0.11964113,9.049655,3.9242291,3
30772741544277,-0.14356937,9.0544405,3.9290147,3
30772743923235,-0.15314065,9.025727,3.9338005,3
30772746302141,-0.18664017,9.044869,3.9242291,3
30772748681047,-0.18664017,9.049655,3.9194436,3
30772751060006,-0.2105684,9.064013,3.9146578,3
30772753438912,-0.2440679,9.073584,3.9290147,3
30772755817766,-0.24885355,9.0544405,3.9481573,3
30772758196777,-0.2727818,9.049655,3.9338005,3
30772760575683,-0.24885355,9.040084,3.952943,3
30772762954641,-0.2632105,9.040084,3.938586,3
30772765333547,-0.2536392,9.059227,3.9194436,3
30772767712454,-0.2536392,9.044869,3.9242291,3
30772770091412,-0.22492532,9.040084,3.938586,3
30772772470318,-0.2009971,9.0544405,3.9481573,3
30772774849224,-0.15314065,9.064013,3.9433718,3
30772777228183,-0.13878371,9.064013,3.9433718,3
30772779607818,-0.124426775,9.068798,3.9338005,3
30772781986047,-0.11485548,9.0544405,3.9194436,3
30772784364954,-0.09092726,9.049655,3.9194436,3
30772786743860,-0.07178468,9.0544405,3.900301,3
30772789122818,-0.0526421,9.044869,3.9050865,3
30772791501724,-0.043070808,9.044869,3.9194436,3
30772793880631,-0.062213387,9.035298,3.9290147,3
30772796259589,-0.08135597,9.044869,3.952943,3
30772798638495,-0.076570325,9.0544405,3.952943,3
30772801017402,-0.086141616,9.040084,3.9290147,3
30772803396360,-0.10049855,9.025727,3.9194436,3
30772805775266,-0.11485548,9.040084,3.9338005,3
30772808154224,-0.15314065,9.0544405,3.9242291,3
30772810533131,-0.15314065,9.0544405,3.938586,3
30772812912037,-0.148355,9.040084,3.9242291,3
30772815290995,-0.15792629,9.040084,3.9338005,3
30772817669902,-0.15314065,9.025727,3.9290147,3
30772820048808,-0.13399807,9.030513,3.9481573,3
30772822427766,-0.14356937,9.040084,3.9481573,3
30772824806672,-0.14356937,9.025727,3.952943,3
30772827185631,-0.14356937,9.040084,3.952943,3
30772829564537,-0.11006984,9.044869,3.952943,3
30772831943443,-0.09571291,9.035298,3.952943,3
30772834322402,-0.10049855,9.044869,3.9481573,3
30772836701308,-0.086141616,9.040084,3.9481573,3
30772839080214,-0.076570325,9.035298,3.9433718,3
30772841459172,-0.076570325,9.044869,3.9433718,3
30772843838079,-0.11006984,9.044869,3.9577286,3
30772846217037,-0.1052842,9.044869,3.9338005,3
30772848595943,-0.11485548,9.01137,3.9481573,3
30772850974849,-0.124426775,9.025727,3.938586,3
30772853353808,-0.148355,9.035298,3.938586,3
30772855732714,-0.14356937,9.025727,3.9433718,3
30772858111620,-0.148355,9.030513,3.9433718,3
30772860490579,-0.15314065,9.044869,3.9625144,3
30772862869485,-0.18664017,9.040084,3.9625144,3
30772865248391,-0.18664017,9.040084,3.9577286,3
30772867627349,-0.17706887,9.030513,3.9433718,3
30772870006256,-0.15314065,9.049655,3.9481573,3
30772872385214,-0.16749759,9.020942,3.9577286,3
30772874764120,-0.18664017,9.040084,3.9577286,3
30772877143027,-0.17228323,9.040084,3.952943,3
30772879521985,-0.16749759,9.044869,3.952943,3
30772881900891,-0.17228323,9.030513,3.938586,3
30772884279797,-0.16749759,9.040084,3.9290147,3
30772886658756,-0.15314065,9.049655,3.938586,3
30772889037662,-0.15792629,9.059227,3.9433718,3
30772891416620,-0.148355,9.0544405,3.9290147,3
30772893795527,-0.13878371,9.035298,3.9338005,3
30772896174433,-0.11006984,9.0544405,3.9338005,3
30772898553391,-0.11485548,9.08794,3.9242291,3
30772900932297,-0.13878371,9.059227,3.8620157,3
30772903311204,-0.15792629,9.049655,3.900301,3
30772905690162,-0.09571291,9.083155,3.9768713,3
30772908069068,-0.0526421,9.073584,4.0103707,3
30772910447974,-0.0526421,9.025727,3.9673,3
30772912826933,-0.009571291,9.059227,3.9194436,3
30772915205839,0.009571291,9.08794,3.871587,3
30772917584797,-0.023928227,9.064013,3.8524444,3
30772919963704,0.0047856453,9.044869,3.8955152,3
30772922342610,-0.0047856453,9.068798,3.9673,3
30772924721568,-0.023928227,9.059227,3.991228,3
30772927100474,-0.062213387,9.035298,3.9625144,3
30772929479381,-0.07178468,9.044869,3.938586,3
30772931858339,-0.076570325,9.040084,3.8907297,3
30772934237245,-0.11485548,9.0544405,3.885944,3
30772936616152,-0.148355,9.049655,3.9050865,3
30772938995110,-0.19142582,9.0544405,3.9481573,3
30772941374016,-0.20578274,9.025727,3.9625144,3
30772943752974,-0.21535404,9.016156,3.9768713,3
30772946131881,-0.19621146,9.040084,3.9433718,3
30772948510787,-0.18664017,9.068798,3.9050865,3
30772950889745,-0.17228323,9.078369,3.9050865,3
30772953268652,-0.18185452,9.044869,3.9338005,3
30772955647610,-0.17706887,9.044869,3.9625144,3
30772958026516,-0.13399807,9.030513,3.9816568,3
30772960405422,-0.124426775,9.049655,3.9720855,3
30772962784381,-0.124426775,9.0544405,3.938586,3
30772965163287,-0.09571291,9.044869,3.9338005,3
30772967542193,-0.086141616,9.049655,3.9433718,3
30772969921152,-0.07178468,9.040084,3.952943,3
30772972300058,-0.06699903,9.035298,3.9816568,3
30772974678964,-0.05742774,9.030513,3.9960139,3
30772977057922,-0.047856454,9.030513,3.9960139,3
30772979436829,-0.086141616,9.025727,3.9625144,3
30772981815787,-0.1052842,9.030513,3.9481573,3
30772984194693,-0.124426775,9.006584,3.952943,3
30772986573599,-0.11964113,9.025727,3.9768713,3
30772988952558,-0.148355,9.01137,3.9768713,3
30772991331464,-0.18664017,9.006584,3.9864426,3
30772993710370,-0.20578274,9.01137,4.0007997,3
30772996089329,-0.21535404,9.016156,3.9864426,3
30772998468235,-0.22013968,9.001799,3.9816568,3
30773000847193,-0.20578274,9.01137,3.9720855,3
30773003226099,-0.22971097,9.001799,3.9720855,3
30773005605006,-0.19621146,9.01137,3.9816568,3
30773007983964,-0.18185452,9.01137,3.9864426,3
30773010362870,-0.18185452,9.01137,4.0151563,3
30773012741777,-0.15314065,9.020942,4.005585,3
30773015120735,-0.13878371,9.01137,3.9960139,3
30773017499641,-0.11006984,9.020942,3.9768713,3
30773019878547,-0.08135597,9.035298,3.9577286,3
30773022257506,-0.1052842,9.025727,3.9768713,3
30773024636412,-0.09571291,9.006584,3.9864426,3
30773027015370,-0.086141616,9.01137,3.9816568,3
30773029394277,-0.09092726,9.035298,3.9577286,3
30773031773131,-0.076570325,9.016156,3.952943,3
30773034152141,-0.086141616,9.030513,3.938586,3
30773036531047,-0.09092726,9.025727,3.9433718,3
30773038910006,-0.1052842,9.020942,3.952943,3
30773041288912,-0.124426775,9.020942,3.9577286,3
30773043667818,-0.13399807,9.035298,3.9720855,3
30773046046777,-0.15792629,9.035298,3.9577286,3
30773048425683,-0.18664017,9.035298,3.9577286,3
30773050804589,-0.18185452,9.049655,3.938586,3
30773053183547,-0.17706887,9.064013,3.9338005,3
30773055562454,-0.18664017,9.064013,3.9146578,3
30773057941412,-0.17228323,9.040084,3.9098723,3
30773060320318,-0.16749759,9.030513,3.9098723,3
30773062699224,-0.14356937,9.030513,3.8907297,3
30773065078183,-0.15314065,9.064013,3.8763726,3
30773067457089,-0.17706887,9.078369,3.8763726,3
30773069835995,-0.13878371,9.064013,3.8668015,3
30773072214954,-0.11006984,9.073584,3.8620157,3
30773074593860,-0.086141616,9.059227,3.8572302,3
30773076972818,-0.09571291,9.0544405,3.871587,3
30773079351724,-0.11485548,9.0544405,3.8668015,3
30773081730631,-0.1052842,9.040084,3.8620157,3
30773084109589,-0.09571291,9.059227,3.8763726,3
30773086488495,-0.08135597,9.049655,3.8763726,3
30773088867402,-0.086141616,9.035298,3.8811584,3
30773091246360,-0.11485548,9.044869,3.885944,3
30773093625266,-0.14356937,9.0544405,3.8763726,3
30773096004224,-0.14356937,9.049655,3.8668015,3
30773098383131,-0.13878371,9.0544405,3.885944,3
30773100762037,-0.15792629,9.073584,3.8955152,3
30773103140995,-0.16749759,9.049655,3.8907297,3
30773105519902,-0.16749759,9.064013,3.8907297,3
30773107898808,-0.18664017,9.064013,3.8955152,3
30773110277766,-0.18664017,9.078369,3.885944,3
30773112656672,-0.16749759,9.078369,3.8907297,3
30773115035631,-0.13878371,9.08794,3.9146578,3
30773117414537,-0.148355,9.0544405,3.9050865,3
30773119793443,-0.148355,9.068798,3.9146578,3
30773122172402,-0.15314065,9.064013,3.9290147,3
30773124551308,-0.14356937,9.049655,3.9338005,3
30773126930214,-0.12921242,9.049655,3.9338005,3
30773129309172,-0.124426775,9.040084,3.9098723,3
30773131688079,-0.12921242,9.040084,3.9098723,3
30773134067037,-0.11964113,9.044869,3.9194436,3
30773136445943,-0.11006984,9.0544405,3.9242291,3
30773138824849,-0.1052842,9.064013,3.9194436,3
30773141203808,-0.124426775,9.078369,3.9194436,3
30773143582662,-0.11485548,9.073584,3.9098723,3
30773145961620,-0.11485548,9.068798,3.900301,3
30773148340579,-0.13399807,9.049655,3.9146578,3
30773150719485,-0.11964113,9.059227,3.9481573,3
30773153098443,-0.11964113,9.059227,3.952943,3
30773155477349,-0.16749759,9.073584,3.9338005,3
30773157856256,-0.16749759,9.0544405,3.9194436,3
30773160235214,-0.18185452,9.049655,3.9338005,3
30773162614120,-0.17228323,9.0544405,3.938586,3
30773164993027,-0.17706887,9.059227,3.9481573,3
30773167371985,-0.16271193,9.035298,3.9481573,3
30773169750891,-0.16749759,9.030513,3.9625144,3
30773172129849,-0.16271193,9.020942,3.9481573,3
30773174508756,-0.19142582,9.020942,3.9338005,3
30773176887662,-0.16271193,9.030513,3.9290147,3
30773179266620,-0.16749759,9.035298,3.9146578,3
30773181645527,-0.148355,9.020942,3.9050865,3
30773184024485,-0.15792629,9.030513,3.9146578,3
30773186403391,-0.15792629,9.030513,3.9098723,3
30773188782297,-0.13878371,9.044869,3.9098723,3
30773191161256,-0.16749759,9.035298,3.9242291,3
30773193540162,-0.16749759,9.049655,3.9194436,3
30773195919068,-0.17228323,9.044869,3.900301,3
30773198298027,-0.15792629,9.030513,3.900301,3
30773200676933,-0.19142582,9.025727,3.8907297,3
30773203055839,-0.17228323,9.030513,3.885944,3
30773205434797,-0.18185452,9.049655,3.8955152,3
30773207813704,-0.2009971,9.064013,3.900301,3
30773210192662,-0.19621146,9.068798,3.8907297,3
30773212571568,-0.22492532,9.073584,3.885944,3
30773214950474,-0.22492532,9.078369,3.900301,3
30773217329433,-0.23928227,9.083155,3.8907297,3
30773219708339,-0.23928227,9.068798,3.8811584,3
30773222087245,-0.23449662,9.092726,3.8907297,3
30773224466204,-0.24885355,9.092726,3.8955152,3
30773226845110,-0.2536392,9.097511,3.8763726,3
30773229224068,-0.2440679,9.08794,3.8572302,3
30773231602974,-0.21535404,9.073584,3.8524444,3
30773233981881,-0.2105684,9.059227,3.8524444,3
30773236360839,-0.21535404,9.064013,3.8572302,3
30773238739745,-0.2105684,9.068798,3.8524444,3
30773241118652,-0.19142582,9.059227,3.8668015,3
30773243497610,-0.17228323,9.0544405,3.8763726,3
30773245876516,-0.15314065,9.049655,3.8907297,3
30773248255474,-0.16749759,9.059227,3.871587,3
30773250634381,-0.15314065,9.049655,3.8811584,3
30773253013287,-0.148355,9.035298,3.9050865,3
30773255392245,-0.11964113,9.025727,3.9194436,3
30773257771152,-0.15314065,9.020942,3.9290147,3
30773260150058,-0.16749759,9.030513,3.9290147,3
30773262529016,-0.14356937,9.020942,3.938586,3
30773264907922,-0.16749759,9.035298,3.9242291,3
30773267286881,-0.16271193,9.035298,3.9242291,3
30773269665787,-0.16271193,9.044869,3.938586,3
30773272044693,-0.15792629,9.030513,3.9433718,3
30773274423652,-0.14356937,9.049655,3.9290147,3
30773276802558,-0.16749759,9.0544405,3.9338005,3
30773279181464,-0.16271193,9.049655,3.9290147,3
30773281560422,-0.15792629,9.073584,3.9290147,3
30773283939329,-0.14356937,9.073584,3.9194436,3
30773286318287,-0.14356937,9.044869,3.9242291,3
30773288697193,-0.13878371,9.049655,3.9338005,3
30773291076099,-0.11964113,9.059227,3.9433718,3
30773293455058,-0.13399807,9.0544405,3.938586,3
30773295833964,-0.13399807,9.059227,3.9194436,3
30773298212922,-0.124426775,9.044869,3.9146578,3
30773300591829,-0.124426775,9.068798,3.9050865,3
30773302970735,-0.13878371,9.044869,3.900301,3
30773305349693,-0.16749759,9.040084,3.8955152,3
30773307728599,-0.15314065,9.059227,3.900301,3
30773310107506,-0.16749759,9.064013,3.9146578,3
30773312486464,-0.15792629,9.044869,3.8955152,3
30773314865370,-0.18185452,9.044869,3.885944,3
30773317244329,-0.18185452,9.0544405,3.8811584,3
30773319623235,-0.17706887,9.073584,3.8907297,3
30773322002141,-0.19142582,9.068798,3.8907297,3
30773324381099,-0.16749759,9.083155,3.8907297,3
30773326760006,-0.17228323,9.08794,3.8907297,3
30773329138912,-0.17706887,9.08794,3.885944,3
30773331517870,-0.16749759,9.073584,3.885944,3
30773333896777,-0.15314065,9.068798,3.885944,3
30773336275683,-0.14356937,9.068798,3.8907297,3
30773338654589,-0.13878371,9.073584,3.9050865,3
30773341033547,-0.11006984,9.068798,3.9146578,3
30773343412506,-0.10049855,9.078369,3.9050865,3
30773345791412,-0.11964113,9.073584,3.9098723,3
30773348170370,-0.11485548,9.059227,3.8907297,3
30773350549277,-0.11485548,9.073584,3.9146578,3
30773352928183,-0.10049855,9.083155,3.9290147,3
30773355307141,-0.11485548,9.068798,3.9146578,3
30773357686047,-0.13399807,9.068798,3.885944,3
30773360064954,-0.15314065,9.068798,3.900301,3
30773362443912,-0.15792629,9.068798,3.9050865,3
30773364822818,-0.18185452,9.073584,3.9146578,3
30773367201777,-0.2009971,9.08794,3.9242291,3
30773369580683,-0.2105684,9.064013,3.9242291,3
30773371959589,-0.22971097,9.059227,3.9242291,3
30773374338547,-0.23449662,9.049655,3.9338005,3
30773376717454,-0.22013968,9.044869,3.9290147,3
30773379096360,-0.22492532,9.035298,3.900301,3
30773381475318,-0.23928227,9.044869,3.9146578,3
30773383854224,-0.23449662,9.059227,3.9146578,3
30773386233183,-0.20578274,9.0544405,3.9146578,3
30773388612089,-0.21535404,9.059227,3.9146578,3
30773390990995,-0.19621146,9.068798,3.9146578,3
30773393369954,-0.19621146,9.059227,3.9194436,3
30773395748860,-0.17228323,9.035298,3.9146578,3
30773398127766,-0.17706887,9.0544405,3.9098723,3
30773400506724,-0.17228323,9.064013,3.9338005,3
30773402885631,-0.15314065,9.068798,3.9098723,3
30773405264589,-0.15314065,9.044869,3.900301,3
30773407643495,-0.12921242,9.040084,3.900301,3
30773410022402,-0.124426775,9.059227,3.8955152,3
30773412401360,-0.124426775,9.059227,3.8811584,3
30773414780266,-0.13878371,9.064013,3.8907297,3
30773417159172,-0.17706887,9.064013,3.8955152,3
30773419538131,-0.18185452,9.049655,3.885944,3
30773421917037,-0.18185452,9.064013,3.871587,3
30773424295995,-0.20578274,9.068798,3.885944,3
30773426674902,-0.18664017,9.040084,3.8907297,3
30773429053860,-0.17228323,9.035298,3.8907297,3
30773431432766,-0.16749759,9.0544405,3.871587,3
30773433811672,-0.17706887,9.040084,3.871587,3
30773436190527,-0.19142582,9.044869,3.9098723,3
30773438569537,-0.17706887,9.0544405,3.9050865,3
30773440948443,-0.16749759,9.059227,3.9050865,3
30773443327402,-0.17228323,9.064013,3.9050865,3
30773445706308,-0.19621146,9.059227,3.8955152,3
30773448085214,-0.15792629,9.059227,3.900301,3
30773450464172,-0.14356937,9.059227,3.8955152,3
30773452843079,-0.13878371,9.049655,3.900301,3
30773455222037,-0.14356937,9.044869,3.900301,3
30773457600943,-0.13878371,9.068798,3.900301,3
30773459979849,-0.15792629,9.073584,3.8955152,3
30773462358808,-0.148355,9.0544405,3.9098723,3
30773464737714,-0.13399807,9.064013,3.900301,3
30773467116672,-0.14356937,9.059227,3.9146578,3
30773469495579,-0.13399807,9.0544405,3.9242291,3
30773471874485,-0.15314065,9.0544405,3.9098723,3
30773474253443,-0.15792629,9.068798,3.9098723,3
30773476632349,-0.15792629,9.073584,3.9098723,3
30773479011308,-0.14356937,9.049655,3.9050865,3
30773481390214,-0.16271193,9.049655,3.9290147,3
30773483769120,-0.17228323,9.049655,3.9242291,3
30773486148079,-0.18664017,9.0544405,3.9290147,3
30773488526985,-0.15314065,9.059227,3.9098723,3
30773490905891,-0.16749759,9.040084,3.9098723,3
30773493284849,-0.15792629,9.025727,3.9146578,3
30773495663756,-0.15314065,9.044869,3.9194436,3
30773498042714,-0.15792629,9.030513,3.9242291,3
30773500421620,-0.13399807,9.016156,3.9146578,3
30773502800527,-0.15792629,9.020942,3.900301,3
30773505179485,-0.13399807,9.030513,3.885944,3
30773507558391,-0.13399807,9.025727,3.9098723,3
30773509937297,-0.15314065,9.030513,3.9050865,3
30773512316256,-0.14356937,9.049655,3.9146578,3
30773514695162,-0.14356937,9.059227,3.900301,3
30773517074120,-0.14356937,9.073584,3.9146578,3
30773519453027,-0.148355,9.078369,3.9050865,3
30773521831933,-0.148355,9.068798,3.9098723,3
30773524210891,-0.16749759,9.083155,3.9146578,3
30773526589797,-0.17706887,9.107083,3.9050865,3
30773528968704,-0.18185452,9.078369,3.9146578,3
30773531347662,-0.17228323,9.068798,3.900301,3
30773533726568,-0.15792629,9.08794,3.9194436,3
30773536105527,-0.15792629,9.083155,3.9050865,3
30773538484433,-0.148355,9.078369,3.9050865,3
30773540863339,-0.14356937,9.068798,3.9050865,3
30773543242297,-0.14356937,9.059227,3.900301,3
30773545621204,-0.15314065,9.083155,3.900301,3
30773548000110,-0.16271193,9.073584,3.9242291,3
30773550379068,-0.15314065,9.064013,3.9242291,3
30773552757974,-0.148355,9.08794,3.9242291,3
30773555136933,-0.14356937,9.059227,3.9194436,3
30773557515839,-0.11964113,9.068798,3.9194436,3
30773559894745,-0.11485548,9.068798,3.9098723,3
30773562273704,-0.12921242,9.059227,3.9098723,3
30773564652610,-0.13878371,9.0544405,3.9242291,3
30773567031568,-0.11964113,9.049655,3.9242291,3
30773569410474,-0.14356937,9.059227,3.9146578,3
30773571789329,-0.13878371,9.064013,3.9146578,3
30773574168339,-0.13878371,9.044869,3.9098723,3
30773576547245,-0.13878371,9.025727,3.900301,3
30773578926204,-0.16271193,9.040084,3.8955152,3
30773581305110,-0.2009971,9.044869,3.9290147,3
30773583684016,-0.17228323,9.049655,3.9194436,3
30773586062974,-0.18664017,9.044869,3.9242291,3
30773588441881,-0.148355,9.073584,3.9242291,3
30773590820787,-0.16749759,9.064013,3.9242291,3
30773593199745,-0.15792629,9.078369,3.9338005,3
30773595578652,-0.17228323,9.0544405,3.9146578,3
30773597957558,-0.13878371,9.049655,3.9242291,3
30773600336516,-0.13878371,9.059227,3.9098723,3
30773602715422,-0.14356937,9.068798,3.9338005,3
30773605094381,-0.13399807,9.044869,3.9338005,3
30773607473287,-0.14356937,9.059227,3.9338005,3
30773609852245,-0.13399807,9.044869,3.900301,3
30773612231152,-0.124426775,9.049655,3.9050865,3
30773614610006,-0.1052842,9.044869,3.9050865,3
30773616989016,-0.11485548,9.059227,3.9050865,3
30773619367922,-0.13878371,9.064013,3.900301,3
30773621746829,-0.15314065,9.049655,3.8955152,3
30773624125787,-0.17706887,9.0544405,3.8955152,3
30773626504693,-0.2105684,9.0544405,3.8955152,3
30773628883652,-0.20578274,9.044869,3.8955152,3
30773631262558,-0.21535404,9.040084,3.9050865,3
30773633641464,-0.22492532,9.0544405,3.9050865,3
30773636020422,-0.23449662,9.068798,3.885944,3
30773638399329,-0.22971097,9.068798,3.8811584,3
30773640778235,-0.23449662,9.073584,3.8907297,3
30773643157193,-0.23928227,9.044869,3.8907297,3
30773645536099,-0.25842485,9.044869,3.8955152,3
30773647915058,-0.23449662,9.0544405,3.9146578,3
30773650293964,-0.21535404,9.0544405,3.9338005,3
30773652672870,-0.19621146,9.049655,3.9242291,3
30773655051829,-0.148355,9.0544405,3.9194436,3
30773657430735,-0.13399807,9.083155,3.9242291,3
30773659809693,-0.11964113,9.083155,3.9242291,3
30773662188599,-0.1052842,9.064013,3.9098723,3
30773664567506,-0.11006984,9.0544405,3.9050865,3
30773666946464,-0.086141616,9.049655,3.9146578,3
30773669325370,-0.076570325,9.064013,3.9194436,3
30773671704277,-0.07178468,9.059227,3.9050865,3
30773674083235,-0.043070808,9.059227,3.8955152,3
30773676462141,-0.06699903,9.0544405,3.9050865,3
30773678841099,-0.07178468,9.064013,3.9050865,3
30773681220006,-0.08135597,9.059227,3.9242291,3
30773683598912,-0.07178468,9.0544405,3.9098723,3
30773685977818,-0.11964113,9.064013,3.9050865,3
30773688356777,-0.13399807,9.0544405,3.8907297,3
30773690735735,-0.17228323,9.064013,3.8955152,3
30773693114641,-0.19621146,9.083155,3.900301,3
30773695493547,-0.2105684,9.068798,3.9242291,3
30773697872506,-0.21535404,9.078369,3.9146578,3
30773700251412,-0.22971097,9.068798,3.9050865,3
30773702630370,-0.22492532,9.078369,3.9146578,3
30773705009277,-0.22971097,9.059227,3.9098723,3
30773707388183,-0.21535404,9.059227,3.9050865,3
30773709767141,-0.2009971,9.059227,3.9146578,3
30773712146047,-0.17706887,9.073584,3.9050865,3
30773714524954,-0.18185452,9.0544405,3.9098723,3
30773716903912,-0.16749759,9.068798,3.9290147,3
30773719282818,-0.148355,9.064013,3.9098723,3
30773721661777,-0.15314065,9.040084,3.8907297,3
30773724040683,-0.09092726,9.064013,3.8907297,3
30773726419589,-0.09092726,9.078369,3.8811584,3
30773728798547,-0.08135597,9.078369,3.8811584,3
30773731177454,-0.05742774,9.083155,3.885944,3
30773733556360,-0.09571291,9.068798,3.8955152,3
30773735935318,-0.11006984,9.064013,3.900301,3
30773738314224,-0.076570325,9.064013,3.900301,3
30773740693183,-0.09092726,9.073584,3.8907297,3
30773743072089,-0.11964113,9.068798,3.885944,3
30773745450995,-0.13878371,9.078369,3.900301,3
30773747829954,-0.148355,9.059227,3.900301,3
30773750208860,-0.17228323,9.073584,3.900301,3
30773752587818,-0.18664017,9.083155,3.9146578,3
30773754966724,-0.19621146,9.08794,3.9194436,3
30773757345631,-0.17706887,9.064013,3.9146578,3
30773759724537,-0.19621146,9.044869,3.8955152,3
30773762103495,-0.20578274,9.044869,3.9050865,3
30773764482454,-0.18185452,9.049655,3.9098723,3
30773766861360,-0.17228323,9.059227,3.9146578,3
30773769240266,-0.14356937,9.049655,3.9098723,3
30773771619172,-0.15314065,9.044869,3.8955152,3
30773773998131,-0.15314065,9.0544405,3.9098723,3
30773776377089,-0.124426775,9.044869,3.8955152,3
30773778755995,-0.12921242,9.049655,3.8811584,3
30773781134902,-0.148355,9.044869,3.9050865,3
30773783513860,-0.16271193,9.059227,3.9098723,3
30773785892766,-0.16749759,9.049655,3.9098723,3
30773788271672,-0.15792629,9.078369,3.9146578,3
30773790650631,-0.14356937,9.049655,3.9146578,3
30773793029537,-0.16271193,9.059227,3.9146578,3
30773795408495,-0.18185452,9.040084,3.9098723,3
30773797787402,-0.18664017,9.044869,3.9098723,3
30773800166308,-0.17228323,9.064013,3.9146578,3
30773802545266,-0.16271193,9.078369,3.8955152,3
30773804924172,-0.17706887,9.107083,3.885944,3
30773807303079,-0.16749759,9.08794,3.8955152,3
30773809682037,-0.17706887,9.08794,3.9194436,3
30773812060943,-0.17228323,9.097511,3.9194436,3
30773814439902,-0.15314065,9.097511,3.9194436,3
30773816818808,-0.15314065,9.073584,3.9050865,3
30773819197714,-0.17706887,9.078369,3.9098723,3
30773821576672,-0.15314065,9.064013,3.9194436,3
30773823955579,-0.13399807,9.040084,3.9050865,3
30773826334537,-0.12921242,9.035298,3.9194436,3
30773828713443,-0.11006984,9.049655,3.9050865,3
30773831092297,-0.10049855,9.025727,3.9098723,3
30773833471308,-0.10049855,9.030513,3.9194436,3
30773835850214,-0.09571291,9.035298,3.9194436,3
30773838229172,-0.1052842,9.0544405,3.9098723,3
30773840608079,-0.11006984,9.035298,3.9050865,3
30773842986985,-0.124426775,9.044869,3.9194436,3
30773845365943,-0.124426775,9.059227,3.9242291,3
30773847744849,-0.12921242,9.044869,3.9242291,3
30773850123756,-0.13399807,9.0544405,3.9242291,3
30773852502714,-0.11006984,9.044869,3.9194436,3
30773854881620,-0.12921242,9.0544405,3.9194436,3
30773857260579,-0.14356937,9.0544405,3.9194436,3
30773859639485,-0.13399807,9.030513,3.9242291,3
30773862018391,-0.1052842,9.044869,3.9290147,3
30773864397349,-0.11485548,9.059227,3.9338005,3
30773866776256,-0.1052842,9.059227,3.9290147,3
30773869155214,-0.124426775,9.073584,3.9194436,3
30773871534120,-0.11006984,9.068798,3.9242291,3
30773873913027,-0.12921242,9.059227,3.9290147,3
30773876291985,-0.13399807,9.073584,3.938586,3
30773878670891,-0.124426775,9.068798,3.9242291,3
30773881049797,-0.13399807,9.078369,3.9098723,3
30773883428756,-0.14356937,9.078369,3.8955152,3
30773885807662,-0.124426775,9.068798,3.9146578,3
30773888186620,-0.11485548,9.059227,3.9050865,3
30773890565527,-0.12921242,9.064013,3.9098723,3
30773892944485,-0.12921242,9.068798,3.9146578,3
30773895323391,-0.13399807,9.068798,3.9194436,3
30773897702297,-0.12921242,9.040084,3.9194436,3
30773900081256,-0.13399807,9.025727,3.9050865,3
30773902460162,-0.14356937,9.040084,3.9050865,3
30773904839068,-0.15314065,9.049655,3.900301,3
30773907218027,-0.14356937,9.025727,3.8955152,3
30773909596933,-0.124426775,9.040084,3.8955152,3
30773911975891,-0.11964113,9.035298,3.9050865,3
30773914354797,-0.1052842,9.035298,3.900301,3
30773916733704,-0.124426775,9.025727,3.900301,3
30773919112662,-0.1052842,9.064013,3.9146578,3
30773921491568,-0.1052842,9.08794,3.9194436,3
30773923870474,-0.10049855,9.0544405,3.9242291,3
30773926249433,-0.10049855,9.049655,3.9433718,3
30773928628339,-0.09571291,9.0544405,3.9242291,3
30773931007297,-0.10049855,9.049655,3.9146578,3
30773933386204,-0.1052842,9.059227,3.9098723,3
30773935765162,-0.10049855,9.064013,3.9194436,3
30773938144068,-0.11964113,9.0544405,3.9242291,3
30773940522974,-0.11485548,9.0544405,3.9242291,3
30773942901933,-0.11964113,9.049655,3.938586,3
30773945280839,-0.14356937,9.0544405,3.9481573,3
30773947659745,-0.12921242,9.059227,3.9194436,3
30773950038704,-0.12921242,9.049655,3.9050865,3
30773952417558,-0.13878371,9.040084,3.900301,3
30773954796568,-0.12921242,9.044869,3.900301,3
30773957175474,-0.13399807,9.0544405,3.8955152,3
30773959554381,-0.13399807,9.040084,3.900301,3
30773961933339,-0.12921242,9.049655,3.9098723,3
30773964312245,-0.124426775,9.059227,3.8907297,3
30773966691204,-0.13878371,9.049655,3.8955152,3
30773969070110,-0.11964113,9.035298,3.885944,3
30773971449016,-0.1052842,9.035298,3.9098723,3
30773973827974,-0.11485548,9.049655,3.9050865,3
30773976206881,-0.11006984,9.08794,3.8955152,3
30773978585787,-0.124426775,9.049655,3.8955152,3
30773980964745,-0.13878371,9.059227,3.900301,3
30773983343652,-0.11485548,9.068798,3.9194436,3
30773985722610,-0.13878371,9.068798,3.9146578,3
