t_ns,ax,ay,az,bx,by,bz
30120238872445,-0.35413775,9.025727,4.651647,0.0,0.0,0.0
30120241251351,-0.19142582,9.006584,4.4315076,0.0,0.0,0.0
30120243630362,-0.6891329,9.107083,3.5605202,0.0,0.0,0.0
30120246009268,-0.9810573,9.217153,3.0388846,0.0,0.0,0.0
30120248388174,-0.8279166,9.188439,3.2829528,0.0,0.0,0.0
30120250767132,-1.0671989,9.068798,3.751946,0.0,0.0,0.0
30120253146039,-1.3495519,9.08794,4.249653,0.0,0.0,0.0
30120255524945,-1.1581261,9.059227,4.546363,0.0,0.0,0.0
30120257903903,-1.0767702,9.030513,4.3118663,0.0,0.0,0.0
30120260282809,-1.0911272,9.116654,3.723232,0.0,0.0,0.0
30120262661768,-0.7752745,9.178867,3.3690944,0.0,0.0,0.0
30120265040674,-0.5072784,9.159725,3.3882368,0.0,0.0,0.0
30120267419580,-0.41635114,9.092726,3.694518,0.0,0.0,0.0
30120269798487,-0.18664017,9.073584,4.1443686,0.0,0.0,0.0
30120272177393,0.033499517,9.049655,4.3118663,0.0,0.0,0.0
30120274556403,0.038285162,9.025727,4.101298,0.0,0.0,0.0
30120276935309,0.14356937,9.107083,3.7136607,0.0,0.0,0.0
30120279314216,0.26799613,9.126225,3.455236,0.0,0.0,0.0
30120281693174,0.25842485,9.035298,3.4504502,0.0,0.0,0.0
30120284072080,0.20578274,9.097511,3.694518,0.0,0.0,0.0
30120286450987,0.18664017,9.111869,4.058227,0.0,0.0,0.0
30120288829945,0.14356937,8.992228,4.211368,0.0,0.0,0.0
30120291208851,0.014356935,9.035298,4.0534415,0.0,0.0,0.0
30120293587809,-0.13878371,9.08794,3.7280176,0.0,0.0,0.0
30120295966716,-0.33499518,9.131011,3.4456646,0.0,0.0,0.0
30120298345622,-0.5599205,9.193225,3.5126636,0.0,0.0,0.0
30120300724580,-0.65084773,9.08794,3.7998023,0.0,0.0,0.0
30120303103487,-0.8327023,9.08794,4.082155,0.0,0.0,0.0
30120305482445,-0.9284152,9.126225,4.1778684,0.0,0.0,0.0
30120307861351,-0.94277215,9.126225,4.034299,0.0,0.0,0.0
30120310240257,-0.91405827,9.131011,3.7471602,0.0,0.0,0.0
30120312619216,-0.9092726,9.188439,3.5413775,0.0,0.0,0.0
30120314998122,-0.76570326,9.202796,3.5844483,0.0,0.0,0.0
30120317377080,-0.59342,9.131011,3.7758741,0.0,0.0,0.0
30120319755987,-0.4211368,9.116654,3.952943,0.0,0.0,0.0
30120322134893,-0.22492532,9.140582,4.0295134,0.0,0.0,0.0
30120324513851,-0.009571291,9.12144,3.8955152,0.0,0.0,0.0
30120326892757,0.13399807,9.126225,3.67059,0.0,0.0,0.0
30120329271664,0.28713873,9.19801,3.5126636,0.0,0.0,0.0
30120331650622,0.4354937,9.169296,3.507878,0.0,0.0,0.0
30120334029528,0.47377887,9.12144,3.6466618,0.0,0.0,0.0
30120336408487,0.47856453,9.116654,3.8333018,0.0,0.0,0.0
30120338787393,0.49292147,9.083155,3.9098723,0.0,0.0,0.0
30120341166299,0.4546363,9.068798,3.8285162,0.0,0.0,0.0
30120343545257,0.37806597,9.102298,3.656233,0.0,0.0,0.0
30120345924164,0.23449662,9.145369,3.5365918,0.0,0.0,0.0
30120348303070,0.05742774,9.135797,3.546163,0.0,0.0,0.0
30120350681976,-0.086141616,9.12144,3.6801612,0.0,0.0,0.0
30120353060934,-0.2440679,9.102298,3.8237305,0.0,0.0,0.0
30120355439893,-0.38763726,9.126225,3.9098723,0.0,0.0,0.0
30120357818799,-0.53599226,9.102298,3.8476589,0.0,0.0,0.0
30120360197705,-0.63170516,9.150154,3.7088752,0.0,0.0,0.0
30120362576664,-0.7082755,9.193225,3.6131623,0.0,0.0,0.0
30120364955570,-0.71306115,9.169296,3.6131623,0.0,0.0,0.0
30120367334528,-0.7178468,9.150154,3.7040894,0.0,0.0,0.0
30120369713434,-0.70348984,9.169296,3.790231,0.0,0.0,0.0
30120372092341,-0.64606214,9.164511,3.8524444,0.0,0.0,0.0
30120374471299,-0.5599205,9.164511,3.804588,0.0,0.0,0.0
30120376850205,-0.43070808,9.183653,3.7040894,0.0,0.0,0.0
30120379229112,-0.29192436,9.169296,3.603591,0.0,0.0,0.0
30120381608070,-0.15792629,9.178867,3.574877,0.0,0.0,0.0
30120383986976,-0.043070808,9.164511,3.641876,0.0,0.0,0.0
30120386365934,0.05742774,9.126225,3.7328033,0.0,0.0,0.0
30120388744841,0.11964113,9.131011,3.7758741,0.0,0.0,0.0
30120391123747,0.16749759,9.126225,3.7567315,0.0,0.0,0.0
30120393502705,0.21535404,9.145369,3.6801612,0.0,0.0,0.0
30120395881612,0.22971097,9.131011,3.6323047,0.0,0.0,0.0
30120398260518,0.17706887,9.131011,3.6179478,0.0,0.0,0.0
30120400639476,0.11485548,9.131011,3.656233,0.0,0.0,0.0
30120403018382,0.014356935,9.126225,3.7136607,0.0,0.0,0.0
30120405397341,-0.07178468,9.116654,3.7471602,0.0,0.0,0.0
30120407776247,-0.19142582,9.12144,3.7328033,0.0,0.0,0.0
30120410155153,-0.3062813,9.116654,3.6993039,0.0,0.0,0.0
30120412534112,-0.40677986,9.126225,3.656233,0.0,0.0,0.0
30120414913018,-0.47377887,9.150154,3.6610186,0.0,0.0,0.0
30120417291976,-0.55513483,9.135797,3.6897326,0.0,0.0,0.0
30120419670882,-0.5982057,9.12144,3.7567315,0.0,0.0,0.0
30120422049789,-0.6221339,9.12144,3.7854455,0.0,0.0,0.0
30120424428747,-0.59342,9.116654,3.7854455,0.0,0.0,0.0
30120426807653,-0.5312066,9.164511,3.737589,0.0,0.0,0.0
30120429186559,-0.47856453,9.150154,3.6993039,0.0,0.0,0.0
30120431565518,-0.40677986,9.131011,3.694518,0.0,0.0,0.0
30120433944424,-0.3397808,9.116654,3.723232,0.0,0.0,0.0
30120436323382,-0.22971097,9.126225,3.7471602,0.0,0.0,0.0
30120438702289,-0.124426775,9.126225,3.7615173,0.0,0.0,0.0
30120441081195,-0.014356935,9.111869,3.7471602,0.0,0.0,0.0
30120443460153,0.062213387,9.102298,3.7136607,0.0,0.0,0.0
30120445839059,0.11964113,9.116654,3.67059,0.0,0.0,0.0
30120448217966,0.14356937,9.111869,3.6514473,0.0,0.0,0.0
30120450596924,0.14356937,9.092726,3.6753755,0.0,0.0,0.0
30120452975830,0.14356937,9.107083,3.7184465,0.0,0.0,0.0
30120455354789,0.11964113,9.116654,3.7471602,0.0,0.0,0.0
30120457733695,0.06699903,9.111869,3.7328033,0.0,0.0,0.0
30120460112601,-0.033499517,9.102298,3.7280176,0.0,0.0,0.0
30120462491559,-0.11964113,9.145369,3.6993039,0.0,0.0,0.0
30120464870466,-0.2009971,9.126225,3.7040894,0.0,0.0,0.0
30120467249372,-0.31106696,9.140582,3.7136607,0.0,0.0,0.0
30120469628330,-0.3924229,9.145369,3.7758741,0.0,0.0,0.0
30120472007237,-0.49292147,9.126225,3.7806597,0.0,0.0,0.0
30120474386195,-0.57427746,9.145369,3.7758741,0.0,0.0,0.0
30120476765101,-0.6029913,9.135797,3.7758741,0.0,0.0,0.0
30120479144007,-0.63170516,9.131011,3.751946,0.0,0.0,0.0
30120481522966,-0.6221339,9.131011,3.751946,0.0,0.0,0.0
30120483901872,-0.61734825,9.12144,3.7615173,0.0,0.0,0.0
30120486280830,-0.5694918,9.145369,3.7710886,0.0,0.0,0.0
30120488659737,-0.49292147,9.116654,3.7998023,0.0,0.0,0.0
30120491038643,-0.43070808,9.08794,3.790231,0.0,0.0,0.0
30120493417601,-0.36370903,9.092726,3.7806597,0.0,0.0,0.0
30120495796507,-0.28235307,9.092726,3.7663028,0.0,0.0,0.0
30120498175414,-0.2105684,9.08794,3.737589,0.0,0.0,0.0
30120500554372,-0.15792629,9.102298,3.737589,0.0,0.0,0.0
30120502933278,-0.062213387,9.08794,3.7567315,0.0,0.0,0.0
30120505312184,-0.05742774,9.059227,3.7758741,0.0,0.0,0.0
30120507691091,-0.06699903,9.078369,3.7950168,0.0,0.0,0.0
30120510070049,-0.08135597,9.073584,3.790231,0.0,0.0,0.0
30120512449007,-0.11485548,9.078369,3.7998023,0.0,0.0,0.0
30120514827914,-0.13399807,9.064013,3.790231,0.0,0.0,0.0
30120517206820,-0.18185452,9.073584,3.790231,0.0,0.0,0.0
30120519585778,-0.23449662,9.092726,3.8141594,0.0,0.0,0.0
30120521964684,-0.29671,9.073584,3.8285162,0.0,0.0,0.0
30120524343643,-0.35413775,9.092726,3.842873,0.0,0.0,0.0
30120526722549,-0.4211368,9.111869,3.842873,0.0,0.0,0.0
30120529101455,-0.51206404,9.092726,3.8380876,0.0,0.0,0.0
30120531480414,-0.5407779,9.126225,3.8572302,0.0,0.0,0.0
30120533859320,-0.57906306,9.116654,3.8572302,0.0,0.0,0.0
30120536238226,-0.6029913,9.12144,3.8620157,0.0,0.0,0.0
30120538617184,-0.60777694,9.126225,3.8572302,0.0,0.0,0.0
30120540996091,-0.59342,9.126225,3.8572302,0.0,0.0,0.0
30120543375049,-0.5455636,9.107083,3.8572302,0.0,0.0,0.0
30120545753955,-0.4881358,9.126225,3.8668015,0.0,0.0,0.0
30120548132862,-0.44027936,9.145369,3.8668015,0.0,0.0,0.0
30120550511820,-0.3589234,9.126225,3.8620157,0.0,0.0,0.0
30120552890726,-0.29192436,9.107083,3.8620157,0.0,0.0,0.0
30120555269632,-0.26799613,9.107083,3.8524444,0.0,0.0,0.0
30120557648591,-0.2009971,9.107083,3.8476589,0.0,0.0,0.0
30120560027497,-0.15792629,9.097511,3.8620157,0.0,0.0,0.0
30120562406455,-0.12921242,9.116654,3.8572302,0.0,0.0,0.0
30120564785362,-0.13399807,9.092726,3.842873,0.0,0.0,0.0
30120567164268,-0.15792629,9.078369,3.8285162,0.0,0.0,0.0
30120569543226,-0.2009971,9.083155,3.8476589,0.0,0.0,0.0
30120571922132,-0.23928227,9.08794,3.8524444,0.0,0.0,0.0
30120574301039,-0.27756742,9.116654,3.871587,0.0,0.0,0.0
30120576679997,-0.3397808,9.111869,3.8668015,0.0,0.0,0.0
30120579058903,-0.4019942,9.135797,3.871587,0.0,0.0,0.0
30120581437862,-0.46899325,9.111869,3.871587,0.0,0.0,0.0
30120583816768,-0.52163535,9.111869,3.8763726,0.0,0.0,0.0
30120586195674,-0.5886344,9.102298,3.8811584,0.0,0.0,0.0
30120588574632,-0.6412765,9.08794,3.8955152,0.0,0.0,0.0
30120590953539,-0.6412765,9.068798,3.8907297,0.0,0.0,0.0
30120593332497,-0.65084773,9.068798,3.8811584,0.0,0.0,0.0
30120595711351,-0.6652047,9.078369,3.871587,0.0,0.0,0.0
30120598090309,-0.66041905,9.092726,3.871587,0.0,0.0,0.0
30120600469268,-0.63170516,9.078369,3.8668015,0.0,0.0,0.0
30120602848174,-0.57906306,9.073584,3.8763726,0.0,0.0,0.0
30120605227080,-0.53599226,9.064013,3.8524444,0.0,0.0,0.0
30120607606039,-0.4833502,9.068798,3.8620157,0.0,0.0,0.0
30120609984945,-0.4546363,9.049655,3.871587,0.0,0.0,0.0
30120612363903,-0.41635114,9.035298,3.8524444,0.0,0.0,0.0
30120614742809,-0.3924229,9.044869,3.8237305,0.0,0.0,0.0
30120617121716,-0.3493521,9.059227,3.8380876,0.0,0.0,0.0
30120619500674,-0.3062813,9.049655,3.8620157,0.0,0.0,0.0
30120621879580,-0.3062813,9.049655,3.8476589,0.0,0.0,0.0
30120624258487,-0.3062813,9.0544405,3.8380876,0.0,0.0,0.0
30120626637445,-0.31585258,9.064013,3.8380876,0.0,0.0,0.0
30120629016351,-0.33499518,9.049655,3.8285162,0.0,0.0,0.0
30120631395257,-0.38763726,9.044869,3.8285162,0.0,0.0,0.0
30120633774216,-0.39720857,9.083155,3.8476589,0.0,0.0,0.0
30120636153122,-0.43070808,9.078369,3.8380876,0.0,0.0,0.0
30120638532080,-0.4546363,9.092726,3.8476589,0.0,0.0,0.0
30120640910987,-0.49292147,9.107083,3.8620157,0.0,0.0,0.0
30120643289893,-0.5168497,9.083155,3.8476589,0.0,0.0,0.0
30120645668851,-0.52163535,9.097511,3.8524444,0.0,0.0,0.0
30120648047757,-0.526421,9.111869,3.8476589,0.0,0.0,0.0
30120650426664,-0.5407779,9.116654,3.8524444,0.0,0.0,0.0
30120652805622,-0.5312066,9.111869,3.8476589,0.0,0.0,0.0
30120655184528,-0.5312066,9.126225,3.8380876,0.0,0.0,0.0
30120657563487,-0.5024927,9.135797,3.8285162,0.0,0.0,0.0
30120659942393,-0.44506502,9.131011,3.8141594,0.0,0.0,0.0
30120662321299,-0.4211368,9.126225,3.8141594,0.0,0.0,0.0
30120664700205,-0.38763726,9.08794,3.790231,0.0,0.0,0.0
30120667079164,-0.36370903,9.083155,3.790231,0.0,0.0,0.0
30120669458070,-0.3397808,9.097511,3.804588,0.0,0.0,0.0
30120671837028,-0.31585258,9.12144,3.7950168,0.0,0.0,0.0
30120674215934,-0.2727818,9.116654,3.7998023,0.0,0.0,0.0
30120676594893,-0.2727818,9.097511,3.7806597,0.0,0.0,0.0
30120678973799,-0.2536392,9.092726,3.7615173,0.0,0.0,0.0
30120681352705,-0.2632105,9.08794,3.7615173,0.0,0.0,0.0
30120683731664,-0.29192436,9.08794,3.7615173,0.0,0.0,0.0
30120686110570,-0.31106696,9.116654,3.7615173,0.0,0.0,0.0
30120688489476,-0.31585258,9.092726,3.7806597,0.0,0.0,0.0
30120690868434,-0.33499518,9.08794,3.7758741,0.0,0.0,0.0
30120693247341,-0.33020952,9.107083,3.7950168,0.0,0.0,0.0
30120695626299,-0.31585258,9.107083,3.7950168,0.0,0.0,0.0
30120698005205,-0.31585258,9.107083,3.7950168,0.0,0.0,0.0
30120700384112,-0.31585258,9.116654,3.7854455,0.0,0.0,0.0
30120702763070,-0.30149564,9.135797,3.7950168,0.0,0.0,0.0
30120705141976,-0.28713873,9.12144,3.7950168,0.0,0.0,0.0
30120707520934,-0.27756742,9.116654,3.790231,0.0,0.0,0.0
30120709899841,-0.22492532,9.150154,3.8237305,0.0,0.0,0.0
30120712278747,-0.21535404,9.150154,3.8093736,0.0,0.0,0.0
30120714657705,-0.20578274,9.140582,3.8093736,0.0,0.0,0.0
30120717036612,-0.17228323,9.164511,3.8237305,0.0,0.0,0.0
30120719415518,-0.12921242,9.111869,3.7758741,0.0,0.0,0.0
30120721794476,-0.148355,9.102298,3.7567315,0.0,0.0,0.0
30120724173382,-0.1052842,9.078369,3.7328033,0.0,0.0,0.0
30120726552289,-0.148355,9.0544405,3.7854455,0.0,0.0,0.0
30120728931247,-0.16749759,9.025727,3.8333018,0.0,0.0,0.0
30120731310153,-0.23928227,9.01137,3.804588,0.0,0.0,0.0
30120733689059,-0.2536392,9.035298,3.7471602,0.0,0.0,0.0
30120736068018,-0.32063824,9.0544405,3.7136607,0.0,0.0,0.0
30120738446924,-0.34456646,9.059227,3.7136607,0.0,0.0,0.0
30120740825882,-0.4019942,9.049655,3.7663028,0.0,0.0,0.0
30120743204789,-0.4642076,9.064013,3.7806597,0.0,0.0,0.0
30120745583695,-0.5072784,9.116654,3.7663028,0.0,0.0,0.0
30120747962653,-0.51206404,9.135797,3.7280176,0.0,0.0,0.0
30120750341559,-0.5312066,9.135797,3.6849468,0.0,0.0,0.0
30120752720518,-0.52163535,9.140582,3.6753755,0.0,0.0,0.0
30120755099424,-0.51206404,9.140582,3.7136607,0.0,0.0,0.0
30120757478330,-0.47377887,9.150154,3.7471602,0.0,0.0,0.0
30120759857289,-0.4546363,9.126225,3.790231,0.0,0.0,0.0
30120762236195,-0.44985065,9.111869,3.7998023,0.0,0.0,0.0
30120764615101,-0.41635114,9.12144,3.804588,0.0,0.0,0.0
30120766994059,-0.3924229,9.145369,3.8285162,0.0,0.0,0.0
30120769372966,-0.37328035,9.126225,3.8380876,0.0,0.0,0.0
30120771751872,-0.3493521,9.126225,3.842873,0.0,0.0,0.0
30120774130830,-0.36370903,9.107083,3.8380876,0.0,0.0,0.0
30120776509737,-0.3589234,9.092726,3.842873,0.0,0.0,0.0
30120778888695,-0.3684947,9.078369,3.8524444,0.0,0.0,0.0
30120781267601,-0.3589234,9.073584,3.8333018,0.0,0.0,0.0
30120783646507,-0.35413775,9.116654,3.7950168,0.0,0.0,0.0
30120786025466,-0.35413775,9.092726,3.7758741,0.0,0.0,0.0
30120788404372,-0.3589234,9.116654,3.7615173,0.0,0.0,0.0
30120790783330,-0.37806597,9.111869,3.7758741,0.0,0.0,0.0
30120793162237,-0.38285163,9.083155,3.7758741,0.0,0.0,0.0
30120795541143,-0.3924229,9.078369,3.7710886,0.0,0.0,0.0
30120797920101,-0.40677986,9.092726,3.7758741,0.0,0.0,0.0
30120800299007,-0.4019942,9.102298,3.7423747,0.0,0.0,0.0
30120802677914,-0.38763726,9.102298,3.751946,0.0,0.0,0.0
30120805056872,-0.36370903,9.073584,3.7710886,0.0,0.0,0.0
30120807435778,-0.36370903,9.092726,3.8093736,0.0,0.0,0.0
30120809814737,-0.34456646,9.08794,3.8285162,0.0,0.0,0.0
30120812193643,-0.32063824,9.092726,3.8333018,0.0,0.0,0.0
30120814572549,-0.27756742,9.102298,3.8093736,0.0,0.0,0.0
30120816951507,-0.2632105,9.107083,3.7854455,0.0,0.0,0.0
30120819330414,-0.22492532,9.097511,3.7998023,0.0,0.0,0.0
30120821709320,-0.18664017,9.073584,3.790231,0.0,0.0,0.0
30120824088278,-0.16271193,9.08794,3.8141594,0.0,0.0,0.0
30120826467184,-0.16749759,9.097511,3.8285162,0.0,0.0,0.0
30120828846091,-0.16271193,9.097511,3.8333018,0.0,0.0,0.0
30120831225049,-0.14356937,9.08794,3.818945,0.0,0.0,0.0
30120833603955,-0.16749759,9.083155,3.8141594,0.0,0.0,0.0
30120835982914,-0.19142582,9.092726,3.7950168,0.0,0.0,0.0
30120838361820,-0.19142582,9.107083,3.790231,0.0,0.0,0.0
30120840740726,-0.2009971,9.12144,3.790231,0.0,0.0,0.0
30120843119684,-0.22971097,9.131011,3.7998023,0.0,0.0,0.0
30120845498591,-0.27756742,9.116654,3.804588,0.0,0.0,0.0
30120847877497,-0.27756742,9.135797,3.7998023,0.0,0.0,0.0
30120850256455,-0.3062813,9.12144,3.7950168,0.0,0.0,0.0
30120852635362,-0.32542387,9.140582,3.7950168,0.0,0.0,0.0
30120855014268,-0.32542387,9.126225,3.7663028,0.0,0.0,0.0
30120857393226,-0.3397808,9.111869,3.790231,0.0,0.0,0.0
30120859772132,-0.3397808,9.150154,3.8141594,0.0,0.0,0.0
30120862151091,-0.32542387,9.131011,3.8141594,0.0,0.0,0.0
30120864529997,-0.33499518,9.131011,3.8093736,0.0,0.0,0.0
30120866908903,-0.35413775,9.116654,3.790231,0.0,0.0,0.0
30120869287862,-0.3589234,9.111869,3.7758741,0.0,0.0,0.0
30120871666768,-0.3684947,9.102298,3.804588,0.0,0.0,0.0
30120874045726,-0.37806597,9.102298,3.790231,0.0,0.0,0.0
30120876424632,-0.3924229,9.107083,3.790231,0.0,0.0,0.0
30120878803539,-0.3684947,9.107083,3.7854455,0.0,0.0,0.0
30120881182497,-0.3493521,9.092726,3.7758741,0.0,0.0,0.0
30120883561403,-0.3397808,9.116654,3.7567315,0.0,0.0,0.0
30120885940309,-0.3397808,9.140582,3.7615173,0.0,0.0,0.0
30120888319268,-0.33499518,9.12144,3.7567315,0.0,0.0,0.0
30120890698174,-0.32542387,9.107083,3.7567315,0.0,0.0,0.0
30120893077080,-0.30149564,9.131011,3.7806597,0.0,0.0,0.0
30120895456039,-0.30149564,9.116654,3.7806597,0.0,0.0,0.0
30120897834945,-0.32063824,9.107083,3.7663028,0.0,0.0,0.0
30120900213903,-0.30149564,9.150154,3.7567315,0.0,0.0,0.0
30120902592809,-0.28235307,9.140582,3.7567315,0.0,0.0,0.0
30120904971716,-0.2727818,9.140582,3.751946,0.0,0.0,0.0
30120907350674,-0.28713873,9.135797,3.7567315,0.0,0.0,0.0
30120909729580,-0.2632105,9.140582,3.7615173,0.0,0.0,0.0
30120912108487,-0.27756742,9.131011,3.7471602,0.0,0.0,0.0
30120914487445,-0.28235307,9.12144,3.7280176,0.0,0.0,0.0
30120916866351,-0.29192436,9.131011,3.7280176,0.0,0.0,0.0
30120919245257,-0.29671,9.135797,3.7280176,0.0,0.0,0.0
30120921624216,-0.32063824,9.131011,3.7184465,0.0,0.0,0.0
30120924003122,-0.31106696,9.12144,3.7280176,0.0,0.0,0.0
30120926382080,-0.32542387,9.116654,3.7280176,0.0,0.0,0.0
30120928760987,-0.32542387,9.140582,3.7615173,0.0,0.0,0.0
30120931139893,-0.3493521,9.131011,3.7567315,0.0,0.0,0.0
30120933518851,-0.33499518,9.126225,3.7710886,0.0,0.0,0.0
30120935897757,-0.36370903,9.140582,3.751946,0.0,0.0,0.0
30120938276664,-0.3589234,9.140582,3.7615173,0.0,0.0,0.0
30120940655622,-0.3493521,9.159725,3.7615173,0.0,0.0,0.0
30120943034528,-0.3397808,9.145369,3.751946,0.0,0.0,0.0
30120945413434,-0.32542387,9.145369,3.7423747,0.0,0.0,0.0
30120947792393,-0.3062813,9.150154,3.7471602,0.0,0.0,0.0
30120950171299,-0.29192436,9.150154,3.7567315,0.0,0.0,0.0
30120952550257,-0.31106696,9.159725,3.751946,0.0,0.0,0.0
30120954929164,-0.29671,9.159725,3.7567315,0.0,0.0,0.0
30120957308122,-0.30149564,9.150154,3.7615173,0.0,0.0,0.0
30120959687028,-0.28235307,9.140582,3.7758741,0.0,0.0,0.0
30120962065934,-0.27756742,9.131011,3.7758741,0.0,0.0,0.0
30120964444841,-0.2727818,9.131011,3.7615173,0.0,0.0,0.0
30120966823799,-0.2632105,9.08794,3.7758741,0.0,0.0,0.0
30120969202705,-0.27756742,9.102298,3.8093736,0.0,0.0,0.0
30120971581664,-0.28235307,9.08794,3.7950168,0.0,0.0,0.0
30120973960570,-0.29192436,9.092726,3.7854455,0.0,0.0,0.0
30120976339476,-0.28713873,9.083155,3.790231,0.0,0.0,0.0
30120978718382,-0.2632105,9.08794,3.7758741,0.0,0.0,0.0
30120981097341,-0.23928227,9.107083,3.751946,0.0,0.0,0.0
30120983476247,-0.2440679,9.092726,3.804588,0.0,0.0,0.0
30120985855205,-0.22013968,9.064013,3.804588,0.0,0.0,0.0
30120988234112,-0.22492532,9.08794,3.7758741,0.0,0.0,0.0
30120990613070,-0.2105684,9.078369,3.7806597,0.0,0.0,0.0
30120992991976,-0.17706887,9.078369,3.7950168,0.0,0.0,0.0
30120995370830,-0.148355,9.08794,3.818945,0.0,0.0,0.0
30120997749841,-0.13878371,9.073584,3.8141594,0.0,0.0,0.0
30121000128747,-0.11964113,9.083155,3.8333018,0.0,0.0,0.0
30121002507653,-0.11006984,9.092726,3.8476589,0.0,0.0,0.0
30121004886612,-0.1052842,9.092726,3.8524444,0.0,0.0,0.0
30121007265518,-0.1052842,9.073584,3.8572302,0.0,0.0,0.0
30121009644424,-0.09571291,9.064013,3.8572302,0.0,0.0,0.0
30121012023382,-0.086141616,9.068798,3.871587,0.0,0.0,0.0
30121014402289,-0.07178468,9.064013,3.8763726,0.0,0.0,0.0
30121016781247,-0.086141616,9.064013,3.8811584,0.0,0.0,0.0
30121019160101,-0.086141616,9.064013,3.8572302,0.0,0.0,0.0
30121021539059,-0.09092726,9.0544405,3.8572302,0.0,0.0,0.0
30121023918018,-0.09571291,9.064013,3.8524444,0.0,0.0,0.0
30121026296924,-0.10049855,9.064013,3.8524444,0.0,0.0,0.0
30121028675830,-0.11485548,9.0544405,3.8668015,0.0,0.0,0.0
30121031054789,-0.11485548,9.035298,3.8907297,0.0,0.0,0.0
30121033433695,-0.13399807,9.035298,3.9050865,0.0,0.0,0.0
30121035812653,-0.16749759,9.064013,3.9098723,0.0,0.0,0.0
30121038191559,-0.20578274,9.068798,3.9242291,0.0,0.0,0.0
30121040570466,-0.2105684,9.078369,3.8907297,0.0,0.0,0.0
30121042949424,-0.22492532,9.097511,3.871587,0.0,0.0,0.0
30121045328330,-0.2105684,9.102298,3.885944,0.0,0.0,0.0
30121047707237,-0.23449662,9.092726,3.9242291,0.0,0.0,0.0
30121050086195,-0.22013968,9.0544405,3.9194436,0.0,0.0,0.0
30121052465101,-0.2105684,9.068798,3.9146578,0.0,0.0,0.0
30121054844007,-0.2009971,9.078369,3.900301,0.0,0.0,0.0
30121057222966,-0.18664017,9.078369,3.8907297,0.0,0.0,0.0
30121059601872,-0.19621146,9.078369,3.885944,0.0,0.0,0.0
30121061980830,-0.19621146,9.064013,3.8763726,0.0,0.0,0.0
30121064359737,-0.20578274,9.068798,3.8955152,0.0,0.0,0.0
30121066738643,-0.18185452,9.059227,3.871587,0.0,0.0,0.0
30121069117601,-0.19621146,9.068798,3.8668015,0.0,0.0,0.0
30121071496507,-0.17228323,9.068798,3.8333018,0.0,0.0,0.0
30121073875414,-0.15314065,9.116654,3.8476589,0.0,0.0,0.0
30121076254372,-0.17706887,9.2075815,3.8380876,0.0,0.0,0.0
30121078633278,-0.18185452,9.298509,3.7950168,0.0,0.0,0.0
30121081012184,-0.21535404,9.226724,3.723232,0.0,0.0,0.0
30121083391143,-0.22492532,9.073584,3.6227336,0.0,0.0,0.0
30121085770049,-0.2632105,8.977871,3.6466618,0.0,0.0,0.0
30121088149007,-0.26799613,8.968299,3.7806597,0.0,0.0,0.0
30121090527914,-0.31106696,8.872586,3.885944,0.0,0.0,0.0
30121092906820,-0.3397808,8.805588,3.8572302,0.0,0.0,0.0
30121095285778,-0.33499518,8.882157,3.7854455,0.0,0.0,0.0
30121097664684,-0.2727818,8.9108715,3.7280176,0.0,0.0,0.0
30121100043591,-0.29671,8.906086,3.7950168,0.0,0.0,0.0
30121102422549,-0.20578274,8.939586,3.9098723,0.0,0.0,0.0
30121104801455,-0.19621146,9.0544405,3.9864426,0.0,0.0,0.0
30121107180414,-0.11485548,9.006584,3.8380876,0.0,0.0,0.0
30121109559320,-0.086141616,9.08794,3.7184465,0.0,0.0,0.0
30121111938226,-0.0047856453,9.178867,3.603591,0.0,0.0,0.0
30121114317184,0.0047856453,9.193225,3.6370904,0.0,0.0,0.0
30121116696091,0.1052842,9.12144,3.723232,0.0,0.0,0.0
30121119074997,0.05742774,9.159725,3.8572302,0.0,0.0,0.0
30121121453955,0.1052842,9.078369,3.8524444,0.0,0.0,0.0
30121123832862,0.076570325,9.020942,3.8237305,0.0,0.0,0.0
30121126211768,0.124426775,8.968299,3.7328033,0.0,0.0,0.0
30121128590726,0.09092726,8.9826565,3.6753755,0.0,0.0,0.0
30121130969632,0.05742774,8.987442,3.6466618,0.0,0.0,0.0
30121133348591,0.047856454,9.169296,3.7280176,0.0,0.0,0.0
30121135727497,0.023928227,9.327223,3.8907297,0.0,0.0,0.0
30121138106403,-0.019142581,9.126225,4.019942,0.0,0.0,0.0
30121140485362,-0.062213387,8.987442,3.9864426,0.0,0.0,0.0
30121142864268,-0.14356937,9.241081,3.8524444,0.0,0.0,0.0
30121145243174,-0.10049855,9.255438,3.7567315,0.0,0.0,0.0
30121147622080,-0.17228323,9.064013,3.737589,0.0,0.0,0.0
30121150001039,-0.2536392,9.159725,3.8668015,0.0,0.0,0.0
30121152379997,-0.22971097,9.178867,3.9481573,0.0,0.0,0.0
30121154758903,-0.2440679,9.174082,3.9433718,0.0,0.0,0.0
30121157137809,-0.32542387,9.327223,3.842873,0.0,0.0,0.0
30121159516768,-0.2536392,9.475577,3.818945,0.0,0.0,0.0
30121161895674,-0.2440679,9.389436,3.8668015,0.0,0.0,0.0
30121164274580,-0.26799613,9.403793,3.938586,0.0,0.0,0.0
30121166653539,-0.22971097,9.437292,3.9433718,0.0,0.0,0.0
30121169032445,-0.22971097,9.365508,3.9481573,0.0,0.0,0.0
30121171411351,-0.22013968,9.260223,3.9098723,0.0,0.0,0.0
30121173790309,-0.20578274,9.250652,3.8955152,0.0,0.0,0.0
30121176169216,-0.19621146,9.19801,3.8141594,0.0,0.0,0.0
30121178548122,-0.19142582,9.126225,3.7998023,0.0,0.0,0.0
30121180927080,-0.16271193,9.044869,3.8237305,0.0,0.0,0.0
30121183305987,-0.2105684,8.9826565,3.9290147,0.0,0.0,0.0
30121185684945,-0.20578274,8.867801,3.9577286,0.0,0.0,0.0
30121188063851,-0.2536392,8.9108715,3.9433718,0.0,0.0,0.0
30121190442757,-0.22013968,8.9348,3.871587,0.0,0.0,0.0
30121192821716,-0.24885355,8.891729,3.818945,0.0,0.0,0.0
30121195200622,-0.19621146,8.877372,3.8141594,0.0,0.0,0.0
30121197579528,-0.18185452,8.896515,3.8811584,0.0,0.0,0.0
30121199958434,-0.16271193,8.896515,3.938586,0.0,0.0,0.0
30121202337393,-0.16271193,8.896515,3.991228,0.0,0.0,0.0
30121204716299,-0.11485548,8.9013,3.9720855,0.0,0.0,0.0
30121207095257,-0.12921242,8.987442,3.9290147,0.0,0.0,0.0
30121209474164,-0.124426775,8.977871,3.8811584,0.0,0.0,0.0
30121211853122,-0.124426775,9.001799,3.8955152,0.0,0.0,0.0
30121214232028,-0.124426775,9.035298,3.9338005,0.0,0.0,0.0
30121216610934,-0.12921242,9.035298,4.0151563,0.0,0.0,0.0
30121218989893,-0.17706887,9.030513,4.058227,0.0,0.0,0.0
30121221368799,-0.25842485,9.040084,4.091727,0.0,0.0,0.0
30121223747705,-0.26799613,9.059227,4.0869412,0.0,0.0,0.0
30121226126612,-0.27756742,9.040084,4.0965123,0.0,0.0,0.0
30121228505570,-0.32063824,9.025727,4.0773697,0.0,0.0,0.0
30121230884528,-0.3397808,9.030513,4.082155,0.0,0.0,0.0
30121233263434,-0.3493521,9.035298,4.063013,0.0,0.0,0.0
30121235642341,-0.35413775,9.020942,4.058227,0.0,0.0,0.0
30121238021299,-0.3684947,9.020942,4.0390844,0.0,0.0,0.0
30121240400205,-0.34456646,9.020942,3.9768713,0.0,0.0,0.0
30121242779112,-0.33020952,9.030513,3.885944,0.0,0.0,0.0
30121245158070,-0.31585258,9.001799,3.818945,0.0,0.0,0.0
30121247536976,-0.3062813,9.006584,3.7471602,0.0,0.0,0.0
30121249915882,-0.2727818,8.958728,3.6753755,0.0,0.0,0.0
30121252294841,-0.2536392,8.9348,3.6179478,0.0,0.0,0.0
30121254673747,-0.23449662,8.872586,3.546163,0.0,0.0,0.0
30121257052653,-0.20578274,8.843872,3.5365918,0.0,0.0,0.0
30121259431612,-0.12921242,8.805588,3.4887354,0.0,0.0,0.0
30121261810518,-0.11485548,8.786445,3.4600215,0.0,0.0,0.0
30121264189476,-0.09092726,8.776874,3.4456646,0.0,0.0,0.0
30121266568382,-0.09571291,8.829515,3.4504502,0.0,0.0,0.0
30121268947289,-0.09571291,8.9108715,3.4791641,0.0,0.0,0.0
30121271326247,-0.17706887,8.968299,3.4983068,0.0,0.0,0.0
30121273705153,-0.2536392,8.997013,3.546163,0.0,0.0,0.0
30121276084059,-0.3493521,9.035298,3.5365918,0.0,0.0,0.0
30121278463018,-0.49292147,9.15494,3.5892339,0.0,0.0,0.0
30121280841924,-0.66041905,9.15494,3.5940197,0.0,0.0,0.0
30121283220830,-0.89013004,9.312865,3.6993039,0.0,0.0,0.0
30121285599789,-1.0767702,9.657433,4.0103707,0.0,0.0,0.0
30121287978695,-1.2059826,9.700503,4.024728,0.0,0.0,0.0
30121290357653,-1.3974084,9.796216,3.8141594,0.0,0.0,0.0
30121292736559,-1.3399807,9.997213,3.5318062,0.0,0.0,0.0
30121295115466,-1.4069797,10.112068,3.5796626,0.0,0.0,0.0
30121297494424,-1.2394822,9.954143,3.8333018,0.0,0.0,0.0
30121299873330,-1.1724831,9.906285,4.1587257,0.0,0.0,0.0
30121302252237,-0.8805587,9.858429,4.1108694,0.0,0.0,0.0
30121304631195,-0.71306115,9.762716,3.9768713,0.0,0.0,0.0
30121307010101,-0.3684947,9.537791,3.804588,0.0,0.0,0.0
30121309389059,-0.148355,9.45165,3.8763726,0.0,0.0,0.0
30121311767966,0.11006984,9.265009,4.0007997,0.0,0.0,0.0
30121314146872,0.32063824,9.064013,4.168297,0.0,0.0,0.0
30121316525830,0.4833502,8.915657,4.211368,0.0,0.0,0.0
30121318904737,0.60777694,8.848659,4.091727,0.0,0.0,0.0
30121321283643,0.6891329,8.729017,3.9098723,0.0,0.0,0.0
30121323662549,0.70348984,8.662018,3.7040894,0.0,0.0,0.0
30121326041507,0.63170516,8.642876,3.5557344,0.0,0.0,0.0
30121328420414,0.55034924,8.5423765,3.5126636,0.0,0.0,0.0
30121330799372,0.35413775,8.537591,3.7567315,0.0,0.0,0.0
30121333178278,0.25842485,8.580662,3.9290147,0.0,0.0,0.0
30121335557184,0.02871387,8.537591,3.842873,0.0,0.0,0.0
30121337936143,-0.047856454,8.513663,3.4600215,0.0,0.0,0.0
30121340315049,-0.17706887,8.705089,3.225525,0.0,0.0,0.0
30121342694007,-0.2440679,8.738588,3.2638102,0.0,0.0,0.0
30121345072914,-0.35413775,8.633304,3.5413775,0.0,0.0,0.0
30121347451820,-0.3924229,8.63809,3.8333018,0.0,0.0,0.0
30121349830778,-0.41635114,8.7577305,3.9577286,0.0,0.0,0.0
30121352209684,-0.4019942,8.772088,3.938586,0.0,0.0,0.0
30121354588591,-0.32542387,8.733803,3.7615173,0.0,0.0,0.0
30121356967549,-0.31585258,8.867801,3.6131623,0.0,0.0,0.0
30121359346455,-0.31585258,9.040084,3.7184465,0.0,0.0,0.0
30121361725362,-0.3062813,9.001799,3.9960139,0.0,0.0,0.0
30121364104320,-0.3062813,9.08794,4.2831526,0.0,0.0,0.0
30121366483226,-0.3684947,9.241081,4.2927237,0.0,0.0,0.0
30121368862184,-0.40677986,9.446864,4.3118663,0.0,0.0,0.0
30121371241091,-0.32542387,9.293723,3.9768713,0.0,0.0,0.0
30121373619997,-0.4211368,9.446864,3.7471602,0.0,0.0,0.0
30121375998955,-0.38285163,9.614362,3.7136607,0.0,0.0,0.0
30121378377862,-0.46899325,9.609575,4.0869412,0.0,0.0,0.0
30121380756768,-0.42592242,9.212367,4.0534415,0.0,0.0,0.0
30121383135726,-0.4019942,9.446864,4.15394,0.0,0.0,0.0
30121385514632,-0.38763726,9.518648,4.2017965,0.0,0.0,0.0
30121387893539,-0.31585258,9.241081,4.0103707,0.0,0.0,0.0
30121390272497,-0.2105684,9.183653,3.603591,0.0,0.0,0.0
30121392651403,-0.23928227,9.523434,3.67059,0.0,0.0,0.0
30121395030362,-0.2632105,9.241081,3.900301,0.0,0.0,0.0
30121397409268,-0.23928227,8.920443,4.091727,0.0,0.0,0.0
30121399788174,-0.33499518,9.250652,4.3357944,0.0,0.0,0.0
30121402167132,-0.40677986,9.064013,4.024728,0.0,0.0,0.0
30121404546039,-0.47377887,8.968299,3.8380876,0.0,0.0,0.0
30121406924945,-0.55513483,9.01137,3.5796626,0.0,0.0,0.0
30121409303903,-0.64606214,9.040084,3.5270207,0.0,0.0,0.0
30121411682809,-0.7704889,8.834301,3.6370904,0.0,0.0,0.0
30121414061716,-0.7752745,8.781659,3.737589,0.0,0.0,0.0
30121416440674,-0.79920274,8.968299,3.8524444,0.0,0.0,0.0
30121418819580,-0.7322037,8.781659,3.656233,0.0,0.0,0.0
30121421198487,-0.7752745,8.839087,3.7040894,0.0,0.0,0.0
30121423577445,-0.59342,8.848659,3.6753755,0.0,0.0,0.0
30121425956351,-0.55034924,8.848659,3.7328033,0.0,0.0,0.0
30121428335309,-0.38285163,8.853444,3.737589,0.0,0.0,0.0
30121430714216,-0.35413775,8.9013,3.723232,0.0,0.0,0.0
30121433093122,-0.17228323,8.9108715,3.818945,0.0,0.0,0.0
30121435472080,-0.148355,8.958728,4.072584,0.0,0.0,0.0
30121437850987,-0.02871387,9.01137,4.15394,0.0,0.0,0.0
30121440229893,0.033499517,9.049655,3.8763726,0.0,0.0,0.0
30121442608851,0.07178468,9.265009,3.7806597,0.0,0.0,0.0
30121444987757,0.047856454,9.312865,3.7663028,0.0,0.0,0.0
30121447366716,0.023928227,9.336794,3.9050865,0.0,0.0,0.0
30121449745622,-0.086141616,9.408579,3.9577286,0.0,0.0,0.0
30121452124528,-0.15314065,9.52822,3.9194436,0.0,0.0,0.0
30121454503434,-0.22971097,9.485149,3.7280176,0.0,0.0,0.0
30121456882393,-0.3493521,9.432507,3.6275191,0.0,0.0,0.0
30121459261299,-0.46899325,9.446864,3.6323047,0.0,0.0,0.0
30121461640257,-0.55513483,9.370294,3.7854455,0.0,0.0,0.0
30121464019164,-0.70348984,9.288938,3.8955152,0.0,0.0,0.0
30121466398070,-0.7752745,9.174082,3.9098723,0.0,0.0,0.0
30121468777028,-0.83748794,9.174082,3.991228,0.0,0.0,0.0
30121471155934,-0.8039884,8.997013,3.871587,0.0,0.0,0.0
30121473534841,-0.7513463,8.973084,3.8141594,0.0,0.0,0.0
30121475913799,-0.7322037,8.891729,3.6993039,0.0,0.0,0.0
30121478292705,-0.6556334,8.977871,3.8237305,0.0,0.0,0.0
30121480671664,-0.5455636,8.848659,3.7040894,0.0,0.0,0.0
30121483050570,-0.41635114,8.9826565,3.7854455,0.0,0.0,0.0
30121485429476,-0.35413775,8.925228,3.7328033,0.0,0.0,0.0
30121487808434,-0.18664017,8.920443,3.7950168,0.0,0.0,0.0
30121490187341,-0.1052842,8.896515,3.7471602,0.0,0.0,0.0
30121492566247,-0.009571291,8.977871,3.7854455,0.0,0.0,0.0
30121494945205,0.014356935,8.939586,3.7040894,0.0,0.0,0.0
30121497324112,0.1052842,8.977871,3.7280176,0.0,0.0,0.0
30121499703018,0.11964113,8.9826565,3.6323047,0.0,0.0,0.0
30121502081976,0.07178468,9.111869,3.7088752,0.0,0.0,0.0
30121504460882,0.009571291,9.073584,3.6753755,0.0,0.0,0.0
30121506839789,-0.124426775,9.131011,3.723232,0.0,0.0,0.0
30121509218747,-0.22013968,9.245867,3.737589,0.0,0.0,0.0
30121511597653,-0.38285163,9.288938,3.737589,0.0,0.0,0.0
30121513976559,-0.5168497,9.250652,3.7088752,0.0,0.0,0.0
30121516355518,-0.63170516,9.255438,3.723232,0.0,0.0,0.0
30121518734424,-0.7513463,9.312865,3.7998023,0.0,0.0,0.0
30121521113382,-0.83748794,9.255438,3.7950168,0.0,0.0,0.0
30121523492289,-0.8279166,9.245867,3.871587,0.0,0.0,0.0
30121525871195,-0.82313097,9.255438,3.8620157,0.0,0.0,0.0
30121528250153,-0.79920274,9.241081,3.8333018,0.0,0.0,0.0
30121530629059,-0.72741807,9.178867,3.7950168,0.0,0.0,0.0
30121533007966,-0.6125626,9.174082,3.8285162,0.0,0.0,0.0
30121535386924,-0.47377887,9.178867,3.8141594,0.0,0.0,0.0
30121537765830,-0.3589234,9.126225,3.8285162,0.0,0.0,0.0
30121540144737,-0.22013968,9.092726,3.818945,0.0,0.0,0.0
30121542523695,-0.086141616,9.102298,3.804588,0.0,0.0,0.0
30121544902601,-0.0047856453,9.078369,3.790231,0.0,0.0,0.0
30121547281559,0.06699903,9.059227,3.8141594,0.0,0.0,0.0
30121549660466,0.15314065,9.030513,3.842873,0.0,0.0,0.0
30121552039372,0.15792629,9.030513,3.8955152,0.0,0.0,0.0
30121554418330,0.15792629,8.997013,3.8955152,0.0,0.0,0.0
30121556797237,0.1052842,8.992228,3.900301,0.0,0.0,0.0
30121559176143,0.02871387,9.016156,3.900301,0.0,0.0,0.0
30121561555101,-0.08135597,9.006584,3.871587,0.0,0.0,0.0
30121563934007,-0.18664017,8.997013,3.885944,0.0,0.0,0.0
30121566312914,-0.31585258,9.01137,3.900301,0.0,0.0,0.0
30121568691872,-0.44985065,9.030513,3.8955152,0.0,0.0,0.0
30121571070778,-0.5694918,9.035298,3.8763726,0.0,0.0,0.0
30121573449684,-0.6891329,9.083155,3.871587,0.0,0.0,0.0
30121575828643,-0.7896315,9.102298,3.818945,0.0,0.0,0.0
30121578207549,-0.83748794,9.111869,3.7854455,0.0,0.0,0.0
30121580586507,-0.8566305,9.126225,3.7758741,0.0,0.0,0.0
30121582965414,-0.86141616,9.159725,3.804588,0.0,0.0,0.0
30121585344320,-0.79920274,9.174082,3.8141594,0.0,0.0,0.0
30121587723278,-0.72741807,9.169296,3.8333018,0.0,0.0,0.0
30121590102184,-0.6125626,9.188439,3.804588,0.0,0.0,0.0
30121592481091,-0.5168497,9.174082,3.7806597,0.0,0.0,0.0
30121594860049,-0.3493521,9.150154,3.7471602,0.0,0.0,0.0
30121597238955,-0.22971097,9.135797,3.723232,0.0,0.0,0.0
30121599617914,-0.09571291,9.140582,3.737589,0.0,0.0,0.0
30121601996820,0.009571291,9.111869,3.751946,0.0,0.0,0.0
30121604375726,0.07178468,9.078369,3.7710886,0.0,0.0,0.0
30121606754632,0.10049855,9.140582,3.7710886,0.0,0.0,0.0
30121609133591,0.13878371,9.135797,3.723232,0.0,0.0,0.0
30121611512497,0.08135597,9.126225,3.7328033,0.0,0.0,0.0
30121613891455,0.047856454,9.126225,3.7423747,0.0,0.0,0.0
30121616270362,-0.043070808,9.126225,3.7998023,0.0,0.0,0.0
30121618649268,-0.13399807,9.08794,3.804588,0.0,0.0,0.0
30121621028226,-0.2727818,9.083155,3.818945,0.0,0.0,0.0
30121623407132,-0.4019942,9.102298,3.7950168,0.0,0.0,0.0
30121625786039,-0.49292147,9.08794,3.7615173,0.0,0.0,0.0
30121628164997,-0.57906306,9.092726,3.7758741,0.0,0.0,0.0
30121630543903,-0.6652047,9.135797,3.8141594,0.0,0.0,0.0
30121632922809,-0.7369894,9.140582,3.8524444,0.0,0.0,0.0
30121635301768,-0.8039884,9.150154,3.8476589,0.0,0.0,0.0
30121637680674,-0.7752745,9.183653,3.871587,0.0,0.0,0.0
30121640059632,-0.65084773,9.202796,3.8380876,0.0,0.0,0.0
30121642438539,-0.5168497,9.169296,3.7854455,0.0,0.0,0.0
30121644817445,-0.23928227,9.159725,3.7854455,0.0,0.0,0.0
30121647196403,0.0047856453,9.174082,3.8476589,0.0,0.0,0.0
30121649575309,0.2009971,9.159725,3.8955152,0.0,0.0,0.0
30121651954216,0.4211368,9.102298,3.8955152,0.0,0.0,0.0
30121654333174,0.60777694,9.092726,3.8907297,0.0,0.0,0.0
30121656712080,0.6795616,9.078369,3.8476589,0.0,0.0,0.0
30121659090987,0.6843473,9.025727,3.8237305,0.0,0.0,0.0
30121661469945,0.66999036,9.01137,3.7950168,0.0,0.0,0.0
30121663848851,0.5838487,9.040084,3.8141594,0.0,0.0,0.0
30121666227757,0.44985065,9.044869,3.8476589,0.0,0.0,0.0
30121668606716,0.29671,9.044869,3.8572302,0.0,0.0,0.0
30121670985570,0.17228323,9.073584,3.8524444,0.0,0.0,0.0
30121673364528,0.014356935,9.102298,3.8380876,0.0,0.0,0.0
30121675743487,-0.11006984,9.12144,3.790231,0.0,0.0,0.0
30121678122393,-0.19142582,9.164511,3.7758741,0.0,0.0,0.0
30121680501351,-0.26799613,9.135797,3.7663028,0.0,0.0,0.0
30121682880257,-0.28713873,9.135797,3.8093736,0.0,0.0,0.0
30121685259164,-0.32542387,9.097511,3.8668015,0.0,0.0,0.0
30121687638122,-0.29671,9.08794,3.871587,0.0,0.0,0.0
30121690017028,-0.23449662,9.107083,3.8620157,0.0,0.0,0.0
30121692395934,-0.15792629,9.111869,3.8141594,0.0,0.0,0.0
30121694774893,-0.076570325,9.131011,3.804588,0.0,0.0,0.0
30121697153799,-0.023928227,9.150154,3.8141594,0.0,0.0,0.0
30121699532705,0.05742774,9.164511,3.8524444,0.0,0.0,0.0
30121701911664,0.11006984,9.15494,3.885944,0.0,0.0,0.0
30121704290570,0.18185452,9.159725,3.8763726,0.0,0.0,0.0
30121706669476,0.25842485,9.140582,3.842873,0.0,0.0,0.0
30121709048434,0.32542387,9.12144,3.7950168,0.0,0.0,0.0
30121711427341,0.3684947,9.116654,3.7998023,0.0,0.0,0.0
30121713806299,0.4211368,9.097511,3.8285162,0.0,0.0,0.0
30121716185205,0.47377887,9.073584,3.8237305,0.0,0.0,0.0
30121718564112,0.41635114,9.073584,3.8476589,0.0,0.0,0.0
30121720943018,0.4019942,9.044869,3.8572302,0.0,0.0,0.0
30121723321976,0.34456646,9.073584,3.8811584,0.0,0.0,0.0
30121725700882,0.25842485,9.035298,3.885944,0.0,0.0,0.0
30121728079841,0.14356937,9.059227,3.885944,0.0,0.0,0.0
30121730458747,0.043070808,9.073584,3.842873,0.0,0.0,0.0
30121732837653,-0.09092726,9.059227,3.818945,0.0,0.0,0.0
30121735216612,-0.18664017,9.078369,3.818945,0.0,0.0,0.0
30121737595518,-0.29192436,9.097511,3.842873,0.0,0.0,0.0
30121739974476,-0.3684947,9.049655,3.8620157,0.0,0.0,0.0
30121742353382,-0.4211368,9.073584,3.8763726,0.0,0.0,0.0
30121744732289,-0.42592242,9.116654,3.8380876,0.0,0.0,0.0
30121747111195,-0.41635114,9.111869,3.804588,0.0,0.0,0.0
30121749490153,-0.4019942,9.102298,3.790231,0.0,0.0,0.0
30121751869059,-0.32542387,9.111869,3.790231,0.0,0.0,0.0
30121754248018,-0.23449662,9.126225,3.7950168,0.0,0.0,0.0
30121756626924,-0.15314065,9.092726,3.790231,0.0,0.0,0.0
30121759005830,-0.0526421,9.073584,3.8093736,0.0,0.0,0.0
30121761384789,0.019142581,9.116654,3.7950168,0.0,0.0,0.0
30121763763695,0.06699903,9.12144,3.737589,0.0,0.0,0.0
30121766142601,0.1052842,9.102298,3.7184465,0.0,0.0,0.0
30121768521559,0.12921242,9.116654,3.7040894,0.0,0.0,0.0
30121770900466,0.13399807,9.116654,3.723232,0.0,0.0,0.0
30121773279372,0.13399807,9.097511,3.737589,0.0,0.0,0.0
30121775658330,0.12921242,9.111869,3.7567315,0.0,0.0,0.0
30121778037237,0.11964113,9.12144,3.7567315,0.0,0.0,0.0
30121780416143,0.09571291,9.135797,3.7423747,0.0,0.0,0.0
30121782795101,0.08135597,9.140582,3.7567315,0.0,0.0,0.0
30121785174007,0.0526421,9.164511,3.7710886,0.0,0.0,0.0
30121787552914,0.038285162,9.15494,3.8093736,0.0,0.0,0.0
30121789931872,0.019142581,9.145369,3.8476589,0.0,0.0,0.0
30121792310778,-0.043070808,9.131011,3.8811584,0.0,0.0,0.0
30121794689737,-0.033499517,9.131011,3.900301,0.0,0.0,0.0
30121797068643,-0.047856454,9.12144,3.8955152,0.0,0.0,0.0
30121799447549,-0.09092726,9.111869,3.8811584,0.0,0.0,0.0
30121801826507,-0.10049855,9.135797,3.885944,0.0,0.0,0.0
30121804205414,-0.13878371,9.111869,3.9194436,0.0,0.0,0.0
30121806584320,-0.148355,9.092726,3.9768713,0.0,0.0,0.0
30121808963278,-0.13399807,9.131011,4.019942,0.0,0.0,0.0
30121811342184,-0.11006984,9.116654,4.024728,0.0,0.0,0.0
30121813721091,-0.086141616,9.111869,3.9960139,0.0,0.0,0.0
30121816100049,-0.06699903,9.145369,3.9720855,0.0,0.0,0.0
30121818478955,-0.047856454,9.131011,3.9816568,0.0,0.0,0.0
30121820857914,-0.02871387,9.107083,4.034299,0.0,0.0,0.0
30121823236820,0.038285162,9.083155,4.082155,0.0,0.0,0.0
30121825615726,0.06699903,9.083155,4.106084,0.0,0.0,0.0
30121827994684,0.06699903,9.083155,4.072584,0.0,0.0,0.0
30121830373591,0.0526421,9.059227,4.024728,0.0,0.0,0.0
30121832752497,0.038285162,9.083155,3.9433718,0.0,0.0,0.0
30121835131455,0.019142581,9.073584,3.9050865,0.0,0.0,0.0
30121837510362,-0.02871387,9.068798,3.8955152,0.0,0.0,0.0
30121839889268,-0.09092726,9.064013,3.9050865,0.0,0.0,0.0
30121842268226,-0.148355,9.068798,3.9050865,0.0,0.0,0.0
30121844647132,-0.16271193,9.044869,3.8620157,0.0,0.0,0.0
30121847026039,-0.18185452,9.040084,3.8141594,0.0,0.0,0.0
30121849404997,-0.2009971,9.059227,3.7136607,0.0,0.0,0.0
30121851783903,-0.19621146,9.0544405,3.67059,0.0,0.0,0.0
30121854162809,-0.19621146,9.01137,3.6370904,0.0,0.0,0.0
30121856541768,-0.19621146,9.035298,3.6466618,0.0,0.0,0.0
30121858920674,-0.22013968,9.040084,3.656233,0.0,0.0,0.0
30121861299580,-0.22492532,9.049655,3.6753755,0.0,0.0,0.0
30121863678539,-0.18185452,9.0544405,3.67059,0.0,0.0,0.0
30121866057445,-0.16271193,9.049655,3.641876,0.0,0.0,0.0
30121868436403,-0.124426775,9.073584,3.6514473,0.0,0.0,0.0
30121870815309,-0.12921242,9.08794,3.6849468,0.0,0.0,0.0
30121873194216,-0.09092726,9.12144,3.7806597,0.0,0.0,0.0
30121875573174,-0.02871387,9.221938,3.9242291,0.0,0.0,0.0
30121877952080,0.07178468,9.126225,3.6849468,0.0,0.0,0.0
30121880330987,0.11006984,9.221938,3.1345978,0.0,0.0,0.0
30121882709945,0.29192436,9.360723,2.6368906,0.0,0.0,0.0
30121885088851,0.33499518,9.250652,2.7708886,0.0,0.0,0.0
30121887467757,0.41156548,9.01137,3.522235,0.0,0.0,0.0
30121889846716,0.42592242,8.973084,4.4315076,0.0,0.0,0.0
30121892225622,0.52163535,8.9013,4.6372905,0.0,0.0,0.0
30121894604528,0.5168497,8.953942,4.0869412,0.0,0.0,0.0
30121896983487,0.5455636,9.174082,3.2015967,0.0,0.0,0.0
30121899362393,0.5168497,9.284152,2.7086751,0.0,0.0,0.0
30121901741351,0.41635114,9.15494,2.9766715,0.0,0.0,0.0
30121904120257,0.2727818,8.997013,3.7615173,0.0,0.0,0.0
30121906499164,0.11006984,9.040084,4.426722,0.0,0.0,0.0
30121908878122,-0.062213387,9.073584,4.5320063,0.0,0.0,0.0
30121911257028,-0.17706887,9.102298,4.063013,0.0,0.0,0.0
30121913635934,-0.2632105,9.202796,3.37388,0.0,0.0,0.0
30121916014893,-0.38285163,9.245867,3.0723844,0.0,0.0,0.0
30121918393799,-0.44027936,9.145369,3.2159536,0.0,0.0,0.0
30121920772705,-0.46899325,9.131011,3.7663028,0.0,0.0,0.0
30121923151664,-0.59342,9.15494,4.273581,0.0,0.0,0.0
30121925530570,-0.6125626,9.116654,4.45065,0.0,0.0,0.0
30121927909476,-0.5886344,9.097511,4.15394,0.0,0.0,0.0
30121930288434,-0.6221339,9.212367,3.6849468,0.0,0.0,0.0
30121932667341,-0.61734825,9.23151,3.3547373,0.0,0.0,0.0
30121935046247,-0.5982057,9.19801,3.4408789,0.0,0.0,0.0
30121937425205,-0.6412765,9.174082,3.8763726,0.0,0.0,0.0
30121939804112,-0.6269195,9.08794,4.3836513,0.0,0.0,0.0
30121942183070,-0.59342,9.001799,4.56072,0.0,0.0,0.0
30121944561976,-0.5024927,9.0544405,4.321438,0.0,0.0,0.0
30121946940882,-0.36370903,9.102298,3.8333018,0.0,0.0,0.0
30121949319841,-0.2727818,9.107083,3.507878,0.0,0.0,0.0
30121951698747,-0.19142582,9.111869,3.5270207,0.0,0.0,0.0
30121954077653,-0.1052842,9.102298,3.8237305,0.0,0.0,0.0
30121956456612,-0.047856454,9.073584,4.1587257,0.0,0.0,0.0
30121958835518,-0.047856454,9.025727,4.240082,0.0,0.0,0.0
30121961214424,-0.033499517,9.064013,3.9960139,0.0,0.0,0.0
30121963593382,0.0,9.107083,3.6323047,0.0,0.0,0.0
30121965972289,-0.0047856453,9.083155,3.3930225,0.0,0.0,0.0
30121968351195,-0.07178468,9.097511,3.4217365,0.0,0.0,0.0
30121970730153,-0.11006984,9.111869,3.67059,0.0,0.0,0.0
30121973109059,-0.15792629,9.064013,3.9146578,0.0,0.0,0.0
30121975487966,-0.2105684,9.044869,4.005585,0.0,0.0,0.0
30121977866924,-0.25842485,9.126225,3.8668015,0.0,0.0,0.0
30121980245830,-0.24885355,9.174082,3.6179478,0.0,0.0,0.0
30121982624789,-0.22492532,9.174082,3.4073794,0.0,0.0,0.0
30121985003695,-0.24885355,9.193225,3.3930225,0.0,0.0,0.0
30121987382601,-0.23928227,9.174082,3.5318062,0.0,0.0,0.0
30121989761559,-0.2009971,9.15494,3.7854455,0.0,0.0,0.0
30121992140466,-0.15314065,9.116654,3.9338005,0.0,0.0,0.0
30121994519372,-0.11006984,9.140582,3.9146578,0.0,0.0,0.0
30121996898330,0.0,9.111869,3.7471602,0.0,0.0,0.0
30121999277237,0.09571291,9.135797,3.5605202,0.0,0.0,0.0
30122001656143,0.22013968,9.131011,3.4887354,0.0,0.0,0.0
30122004035101,0.29192436,9.102298,3.5796626,0.0,0.0,0.0
30122006414007,0.33020952,9.083155,3.751946,0.0,0.0,0.0
30122008792914,0.39720857,9.064013,3.8907297,0.0,0.0,0.0
30122011171872,0.47856453,9.078369,3.8763726,0.0,0.0,0.0
30122013550778,0.5072784,9.078369,3.751946,0.0,0.0,0.0
30122015929684,0.5168497,9.097511,3.6227336,0.0,0.0,0.0
30122018308643,0.6029913,9.116654,3.5796626,0.0,0.0,0.0
30122020687549,0.5886344,9.102298,3.6323047,0.0,0.0,0.0
30122023066507,0.52163535,9.068798,3.7854455,0.0,0.0,0.0
30122025445414,0.55034924,9.0544405,3.9242291,0.0,0.0,0.0
30122027824320,0.55034924,9.0544405,3.9625144,0.0,0.0,0.0
30122030203226,0.4977071,9.035298,3.900301,0.0,0.0,0.0
30122032582184,0.44027936,9.030513,3.790231,0.0,0.0,0.0
30122034961091,0.4211368,9.044869,3.7423747,0.0,0.0,0.0
30122037340049,0.37806597,9.035298,3.7806597,0.0,0.0,0.0
30122039718955,0.2727818,9.035298,3.8811584,0.0,0.0,0.0
30122042097862,0.19142582,9.0544405,3.9816568,0.0,0.0,0.0
30122044476820,0.16271193,9.073584,3.9864426,0.0,0.0,0.0
30122046855726,0.12921242,9.083155,3.9242291,0.0,0.0,0.0
30122049234632,0.09571291,9.102298,3.8380876,0.0,0.0,0.0
30122051613591,0.13878371,9.131011,3.7710886,0.0,0.0,0.0
30122053992497,0.15314065,9.140582,3.7854455,0.0,0.0,0.0
30122056371351,0.16749759,9.140582,3.8572302,0.0,0.0,0.0
30122058750362,0.19142582,9.102298,3.9194436,0.0,0.0,0.0
30122061129268,0.23928227,9.12144,3.938586,0.0,0.0,0.0
30122063508174,0.31106696,9.116654,3.8955152,0.0,0.0,0.0
30122065887132,0.35413775,9.078369,3.818945,0.0,0.0,0.0
30122068266039,0.40677986,9.092726,3.7615173,0.0,0.0,0.0
30122070644945,0.44506502,9.126225,3.7184465,0.0,0.0,0.0
30122073023903,0.44506502,9.102298,3.7567315,0.0,0.0,0.0
30122075402809,0.4211368,9.107083,3.818945,0.0,0.0,0.0
30122077781768,0.4211368,9.12144,3.8572302,0.0,0.0,0.0
30122080160674,0.41635114,9.092726,3.8333018,0.0,0.0,0.0
30122082539580,0.38285163,9.102298,3.790231,0.0,0.0,0.0
30122084918539,0.3684947,9.08794,3.7663028,0.0,0.0,0.0
30122087297445,0.33499518,9.102298,3.7567315,0.0,0.0,0.0
30122089676351,0.3062813,9.08794,3.8141594,0.0,0.0,0.0
30122092055309,0.2632105,9.073584,3.8572302,0.0,0.0,0.0
30122094434216,0.20578274,9.068798,3.8476589,0.0,0.0,0.0
30122096813070,0.15314065,9.064013,3.818945,0.0,0.0,0.0
30122099192080,0.1052842,9.064013,3.7567315,0.0,0.0,0.0
30122101570987,0.009571291,9.083155,3.7328033,0.0,0.0,0.0
30122103949893,-0.06699903,9.107083,3.723232,0.0,0.0,0.0
30122106328851,-0.1052842,9.116654,3.7854455,0.0,0.0,0.0
30122108707757,-0.14356937,9.102298,3.7998023,0.0,0.0,0.0
30122111086716,-0.18185452,9.126225,3.804588,0.0,0.0,0.0
30122113465570,-0.23928227,9.131011,3.7758741,0.0,0.0,0.0
30122115844528,-0.2632105,9.131011,3.7471602,0.0,0.0,0.0
30122118223487,-0.2632105,9.150154,3.7328033,0.0,0.0,0.0
30122120602393,-0.2632105,9.150154,3.751946,0.0,0.0,0.0
30122122981299,-0.24885355,9.140582,3.7854455,0.0,0.0,0.0
30122125360257,-0.19621146,9.164511,3.8093736,0.0,0.0,0.0
30122127739164,-0.17706887,9.145369,3.7998023,0.0,0.0,0.0
30122130118070,-0.148355,9.159725,3.790231,0.0,0.0,0.0
30122132497028,-0.13399807,9.159725,3.7758741,0.0,0.0,0.0
30122134875934,-0.086141616,9.159725,3.7567315,0.0,0.0,0.0
30122137254841,-0.07178468,9.174082,3.790231,0.0,0.0,0.0
30122139633799,-0.07178468,9.15494,3.8141594,0.0,0.0,0.0
30122142012705,-0.05742774,9.140582,3.8524444,0.0,0.0,0.0
30122144391612,-0.07178468,9.126225,3.8811584,0.0,0.0,0.0
30122146770570,-0.06699903,9.126225,3.900301,0.0,0.0,0.0
30122149149476,-0.062213387,9.111869,3.871587,0.0,0.0,0.0
30122151528382,-0.07178468,9.097511,3.8285162,0.0,0.0,0.0
30122153907341,-0.05742774,9.092726,3.8333018,0.0,0.0,0.0
30122156286247,-0.0526421,9.092726,3.8572302,0.0,0.0,0.0
30122158665153,-0.062213387,9.08794,3.8955152,0.0,0.0,0.0
30122161044112,-0.05742774,9.08794,3.9098723,0.0,0.0,0.0
30122163423018,-0.07178468,9.073584,3.9050865,0.0,0.0,0.0
30122165801976,-0.076570325,9.078369,3.885944,0.0,0.0,0.0
30122168180882,-0.09092726,9.08794,3.871587,0.0,0.0,0.0
30122170559789,-0.124426775,9.083155,3.8620157,0.0,0.0,0.0
30122172938747,-0.13399807,9.078369,3.885944,0.0,0.0,0.0
30122175317653,-0.15792629,9.059227,3.885944,0.0,0.0,0.0
30122177696559,-0.16749759,9.073584,3.8811584,0.0,0.0,0.0
30122180075518,-0.17228323,9.078369,3.8811584,0.0,0.0,0.0
30122182454424,-0.17706887,9.068798,3.8476589,0.0,0.0,0.0
30122184833330,-0.17228323,9.092726,3.8333018,0.0,0.0,0.0
30122187212289,-0.18185452,9.092726,3.8380876,0.0,0.0,0.0
30122189591195,-0.18185452,9.107083,3.8668015,0.0,0.0,0.0
30122191970101,-0.16749759,9.126225,3.8476589,0.0,0.0,0.0
30122194349059,-0.11964113,9.145369,3.842873,0.0,0.0,0.0
30122196727966,-0.10049855,9.140582,3.818945,0.0,0.0,0.0
30122199106872,-0.062213387,9.140582,3.8141594,0.0,0.0,0.0
30122201485830,-0.0526421,9.107083,3.818945,0.0,0.0,0.0
30122203864737,-0.038285162,9.102298,3.8285162,0.0,0.0,0.0
30122206243643,-0.009571291,9.12144,3.842873,0.0,0.0,0.0
30122208622601,-0.0047856453,9.116654,3.842873,0.0,0.0,0.0
30122211001507,0.009571291,9.131011,3.8476589,0.0,0.0,0.0
30122213380414,-0.009571291,9.12144,3.7998023,0.0,0.0,0.0
30122215759372,0.023928227,9.107083,3.790231,0.0,0.0,0.0
30122218138278,0.009571291,9.092726,3.7854455,0.0,0.0,0.0
30122220517237,-0.009571291,9.073584,3.790231,0.0,0.0,0.0
30122222896143,-0.047856454,9.097511,3.7998023,0.0,0.0,0.0
30122225275049,-0.086141616,9.097511,3.8093736,0.0,0.0,0.0
30122227654007,-0.12921242,9.097511,3.7854455,0.0,0.0,0.0
30122230032914,-0.15792629,9.097511,3.7854455,0.0,0.0,0.0
30122232411820,-0.19621146,9.12144,3.7471602,0.0,0.0,0.0
30122234790778,-0.2536392,9.097511,3.7423747,0.0,0.0,0.0
30122237169684,-0.2632105,9.107083,3.7615173,0.0,0.0,0.0
30122239548591,-0.29671,9.092726,3.7950168,0.0,0.0,0.0
30122241927549,-0.31106696,9.083155,3.7950168,0.0,0.0,0.0
30122244306455,-0.28713873,9.102298,3.804588,0.0,0.0,0.0
30122246685362,-0.28713873,9.102298,3.7998023,0.0,0.0,0.0
30122249064320,-0.2727818,9.116654,3.7806597,0.0,0.0,0.0
30122251443226,-0.2536392,9.097511,3.7567315,0.0,0.0,0.0
30122253822132,-0.2105684,9.102298,3.7854455,0.0,0.0,0.0
30122256201091,-0.15792629,9.107083,3.8141594,0.0,0.0,0.0
30122258579997,-0.12921242,9.102298,3.842873,0.0,0.0,0.0
30122260958955,-0.076570325,9.111869,3.8285162,0.0,0.0,0.0
30122263337862,-0.02871387,9.12144,3.8285162,0.0,0.0,0.0
30122265716768,0.0,9.116654,3.7998023,0.0,0.0,0.0
30122268095674,0.038285162,9.126225,3.7806597,0.0,0.0,0.0
30122270474632,0.047856454,9.107083,3.7710886,0.0,0.0,0.0
30122272853539,0.047856454,9.092726,3.7758741,0.0,0.0,0.0
30122275232497,0.033499517,9.092726,3.8093736,0.0,0.0,0.0
30122277611403,-0.023928227,9.102298,3.8333018,0.0,0.0,0.0
30122279990309,-0.06699903,9.111869,3.8237305,0.0,0.0,0.0
30122282369268,-0.11964113,9.107083,3.7710886,0.0,0.0,0.0
30122284748174,-0.18185452,9.111869,3.7280176,0.0,0.0,0.0
30122287127080,-0.22971097,9.111869,3.723232,0.0,0.0,0.0
30122289506039,-0.27756742,9.107083,3.7710886,0.0,0.0,0.0
30122291884945,-0.33499518,9.116654,3.8093736,0.0,0.0,0.0
30122294263851,-0.35413775,9.135797,3.818945,0.0,0.0,0.0
30122296642809,-0.3684947,9.126225,3.7950168,0.0,0.0,0.0
30122299021716,-0.39720857,9.111869,3.7806597,0.0,0.0,0.0
30122301400622,-0.3684947,9.126225,3.7710886,0.0,0.0,0.0
30122303779580,-0.32542387,9.159725,3.804588,0.0,0.0,0.0
30122306158487,-0.28713873,9.131011,3.8380876,0.0,0.0,0.0
30122308537341,-0.22971097,9.111869,3.8907297,0.0,0.0,0.0
30122310916351,-0.17706887,9.102298,3.8955152,0.0,0.0,0.0
30122313295257,-0.11006984,9.107083,3.8811584,0.0,0.0,0.0
30122315674164,-0.02871387,9.111869,3.8620157,0.0,0.0,0.0
30122318053122,0.05742774,9.116654,3.8668015,0.0,0.0,0.0
30122320432028,0.11964113,9.102298,3.885944,0.0,0.0,0.0
30122322810987,0.18185452,9.073584,3.9098723,0.0,0.0,0.0
30122325189893,0.2440679,9.068798,3.9146578,0.0,0.0,0.0
30122327568799,0.25842485,9.059227,3.9338005,0.0,0.0,0.0
30122329947757,0.23928227,9.044869,3.9098723,0.0,0.0,0.0
30122332326664,0.23449662,9.049655,3.8763726,0.0,0.0,0.0
30122334705570,0.18185452,9.035298,3.8572302,0.0,0.0,0.0
30122337084528,0.14356937,9.040084,3.8476589,0.0,0.0,0.0
30122339463434,0.07178468,9.0544405,3.8476589,0.0,0.0,0.0
30122341842341,-0.0047856453,9.064013,3.8237305,0.0,0.0,0.0
30122344221299,-0.10049855,9.064013,3.804588,0.0,0.0,0.0
30122346600205,-0.18664017,9.083155,3.7710886,0.0,0.0,0.0
30122348979112,-0.27756742,9.073584,3.7280176,0.0,0.0,0.0
30122351358070,-0.3589234,9.092726,3.7184465,0.0,0.0,0.0
30122353736976,-0.43070808,9.102298,3.7088752,0.0,0.0,0.0
30122356115882,-0.4833502,9.116654,3.6897326,0.0,0.0,0.0
30122358494841,-0.4977071,9.131011,3.694518,0.0,0.0,0.0
30122360873747,-0.4881358,9.135797,3.6993039,0.0,0.0,0.0
30122363252653,-0.46899325,9.164511,3.6753755,0.0,0.0,0.0
30122365631612,-0.4546363,9.174082,3.6658044,0.0,0.0,0.0
30122368010518,-0.40677986,9.183653,3.6753755,0.0,0.0,0.0
30122370389424,-0.34456646,9.188439,3.6753755,0.0,0.0,0.0
30122372768382,-0.25842485,9.164511,3.6801612,0.0,0.0,0.0
30122375147289,-0.18664017,9.159725,3.6849468,0.0,0.0,0.0
30122377526195,-0.12921242,9.150154,3.6993039,0.0,0.0,0.0
30122379905153,-0.0526421,9.140582,3.6897326,0.0,0.0,0.0
30122382284059,0.0047856453,9.145369,3.694518,0.0,0.0,0.0
30122384663018,0.05742774,9.150154,3.6993039,0.0,0.0,0.0
30122387041924,0.07178468,9.111869,3.7280176,0.0,0.0,0.0
30122389420830,0.0526421,9.102298,3.751946,0.0,0.0,0.0
30122391799789,0.023928227,9.08794,3.7710886,0.0,0.0,0.0
30122394178695,-0.014356935,9.107083,3.7950168,0.0,0.0,0.0
30122396557601,-0.0526421,9.078369,3.7998023,0.0,0.0,0.0
30122398936559,-0.124426775,9.068798,3.818945,0.0,0.0,0.0
30122401315466,-0.19142582,9.073584,3.8380876,0.0,0.0,0.0
30122403694372,-0.2632105,9.049655,3.8333018,0.0,0.0,0.0
30122406073330,-0.3397808,9.059227,3.8668015,0.0,0.0,0.0
30122408452237,-0.40677986,9.092726,3.8763726,0.0,0.0,0.0
30122410831143,-0.41635114,9.073584,3.8763726,0.0,0.0,0.0
30122413210101,-0.42592242,9.102298,3.885944,0.0,0.0,0.0
30122415589007,-0.44985065,9.107083,3.8620157,0.0,0.0,0.0
30122417967914,-0.44027936,9.107083,3.8620157,0.0,0.0,0.0
30122420346872,-0.37328035,9.131011,3.8524444,0.0,0.0,0.0
30122422725778,-0.3062813,9.135797,3.842873,0.0,0.0,0.0
30122425104684,-0.26799613,9.140582,3.8476589,0.0,0.0,0.0
30122427483643,-0.16271193,9.15494,3.8380876,0.0,0.0,0.0
30122429862549,-0.0526421,9.150154,3.8333018,0.0,0.0,0.0
30122432241507,-0.0047856453,9.159725,3.8093736,0.0,0.0,0.0
30122434620414,0.0526421,9.145369,3.7710886,0.0,0.0,0.0
30122436999320,0.11964113,9.145369,3.7806597,0.0,0.0,0.0
30122439378278,0.16749759,9.15494,3.7806597,0.0,0.0,0.0
30122441757184,0.2009971,9.178867,3.7663028,0.0,0.0,0.0
30122444136091,0.18664017,9.145369,3.7710886,0.0,0.0,0.0
30122446515049,0.15792629,9.159725,3.7806597,0.0,0.0,0.0
30122448893955,0.12921242,9.150154,3.7663028,0.0,0.0,0.0
30122451272862,0.076570325,9.150154,3.7854455,0.0,0.0,0.0
30122453651820,0.019142581,9.135797,3.8141594,0.0,0.0,0.0
30122456030726,-0.047856454,9.135797,3.8093736,0.0,0.0,0.0
30122458409632,-0.13878371,9.12144,3.8141594,0.0,0.0,0.0
30122460788591,-0.2009971,9.102298,3.8093736,0.0,0.0,0.0
30122463167497,-0.21535404,9.111869,3.7950168,0.0,0.0,0.0
30122465546403,-0.25842485,9.107083,3.8237305,0.0,0.0,0.0
30122467925362,-0.28235307,9.116654,3.842873,0.0,0.0,0.0
30122470304268,-0.2727818,9.068798,3.8572302,0.0,0.0,0.0
30122472683174,-0.23449662,9.059227,3.8572302,0.0,0.0,0.0
30122475062132,-0.22971097,9.078369,3.8380876,0.0,0.0,0.0
30122477441039,-0.2009971,9.083155,3.818945,0.0,0.0,0.0
30122479819945,-0.11485548,9.083155,3.8141594,0.0,0.0,0.0
30122482198851,-0.047856454,9.073584,3.7806597,0.0,0.0,0.0
30122484577809,0.033499517,9.097511,3.7854455,0.0,0.0,0.0
30122486956716,0.10049855,9.073584,3.7710886,0.0,0.0,0.0
30122489335674,0.15792629,9.08794,3.7615173,0.0,0.0,0.0
30122491714580,0.2009971,9.116654,3.737589,0.0,0.0,0.0
30122494093487,0.2105684,9.102298,3.7184465,0.0,0.0,0.0
30122496472445,0.22971097,9.107083,3.737589,0.0,0.0,0.0
30122498851351,0.23928227,9.08794,3.7423747,0.0,0.0,0.0
30122501230309,0.19621146,9.131011,3.7328033,0.0,0.0,0.0
30122503609216,0.14356937,9.126225,3.7184465,0.0,0.0,0.0
30122505988122,0.10049855,9.126225,3.723232,0.0,0.0,0.0
30122508367028,0.062213387,9.145369,3.7328033,0.0,0.0,0.0
30122510745987,-0.019142581,9.135797,3.737589,0.0,0.0,0.0
30122513124893,-0.086141616,9.135797,3.7328033,0.0,0.0,0.0
30122515503851,-0.148355,9.140582,3.7184465,0.0,0.0,0.0
30122517882757,-0.20578274,9.145369,3.7280176,0.0,0.0,0.0
30122520261664,-0.23928227,9.131011,3.7615173,0.0,0.0,0.0
30122522640622,-0.25842485,9.12144,3.7806597,0.0,0.0,0.0
30122525019528,-0.25842485,9.126225,3.790231,0.0,0.0,0.0
30122527398434,-0.2536392,9.116654,3.8141594,0.0,0.0,0.0
30122529777393,-0.23928227,9.140582,3.818945,0.0,0.0,0.0
30122532156299,-0.22013968,9.135797,3.8285162,0.0,0.0,0.0
30122534535205,-0.148355,9.126225,3.842873,0.0,0.0,0.0
30122536914164,-0.10049855,9.097511,3.842873,0.0,0.0,0.0
30122539293070,-0.07178468,9.083155,3.8572302,0.0,0.0,0.0
30122541671976,-0.009571291,9.102298,3.8668015,0.0,0.0,0.0
30122544050934,0.047856454,9.083155,3.885944,0.0,0.0,0.0
30122546429841,0.076570325,9.078369,3.8572302,0.0,0.0,0.0
30122548808747,0.1052842,9.068798,3.8668015,0.0,0.0,0.0
30122551187705,0.11964113,9.073584,3.871587,0.0,0.0,0.0
30122553566612,0.124426775,9.073584,3.871587,0.0,0.0,0.0
30122555945518,0.11964113,9.08794,3.8763726,0.0,0.0,0.0
30122558324476,0.10049855,9.078369,3.8955152,0.0,0.0,0.0
30122560703382,0.08135597,9.073584,3.885944,0.0,0.0,0.0
30122563082289,0.047856454,9.073584,3.8620157,0.0,0.0,0.0
30122565461247,-0.014356935,9.078369,3.8380876,0.0,0.0,0.0
30122567840153,-0.05742774,9.073584,3.842873,0.0,0.0,0.0
30122570219112,-0.11006984,9.097511,3.8285162,0.0,0.0,0.0
30122572598018,-0.13878371,9.092726,3.8476589,0.0,0.0,0.0
30122574976924,-0.16749759,9.102298,3.8524444,0.0,0.0,0.0
30122577355882,-0.18664017,9.097511,3.8285162,0.0,0.0,0.0
30122579734789,-0.2105684,9.111869,3.804588,0.0,0.0,0.0
30122582113695,-0.22971097,9.111869,3.790231,0.0,0.0,0.0
30122584492653,-0.2105684,9.102298,3.7806597,0.0,0.0,0.0
30122586871559,-0.19142582,9.102298,3.7615173,0.0,0.0,0.0
30122589250466,-0.15314065,9.116654,3.7423747,0.0,0.0,0.0
30122591629424,-0.1052842,9.083155,3.7328033,0.0,0.0,0.0
30122594008330,-0.076570325,9.08794,3.7328033,0.0,0.0,0.0
30122596387237,-0.033499517,9.08794,3.7184465,0.0,0.0,0.0
30122598766195,0.0047856453,9.073584,3.7088752,0.0,0.0,0.0
30122601145101,0.047856454,9.08794,3.7136607,0.0,0.0,0.0
30122603524007,0.076570325,9.08794,3.6993039,0.0,0.0,0.0
30122605902966,0.06699903,9.073584,3.7184465,0.0,0.0,0.0
30122608281872,0.076570325,9.078369,3.7088752,0.0,0.0,0.0
30122610660778,0.05742774,9.083155,3.7088752,0.0,0.0,0.0
30122613039737,0.014356935,9.092726,3.7328033,0.0,0.0,0.0
30122615418643,-0.023928227,9.092726,3.737589,0.0,0.0,0.0
30122617797549,-0.076570325,9.102298,3.723232,0.0,0.0,0.0
30122620176507,-0.10049855,9.102298,3.7471602,0.0,0.0,0.0
30122622555414,-0.148355,9.08794,3.7663028,0.0,0.0,0.0
30122624934320,-0.19142582,9.107083,3.790231,0.0,0.0,0.0
30122627313278,-0.2009971,9.126225,3.8093736,0.0,0.0,0.0
30122629692184,-0.2440679,9.111869,3.8237305,0.0,0.0,0.0
30122632071091,-0.2440679,9.126225,3.8141594,0.0,0.0,0.0
30122634450049,-0.22971097,9.126225,3.8141594,0.0,0.0,0.0
30122636828955,-0.2105684,9.135797,3.8141594,0.0,0.0,0.0
30122639207914,-0.17706887,9.131011,3.8237305,0.0,0.0,0.0
30122641586820,-0.11964113,9.107083,3.8380876,0.0,0.0,0.0
30122643965726,-0.0526421,9.116654,3.8620157,0.0,0.0,0.0
30122646344684,0.014356935,9.083155,3.8668015,0.0,0.0,0.0
30122648723591,0.086141616,9.073584,3.8620157,0.0,0.0,0.0
30122651102497,0.15792629,9.078369,3.8524444,0.0,0.0,0.0
30122653481455,0.22013968,9.078369,3.8476589,0.0,0.0,0.0
30122655860362,0.2632105,9.049655,3.8572302,0.0,0.0,0.0
30122658239268,0.28713873,9.0544405,3.8811584,0.0,0.0,0.0
30122660618226,0.32542387,9.044869,3.8907297,0.0,0.0,0.0
30122662997132,0.31106696,9.044869,3.871587,0.0,0.0,0.0
30122665376039,0.28713873,9.0544405,3.842873,0.0,0.0,0.0
30122667754997,0.2632105,9.064013,3.818945,0.0,0.0,0.0
30122670133903,0.20578274,9.049655,3.8141594,0.0,0.0,0.0
30122672512809,0.15314065,9.059227,3.818945,0.0,0.0,0.0
30122674891768,0.076570325,9.083155,3.8237305,0.0,0.0,0.0
30122677270674,0.033499517,9.064013,3.818945,0.0,0.0,0.0
30122679649580,-0.033499517,9.078369,3.8141594,0.0,0.0,0.0
30122682028539,-0.06699903,9.092726,3.7854455,0.0,0.0,0.0
30122684407445,-0.10049855,9.08794,3.7806597,0.0,0.0,0.0
30122686786351,-0.124426775,9.107083,3.7663028,0.0,0.0,0.0
30122689165309,-0.15792629,9.111869,3.7615173,0.0,0.0,0.0
30122691544164,-0.17706887,9.12144,3.7854455,0.0,0.0,0.0
30122693923122,-0.16271193,9.116654,3.7854455,0.0,0.0,0.0
30122696302080,-0.1052842,9.145369,3.7567315,0.0,0.0,0.0
30122698680987,-0.05742774,9.126225,3.7280176,0.0,0.0,0.0
30122701059893,0.0,9.140582,3.7328033,0.0,0.0,0.0
30122703438851,0.05742774,9.135797,3.737589,0.0,0.0,0.0
30122705817757,0.12921242,9.126225,3.7615173,0.0,0.0,0.0
30122708196664,0.18664017,9.097511,3.7758741,0.0,0.0,0.0
30122710575622,0.24885355,9.135797,3.7710886,0.0,0.0,0.0
30122712954528,0.28235307,9.140582,3.7663028,0.0,0.0,0.0
30122715333434,0.31585258,9.150154,3.7663028,0.0,0.0,0.0
30122717712393,0.33499518,9.135797,3.7423747,0.0,0.0,0.0
30122720091299,0.3062813,9.126225,3.7663028,0.0,0.0,0.0
30122722470257,0.28235307,9.111869,3.790231,0.0,0.0,0.0
30122724849164,0.2440679,9.126225,3.7998023,0.0,0.0,0.0
30122727228070,0.18664017,9.116654,3.7854455,0.0,0.0,0.0
30122729607028,0.11006984,9.126225,3.8093736,0.0,0.0,0.0
30122731985934,0.038285162,9.12144,3.8093736,0.0,0.0,0.0
30122734364841,-0.014356935,9.126225,3.8285162,0.0,0.0,0.0
30122736743799,-0.07178468,9.107083,3.804588,0.0,0.0,0.0
30122739122705,-0.13878371,9.097511,3.818945,0.0,0.0,0.0
30122741501612,-0.18664017,9.111869,3.842873,0.0,0.0,0.0
30122743880570,-0.23928227,9.116654,3.8524444,0.0,0.0,0.0
30122746259476,-0.2536392,9.097511,3.842873,0.0,0.0,0.0
30122748638382,-0.23449662,9.116654,3.8237305,0.0,0.0,0.0
30122751017341,-0.21535404,9.107083,3.8141594,0.0,0.0,0.0
30122753396195,-0.16749759,9.097511,3.818945,0.0,0.0,0.0
30122755775153,-0.13878371,9.116654,3.8237305,0.0,0.0,0.0
30122758154112,-0.062213387,9.092726,3.8237305,0.0,0.0,0.0
30122760533018,-0.014356935,9.08794,3.8380876,0.0,0.0,0.0
30122762911924,0.047856454,9.102298,3.8141594,0.0,0.0,0.0
30122765290830,0.09571291,9.102298,3.7950168,0.0,0.0,0.0
30122767669737,0.148355,9.102298,3.7758741,0.0,0.0,0.0
30122770048695,0.17706887,9.107083,3.7567315,0.0,0.0,0.0
30122772427653,0.2009971,9.107083,3.7663028,0.0,0.0,0.0
30122774806559,0.2009971,9.107083,3.7615173,0.0,0.0,0.0
30122777185466,0.15792629,9.12144,3.7615173,0.0,0.0,0.0
30122779564424,0.13878371,9.116654,3.7615173,0.0,0.0,0.0
30122781943330,0.09571291,9.12144,3.7567315,0.0,0.0,0.0
30122784322237,0.033499517,9.126225,3.7423747,0.0,0.0,0.0
30122786701195,-0.019142581,9.131011,3.7567315,0.0,0.0,0.0
30122789080101,-0.08135597,9.12144,3.7567315,0.0,0.0,0.0
30122791459007,-0.14356937,9.126225,3.7615173,0.0,0.0,0.0
30122793837966,-0.2105684,9.126225,3.7710886,0.0,0.0,0.0
30122796216872,-0.22971097,9.135797,3.7663028,0.0,0.0,0.0
30122798595778,-0.2440679,9.116654,3.7710886,0.0,0.0,0.0
30122800974737,-0.26799613,9.116654,3.7806597,0.0,0.0,0.0
30122803353643,-0.25842485,9.126225,3.790231,0.0,0.0,0.0
30122805732549,-0.2105684,9.131011,3.7998023,0.0,0.0,0.0
30122808111507,-0.19621146,9.126225,3.804588,0.0,0.0,0.0
30122810490414,-0.15792629,9.12144,3.804588,0.0,0.0,0.0
30122812869320,-0.11006984,9.111869,3.8285162,0.0,0.0,0.0
30122815248278,-0.047856454,9.092726,3.8285162,0.0,0.0,0.0
30122817627184,0.0,9.0544405,3.818945,0.0,0.0,0.0
30122820006143,0.062213387,9.078369,3.8141594,0.0,0.0,0.0
30122822385049,0.11964113,9.078369,3.8476589,0.0,0.0,0.0
30122824763955,0.17228323,9.078369,3.8380876,0.0,0.0,0.0
30122827142914,0.2009971,9.078369,3.8333018,0.0,0.0,0.0
30122829521820,0.2009971,9.073584,3.8333018,0.0,0.0,0.0
30122831900726,0.20578274,9.064013,3.8476589,0.0,0.0,0.0
30122834279684,0.17706887,9.083155,3.8380876,0.0,0.0,0.0
30122836658591,0.15792629,9.092726,3.8237305,0.0,0.0,0.0
30122839037497,0.11006984,9.107083,3.8093736,0.0,0.0,0.0
30122841416455,0.043070808,9.111869,3.8093736,0.0,0.0,0.0
30122843795362,-0.014356935,9.116654,3.7998023,0.0,0.0,0.0
30122846174268,-0.08135597,9.102298,3.7950168,0.0,0.0,0.0
30122848553226,-0.14356937,9.107083,3.7854455,0.0,0.0,0.0
30122850932132,-0.18185452,9.126225,3.790231,0.0,0.0,0.0
30122853311039,-0.22013968,9.126225,3.7950168,0.0,0.0,0.0
30122855689997,-0.2440679,9.111869,3.7710886,0.0,0.0,0.0
30122858068903,-0.22971097,9.126225,3.7854455,0.0,0.0,0.0
30122860447809,-0.24885355,9.107083,3.751946,0.0,0.0,0.0
30122862826768,-0.23449662,9.107083,3.7615173,0.0,0.0,0.0
30122865205674,-0.22013968,9.083155,3.7567315,0.0,0.0,0.0
30122867584580,-0.15314065,9.08794,3.7663028,0.0,0.0,0.0
30122869963539,-0.09571291,9.102298,3.7615173,0.0,0.0,0.0
30122872342445,-0.02871387,9.097511,3.7423747,0.0,0.0,0.0
30122874721351,0.019142581,9.097511,3.7328033,0.0,0.0,0.0
30122877100309,0.076570325,9.092726,3.7280176,0.0,0.0,0.0
30122879479216,0.124426775,9.097511,3.7423747,0.0,0.0,0.0
30122881858122,0.16271193,9.131011,3.7663028,0.0,0.0,0.0
30122884237080,0.19142582,9.126225,3.7950168,0.0,0.0,0.0
30122886615987,0.19142582,9.102298,3.7950168,0.0,0.0,0.0
30122888994893,0.16749759,9.111869,3.7950168,0.0,0.0,0.0
30122891373851,0.12921242,9.116654,3.7710886,0.0,0.0,0.0
30122893752757,0.1052842,9.126225,3.7854455,0.0,0.0,0.0
30122896131664,0.062213387,9.135797,3.8141594,0.0,0.0,0.0
30122898510622,-0.009571291,9.126225,3.8141594,0.0,0.0,0.0
30122900889528,-0.06699903,9.116654,3.8141594,0.0,0.0,0.0
30122903268487,-0.11006984,9.092726,3.790231,0.0,0.0,0.0
30122905647393,-0.12921242,9.092726,3.7854455,0.0,0.0,0.0
30122908026299,-0.15792629,9.102298,3.7758741,0.0,0.0,0.0
30122910405257,-0.19142582,9.078369,3.7854455,0.0,0.0,0.0
30122912784112,-0.2105684,9.078369,3.7998023,0.0,0.0,0.0
30122915163070,-0.19621146,9.092726,3.8141594,0.0,0.0,0.0
30122917542028,-0.15792629,9.08794,3.818945,0.0,0.0,0.0
30122919920934,-0.11964113,9.078369,3.8093736,0.0,0.0,0.0
30122922299841,-0.0526421,9.064013,3.7998023,0.0,0.0,0.0
30122924678799,-0.02871387,9.064013,3.7710886,0.0,0.0,0.0
30122927057705,-0.009571291,9.097511,3.7758741,0.0,0.0,0.0
30122929436612,0.043070808,9.102298,3.7854455,0.0,0.0,0.0
30122931815570,0.07178468,9.092726,3.7950168,0.0,0.0,0.0
30122934194476,0.10049855,9.107083,3.7950168,0.0,0.0,0.0
30122936573382,0.11964113,9.116654,3.7758741,0.0,0.0,0.0
30122938952341,0.13399807,9.107083,3.7663028,0.0,0.0,0.0
30122941331247,0.11485548,9.116654,3.7567315,0.0,0.0,0.0
30122943710153,0.10049855,9.097511,3.7758741,0.0,0.0,0.0
30122946089112,0.0526421,9.097511,3.8141594,0.0,0.0,0.0
30122948468018,0.033499517,9.107083,3.8141594,0.0,0.0,0.0
30122950846924,-0.038285162,9.116654,3.8141594,0.0,0.0,0.0
30122953225882,-0.08135597,9.131011,3.818945,0.0,0.0,0.0
30122955604789,-0.11006984,9.15494,3.8141594,0.0,0.0,0.0
30122957983695,-0.148355,9.131011,3.8237305,0.0,0.0,0.0
30122960362653,-0.18185452,9.15494,3.8285162,0.0,0.0,0.0
30122962741559,-0.2105684,9.145369,3.8237305,0.0,0.0,0.0
30122965120466,-0.2009971,9.145369,3.8333018,0.0,0.0,0.0
30122967499424,-0.18185452,9.12144,3.8333018,0.0,0.0,0.0
30122969878330,-0.13878371,9.135797,3.8237305,0.0,0.0,0.0
30122972257237,-0.11006984,9.111869,3.8141594,0.0,0.0,0.0
30122974636195,-0.08135597,9.116654,3.8141594,0.0,0.0,0.0
30122977015101,-0.047856454,9.092726,3.8141594,0.0,0.0,0.0
30122979394007,0.023928227,9.116654,3.8093736,0.0,0.0,0.0
30122981772966,0.06699903,9.116654,3.7998023,0.0,0.0,0.0
30122984151872,0.11485548,9.097511,3.7854455,0.0,0.0,0.0
30122986530778,0.13878371,9.107083,3.7854455,0.0,0.0,0.0
30122988909737,0.16749759,9.107083,3.7854455,0.0,0.0,0.0
30122991288643,0.17228323,9.102298,3.7998023,0.0,0.0,0.0
30122993667549,0.15792629,9.107083,3.8141594,0.0,0.0,0.0
30122996046507,0.12921242,9.12144,3.790231,0.0,0.0,0.0
30122998425414,0.086141616,9.12144,3.790231,0.0,0.0,0.0
30123000804372,0.038285162,9.145369,3.790231,0.0,0.0,0.0
30123003183278,-0.038285162,9.126225,3.7950168,0.0,0.0,0.0
30123005562184,-0.06699903,9.126225,3.790231,0.0,0.0,0.0
30123007941143,-0.124426775,9.111869,3.7998023,0.0,0.0,0.0
30123010320049,-0.17706887,9.126225,3.7950168,0.0,0.0,0.0
30123012698955,-0.23928227,9.126225,3.7758741,0.0,0.0,0.0
30123015077914,-0.2727818,9.131011,3.7615173,0.0,0.0,0.0
30123017456820,-0.28235307,9.12144,3.7663028,0.0,0.0,0.0
30123019835726,-0.30149564,9.140582,3.7758741,0.0,0.0,0.0
30123022214684,-0.3062813,9.145369,3.7710886,0.0,0.0,0.0
30123024593591,-0.32542387,9.135797,3.7615173,0.0,0.0,0.0
30123026972497,-0.29671,9.135797,3.7710886,0.0,0.0,0.0
30123029351455,-0.2536392,9.135797,3.7615173,0.0,0.0,0.0
30123031730362,-0.22492532,9.126225,3.7567315,0.0,0.0,0.0
30123034109268,-0.16271193,9.111869,3.7471602,0.0,0.0,0.0
30123036488226,-0.11964113,9.116654,3.7806597,0.0,0.0,0.0
30123038867132,-0.076570325,9.126225,3.8093736,0.0,0.0,0.0
30123041246039,-0.023928227,9.097511,3.7998023,0.0,0.0,0.0
30123043624997,0.023928227,9.078369,3.7950168,0.0,0.0,0.0
30123046003903,0.076570325,9.08794,3.7806597,0.0,0.0,0.0
30123048382809,0.06699903,9.092726,3.790231,0.0,0.0,0.0
30123050761768,0.06699903,9.102298,3.7854455,0.0,0.0,0.0
30123053140674,0.06699903,9.092726,3.7950168,0.0,0.0,0.0
30123055519580,0.033499517,9.092726,3.8093736,0.0,0.0,0.0
30123057898539,0.014356935,9.092726,3.8141594,0.0,0.0,0.0
30123060277445,-0.033499517,9.08794,3.8093736,0.0,0.0,0.0
30123062656351,-0.076570325,9.107083,3.7998023,0.0,0.0,0.0
30123065035309,-0.16749759,9.107083,3.7710886,0.0,0.0,0.0
30123067414216,-0.19142582,9.12144,3.7806597,0.0,0.0,0.0
30123069793122,-0.22013968,9.126225,3.790231,0.0,0.0,0.0
30123072172080,-0.26799613,9.092726,3.8141594,0.0,0.0,0.0
30123074550987,-0.2727818,9.111869,3.8141594,0.0,0.0,0.0
30123076929893,-0.28235307,9.12144,3.8237305,0.0,0.0,0.0
30123079308851,-0.27756742,9.111869,3.8093736,0.0,0.0,0.0
30123081687757,-0.2440679,9.126225,3.8093736,0.0,0.0,0.0
30123084066664,-0.19621146,9.111869,3.8093736,0.0,0.0,0.0
30123086445622,-0.17228323,9.097511,3.8237305,0.0,0.0,0.0
30123088824528,-0.11006984,9.111869,3.8237305,0.0,0.0,0.0
30123091203434,-0.043070808,9.126225,3.8285162,0.0,0.0,0.0
30123093582393,0.0,9.12144,3.8333018,0.0,0.0,0.0
30123095961299,0.076570325,9.107083,3.8333018,0.0,0.0,0.0
30123098340257,0.12921242,9.111869,3.8141594,0.0,0.0,0.0
30123100719164,0.15792629,9.111869,3.7998023,0.0,0.0,0.0
30123103098070,0.18664017,9.092726,3.790231,0.0,0.0,0.0
30123105476976,0.17706887,9.08794,3.7950168,0.0,0.0,0.0
30123107855934,0.18664017,9.08794,3.8237305,0.0,0.0,0.0
30123110234841,0.16749759,9.073584,3.8285162,0.0,0.0,0.0
30123112613799,0.13399807,9.097511,3.8237305,0.0,0.0,0.0
30123114992705,0.06699903,9.092726,3.8141594,0.0,0.0,0.0
30123117371612,0.014356935,9.097511,3.8093736,0.0,0.0,0.0
30123119750570,-0.0526421,9.083155,3.8093736,0.0,0.0,0.0
30123122129476,-0.11964113,9.092726,3.7950168,0.0,0.0,0.0
30123124508382,-0.2009971,9.102298,3.7950168,0.0,0.0,0.0
30123126887289,-0.2632105,9.116654,3.8093736,0.0,0.0,0.0
30123129266247,-0.29192436,9.107083,3.8093736,0.0,0.0,0.0
30123131645153,-0.32542387,9.116654,3.7950168,0.0,0.0,0.0
30123134024059,-0.3493521,9.116654,3.7998023,0.0,0.0,0.0
30123136403018,-0.34456646,9.116654,3.7950168,0.0,0.0,0.0
30123138781924,-0.35413775,9.116654,3.7950168,0.0,0.0,0.0
30123141160882,-0.29671,9.135797,3.818945,0.0,0.0,0.0
30123143539789,-0.23449662,9.135797,3.8285162,0.0,0.0,0.0
30123145918695,-0.18185452,9.116654,3.7950168,0.0,0.0,0.0
30123148297653,-0.13399807,9.111869,3.7758741,0.0,0.0,0.0
30123150676559,-0.09092726,9.083155,3.7806597,0.0,0.0,0.0
30123153055466,-0.0526421,9.111869,3.7806597,0.0,0.0,0.0
30123155434424,0.014356935,9.107083,3.8141594,0.0,0.0,0.0
30123157813330,0.047856454,9.092726,3.8141594,0.0,0.0,0.0
30123160192237,0.0526421,9.083155,3.8093736,0.0,0.0,0.0
30123162571195,0.043070808,9.107083,3.790231,0.0,0.0,0.0
30123164950101,0.02871387,9.102298,3.7758741,0.0,0.0,0.0
30123167329007,-0.033499517,9.102298,3.7806597,0.0,0.0,0.0
30123169707966,-0.10049855,9.092726,3.7854455,0.0,0.0,0.0
30123172086872,-0.16271193,9.102298,3.8093736,0.0,0.0,0.0
30123174465778,-0.22013968,9.102298,3.8285162,0.0,0.0,0.0
30123176844737,-0.2536392,9.08794,3.8285162,0.0,0.0,0.0
30123179223591,-0.3062813,9.092726,3.8285162,0.0,0.0,0.0
30123181602549,-0.37328035,9.092726,3.8141594,0.0,0.0,0.0
30123183981507,-0.41156548,9.116654,3.7998023,0.0,0.0,0.0
30123186360414,-0.44027936,9.131011,3.790231,0.0,0.0,0.0
30123188739320,-0.4354937,9.111869,3.8141594,0.0,0.0,0.0
30123191118278,-0.4354937,9.083155,3.818945,0.0,0.0,0.0
30123193497184,-0.38763726,9.083155,3.8141594,0.0,0.0,0.0
30123195876091,-0.3589234,9.102298,3.7854455,0.0,0.0,0.0
30123198255049,-0.3062813,9.102298,3.790231,0.0,0.0,0.0
30123200633955,-0.22492532,9.083155,3.7806597,0.0,0.0,0.0
30123203012862,-0.15792629,9.078369,3.7567315,0.0,0.0,0.0
30123205391820,-0.1052842,9.097511,3.7806597,0.0,0.0,0.0
30123207770726,-0.05742774,9.116654,3.7854455,0.0,0.0,0.0
30123210149632,-0.014356935,9.097511,3.7854455,0.0,0.0,0.0
30123212528591,0.009571291,9.102298,3.7950168,0.0,0.0,0.0
30123214907445,0.02871387,9.102298,3.7806597,0.0,0.0,0.0
30123217286403,0.023928227,9.126225,3.7758741,0.0,0.0,0.0
30123219665362,-0.0047856453,9.107083,3.7663028,0.0,0.0,0.0
30123222044268,-0.047856454,9.08794,3.7710886,0.0,0.0,0.0
30123224423174,-0.07178468,9.102298,3.7998023,0.0,0.0,0.0
30123226802132,-0.11485548,9.102298,3.7950168,0.0,0.0,0.0
30123229181039,-0.18185452,9.126225,3.790231,0.0,0.0,0.0
30123231559945,-0.23449662,9.150154,3.7663028,0.0,0.0,0.0
30123233938903,-0.29192436,9.116654,3.7854455,0.0,0.0,0.0
30123236317809,-0.32063824,9.131011,3.7854455,0.0,0.0,0.0
30123238697497,-0.36370903,9.126225,3.7950168,0.0,0.0,0.0
30123241075674,-0.35413775,9.12144,3.7854455,0.0,0.0,0.0
30123243454580,-0.36370903,9.145369,3.7806597,0.0,0.0,0.0
30123245833487,-0.34456646,9.126225,3.790231,0.0,0.0,0.0
30123248212445,-0.31585258,9.12144,3.8093736,0.0,0.0,0.0
30123250591351,-0.2727818,9.126225,3.804588,0.0,0.0,0.0
30123252970257,-0.23928227,9.111869,3.7806597,0.0,0.0,0.0
30123255349216,-0.19621146,9.111869,3.7758741,0.0,0.0,0.0
30123257728122,-0.12921242,9.111869,3.7567315,0.0,0.0,0.0
30123260107080,-0.09092726,9.116654,3.7615173,0.0,0.0,0.0
30123262485987,-0.07178468,9.126225,3.7615173,0.0,0.0,0.0
30123264864893,-0.009571291,9.107083,3.790231,0.0,0.0,0.0
30123267243851,0.023928227,9.092726,3.8141594,0.0,0.0,0.0
30123269622757,0.047856454,9.102298,3.818945,0.0,0.0,0.0
30123272001664,0.07178468,9.131011,3.790231,0.0,0.0,0.0
30123274380622,0.062213387,9.12144,3.7615173,0.0,0.0,0.0
30123276759528,0.038285162,9.111869,3.7758741,0.0,0.0,0.0
30123279138434,0.02871387,9.107083,3.8093736,0.0,0.0,0.0
30123281517393,-0.033499517,9.107083,3.8476589,0.0,0.0,0.0
30123283896299,-0.038285162,9.092726,3.8524444,0.0,0.0,0.0
30123286275205,-0.05742774,9.097511,3.8237305,0.0,0.0,0.0
30123288654112,-0.10049855,9.12144,3.8141594,0.0,0.0,0.0
30123291033070,-0.11964113,9.107083,3.7854455,0.0,0.0,0.0
30123293411976,-0.148355,9.08794,3.8093736,0.0,0.0,0.0
30123295790934,-0.16749759,9.111869,3.8476589,0.0,0.0,0.0
30123298169841,-0.17228323,9.131011,3.8572302,0.0,0.0,0.0
30123300548747,-0.15314065,9.102298,3.8333018,0.0,0.0,0.0
30123302927705,-0.14356937,9.097511,3.8237305,0.0,0.0,0.0
30123305306612,-0.10049855,9.092726,3.8141594,0.0,0.0,0.0
30123307685518,-0.07178468,9.092726,3.804588,0.0,0.0,0.0
30123310064476,-0.047856454,9.092726,3.804588,0.0,0.0,0.0
30123312443382,-0.02871387,9.097511,3.8141594,0.0,0.0,0.0
30123314822289,0.0047856453,9.097511,3.7998023,0.0,0.0,0.0
30123317201247,0.047856454,9.092726,3.8237305,0.0,0.0,0.0
30123319580153,0.07178468,9.135797,3.8141594,0.0,0.0,0.0
30123321959007,0.086141616,9.131011,3.790231,0.0,0.0,0.0
30123324338018,0.086141616,9.131011,3.7710886,0.0,0.0,0.0
30123326716924,0.09092726,9.116654,3.7663028,0.0,0.0,0.0
30123329095830,0.08135597,9.135797,3.7854455,0.0,0.0,0.0
30123331474789,0.038285162,9.116654,3.7998023,0.0,0.0,0.0
30123333853695,-0.0047856453,9.097511,3.790231,0.0,0.0,0.0
30123336232601,-0.043070808,9.111869,3.790231,0.0,0.0,0.0
30123338611559,-0.05742774,9.135797,3.7615173,0.0,0.0,0.0
30123340990466,-0.10049855,9.150154,3.7615173,0.0,0.0,0.0
30123343369372,-0.13878371,9.135797,3.7758741,0.0,0.0,0.0
30123345748330,-0.15792629,9.126225,3.804588,0.0,0.0,0.0
30123348127237,-0.20578274,9.12144,3.7950168,0.0,0.0,0.0
30123350506143,-0.21535404,9.111869,3.7710886,0.0,0.0,0.0
30123352885101,-0.23928227,9.131011,3.7854455,0.0,0.0,0.0
30123355264007,-0.24885355,9.150154,3.7854455,0.0,0.0,0.0
30123357642914,-0.21535404,9.135797,3.7854455,0.0,0.0,0.0
30123360021872,-0.19142582,9.12144,3.7998023,0.0,0.0,0.0
30123362400778,-0.18664017,9.131011,3.7998023,0.0,0.0,0.0
30123364779684,-0.14356937,9.12144,3.804588,0.0,0.0,0.0
30123367158643,-0.1052842,9.116654,3.8237305,0.0,0.0,0.0
30123369537549,-0.07178468,9.116654,3.818945,0.0,0.0,0.0
30123371916455,-0.05742774,9.092726,3.8141594,0.0,0.0,0.0
30123374295414,-0.047856454,9.111869,3.804588,0.0,0.0,0.0
30123376674320,-0.047856454,9.116654,3.804588,0.0,0.0,0.0
30123379053226,-0.023928227,9.107083,3.818945,0.0,0.0,0.0
30123381432184,-0.0047856453,9.107083,3.8333018,0.0,0.0,0.0
30123383811091,0.0,9.092726,3.8093736,0.0,0.0,0.0
30123386189997,-0.0047856453,9.092726,3.7950168,0.0,0.0,0.0
30123388568955,-0.023928227,9.111869,3.7854455,0.0,0.0,0.0
30123390947862,-0.05742774,9.102298,3.790231,0.0,0.0,0.0
30123393326768,-0.09092726,9.107083,3.7854455,0.0,0.0,0.0
30123395705726,-0.11964113,9.097511,3.790231,0.0,0.0,0.0
30123398084632,-0.13878371,9.078369,3.7950168,0.0,0.0,0.0
30123400463539,-0.15314065,9.102298,3.7950168,0.0,0.0,0.0
30123402842497,-0.14356937,9.092726,3.7998023,0.0,0.0,0.0
30123405221403,-0.17228323,9.097511,3.7854455,0.0,0.0,0.0
30123407600309,-0.17228323,9.111869,3.751946,0.0,0.0,0.0
30123409979268,-0.15792629,9.116654,3.7663028,0.0,0.0,0.0
30123412358174,-0.17228323,9.102298,3.7806597,0.0,0.0,0.0
30123414737080,-0.148355,9.107083,3.7854455,0.0,0.0,0.0
30123417116039,-0.14356937,9.12144,3.790231,0.0,0.0,0.0
30123419494945,-0.12921242,9.107083,3.790231,0.0,0.0,0.0
30123421873851,-0.11006984,9.111869,3.7998023,0.0,0.0,0.0
30123424252809,-0.086141616,9.116654,3.7950168,0.0,0.0,0.0
30123426631716,-0.0526421,9.116654,3.7950168,0.0,0.0,0.0
30123429010622,-0.038285162,9.131011,3.7758741,0.0,0.0,0.0
30123431389580,-0.043070808,9.140582,3.7758741,0.0,0.0,0.0
30123433768487,-0.02871387,9.131011,3.7710886,0.0,0.0,0.0
30123436147393,-0.009571291,9.111869,3.7806597,0.0,0.0,0.0
30123438526351,-0.019142581,9.131011,3.7758741,0.0,0.0,0.0
30123440905257,-0.02871387,9.102298,3.7663028,0.0,0.0,0.0
30123443284216,-0.047856454,9.107083,3.7950168,0.0,0.0,0.0
30123445663122,-0.062213387,9.097511,3.804588,0.0,0.0,0.0
30123448042028,-0.076570325,9.083155,3.8093736,0.0,0.0,0.0
30123450420934,-0.06699903,9.131011,3.8093736,0.0,0.0,0.0
30123452799893,-0.09092726,9.126225,3.7950168,0.0,0.0,0.0
30123455178799,-0.09092726,9.102298,3.7950168,0.0,0.0,0.0
30123457557757,-0.1052842,9.111869,3.804588,0.0,0.0,0.0
30123459936664,-0.13878371,9.111869,3.804588,0.0,0.0,0.0
30123462315570,-0.148355,9.097511,3.7998023,0.0,0.0,0.0
30123464694528,-0.17228323,9.078369,3.7998023,0.0,0.0,0.0
30123467073434,-0.16271193,9.073584,3.7998023,0.0,0.0,0.0
30123469452341,-0.15792629,9.102298,3.7854455,0.0,0.0,0.0
30123471831299,-0.14356937,9.102298,3.790231,0.0,0.0,0.0
30123474210205,-0.13878371,9.111869,3.7950168,0.0,0.0,0.0
30123476589112,-0.13878371,9.107083,3.7950168,0.0,0.0,0.0
30123478968070,-0.13399807,9.12144,3.7998023,0.0,0.0,0.0
30123481346976,-0.13399807,9.107083,3.804588,0.0,0.0,0.0
30123483725882,-0.13399807,9.135797,3.804588,0.0,0.0,0.0
30123486104841,-0.15314065,9.126225,3.790231,0.0,0.0,0.0
30123488483747,-0.15792629,9.116654,3.7806597,0.0,0.0,0.0
30123490862653,-0.18185452,9.126225,3.7758741,0.0,0.0,0.0
30123493241612,-0.19621146,9.145369,3.7854455,0.0,0.0,0.0
30123495620518,-0.2009971,9.145369,3.790231,0.0,0.0,0.0
30123497999424,-0.18664017,9.135797,3.7806597,0.0,0.0,0.0
30123500378382,-0.18185452,9.126225,3.790231,0.0,0.0,0.0
30123502757289,-0.2009971,9.126225,3.790231,0.0,0.0,0.0
30123505136195,-0.19621146,9.12144,3.7998023,0.0,0.0,0.0
30123507515153,-0.18664017,9.12144,3.8093736,0.0,0.0,0.0
30123509894059,-0.18185452,9.116654,3.7950168,0.0,0.0,0.0
30123512272966,-0.17706887,9.107083,3.7998023,0.0,0.0,0.0
30123514651924,-0.16749759,9.111869,3.818945,0.0,0.0,0.0
30123517030830,-0.13399807,9.107083,3.818945,0.0,0.0,0.0
30123519409737,-0.13399807,9.102298,3.8093736,0.0,0.0,0.0
30123521788643,-0.124426775,9.08794,3.8141594,0.0,0.0,0.0
30123524167601,-0.086141616,9.073584,3.8141594,0.0,0.0,0.0
30123526546507,-0.09571291,9.097511,3.8237305,0.0,0.0,0.0
30123528925466,-0.076570325,9.083155,3.804588,0.0,0.0,0.0
30123531304372,-0.033499517,9.078369,3.8093736,0.0,0.0,0.0
30123533683278,-0.023928227,9.083155,3.8093736,0.0,0.0,0.0
30123536062237,-0.014356935,9.078369,3.804588,0.0,0.0,0.0
30123538441143,-0.043070808,9.092726,3.804588,0.0,0.0,0.0
30123540820049,-0.047856454,9.078369,3.804588,0.0,0.0,0.0
30123543199007,-0.07178468,9.102298,3.804588,0.0,0.0,0.0
30123545577914,-0.09092726,9.107083,3.8141594,0.0,0.0,0.0
30123547956820,-0.10049855,9.092726,3.8141594,0.0,0.0,0.0
30123550335778,-0.13399807,9.083155,3.8141594,0.0,0.0,0.0
30123552714684,-0.16271193,9.102298,3.7758741,0.0,0.0,0.0
30123555093591,-0.18664017,9.140582,3.7758741,0.0,0.0,0.0
30123557472497,-0.2009971,9.150154,3.790231,0.0,0.0,0.0
30123559851455,-0.22013968,9.145369,3.7806597,0.0,0.0,0.0
30123562230362,-0.21535404,9.131011,3.7854455,0.0,0.0,0.0
30123564609320,-0.2536392,9.102298,3.7806597,0.0,0.0,0.0
30123566988226,-0.2632105,9.126225,3.7758741,0.0,0.0,0.0
30123569367132,-0.24885355,9.140582,3.7854455,0.0,0.0,0.0
30123571746091,-0.24885355,9.140582,3.7806597,0.0,0.0,0.0
30123574124997,-0.26799613,9.107083,3.7950168,0.0,0.0,0.0
30123576503903,-0.28713873,9.111869,3.804588,0.0,0.0,0.0
30123578882862,-0.2440679,9.111869,3.790231,0.0,0.0,0.0
30123581261768,-0.22492532,9.102298,3.7758741,0.0,0.0,0.0
30123583640674,-0.2105684,9.097511,3.7615173,0.0,0.0,0.0
30123586019632,-0.20578274,9.12144,3.7854455,0.0,0.0,0.0
30123588398539,-0.19142582,9.111869,3.7950168,0.0,0.0,0.0
30123590777445,-0.16749759,9.097511,3.7950168,0.0,0.0,0.0
30123593156403,-0.15792629,9.097511,3.7758741,0.0,0.0,0.0
30123595535309,-0.13399807,9.107083,3.7806597,0.0,0.0,0.0
30123597914216,-0.148355,9.107083,3.790231,0.0,0.0,0.0
30123600293174,-0.16271193,9.107083,3.804588,0.0,0.0,0.0
30123602672080,-0.16271193,9.116654,3.7806597,0.0,0.0,0.0
30123605050987,-0.15792629,9.12144,3.7806597,0.0,0.0,0.0
30123607429945,-0.16749759,9.12144,3.804588,0.0,0.0,0.0
30123609808851,-0.19621146,9.135797,3.818945,0.0,0.0,0.0
30123612187757,-0.21535404,9.107083,3.8141594,0.0,0.0,0.0
30123614566716,-0.21535404,9.12144,3.804588,0.0,0.0,0.0
30123616945622,-0.23449662,9.131011,3.790231,0.0,0.0,0.0
30123619324528,-0.2727818,9.131011,3.7806597,0.0,0.0,0.0
30123621703487,-0.26799613,9.12144,3.8093736,0.0,0.0,0.0
30123624082393,-0.24885355,9.131011,3.8093736,0.0,0.0,0.0
30123626461299,-0.2727818,9.135797,3.8093736,0.0,0.0,0.0
30123628840205,-0.25842485,9.126225,3.7998023,0.0,0.0,0.0
30123631219164,-0.2632105,9.116654,3.790231,0.0,0.0,0.0
30123633598070,-0.2727818,9.107083,3.7806597,0.0,0.0,0.0
30123635977028,-0.2440679,9.102298,3.7663028,0.0,0.0,0.0
30123638355934,-0.2440679,9.116654,3.7663028,0.0,0.0,0.0
30123640734841,-0.22492532,9.107083,3.7758741,0.0,0.0,0.0
30123643113799,-0.22971097,9.092726,3.7615173,0.0,0.0,0.0
30123645492705,-0.22492532,9.116654,3.7710886,0.0,0.0,0.0
30123647871612,-0.20578274,9.116654,3.7615173,0.0,0.0,0.0
30123650250518,-0.2009971,9.126225,3.7854455,0.0,0.0,0.0
30123652629476,-0.2009971,9.107083,3.7854455,0.0,0.0,0.0
30123655008382,-0.18664017,9.116654,3.790231,0.0,0.0,0.0
30123657387341,-0.15792629,9.116654,3.7854455,0.0,0.0,0.0
30123659766247,-0.18664017,9.097511,3.7806597,0.0,0.0,0.0
30123662145153,-0.17706887,9.107083,3.7758741,0.0,0.0,0.0
30123664524112,-0.15792629,9.08794,3.7950168,0.0,0.0,0.0
30123666903018,-0.16749759,9.102298,3.7998023,0.0,0.0,0.0
30123669281924,-0.18664017,9.102298,3.804588,0.0,0.0,0.0
30123671660882,-0.18185452,9.102298,3.7998023,0.0,0.0,0.0
30123674039789,-0.15314065,9.102298,3.7710886,0.0,0.0,0.0
30123676418643,-0.15792629,9.08794,3.7758741,0.0,0.0,0.0
30123678797653,-0.17706887,9.08794,3.7950168,0.0,0.0,0.0
30123681176559,-0.16749759,9.097511,3.7998023,0.0,0.0,0.0
30123683555466,-0.16749759,9.08794,3.790231,0.0,0.0,0.0
30123685934424,-0.17228323,9.08794,3.7854455,0.0,0.0,0.0
30123688313330,-0.18185452,9.083155,3.7998023,0.0,0.0,0.0
30123690692237,-0.18664017,9.102298,3.7950168,0.0,0.0,0.0
30123693071195,-0.17706887,9.126225,3.7854455,0.0,0.0,0.0
30123695450101,-0.18185452,9.116654,3.7758741,0.0,0.0,0.0
30123697829007,-0.19142582,9.111869,3.7854455,0.0,0.0,0.0
30123700207966,-0.18664017,9.12144,3.7710886,0.0,0.0,0.0
30123702586872,-0.2009971,9.135797,3.7998023,0.0,0.0,0.0
30123704965778,-0.2105684,9.145369,3.8285162,0.0,0.0,0.0
30123707344737,-0.20578274,9.131011,3.818945,0.0,0.0,0.0
30123709723643,-0.2105684,9.12144,3.7950168,0.0,0.0,0.0
30123712102549,-0.22492532,9.116654,3.7806597,0.0,0.0,0.0
30123714481507,-0.21535404,9.150154,3.7950168,0.0,0.0,0.0
30123716860414,-0.18185452,9.131011,3.8141594,0.0,0.0,0.0
30123719239320,-0.18185452,9.140582,3.8141594,0.0,0.0,0.0
30123721618278,-0.19142582,9.12144,3.8237305,0.0,0.0,0.0
30123723997184,-0.18664017,9.107083,3.8093736,0.0,0.0,0.0
30123726376091,-0.2009971,9.107083,3.790231,0.0,0.0,0.0
30123728755049,-0.19142582,9.111869,3.7806597,0.0,0.0,0.0
30123731133955,-0.19621146,9.107083,3.7710886,0.0,0.0,0.0
30123733512862,-0.17706887,9.102298,3.790231,0.0,0.0,0.0
30123735891820,-0.148355,9.116654,3.804588,0.0,0.0,0.0
30123738270726,-0.16749759,9.102298,3.8141594,0.0,0.0,0.0
30123740649632,-0.16271193,9.116654,3.790231,0.0,0.0,0.0
30123743028591,-0.16749759,9.111869,3.790231,0.0,0.0,0.0
30123745407497,-0.15792629,9.107083,3.7758741,0.0,0.0,0.0
30123747786403,-0.16271193,9.116654,3.7806597,0.0,0.0,0.0
30123750165362,-0.14356937,9.102298,3.7854455,0.0,0.0,0.0
30123752544268,-0.12921242,9.111869,3.8141594,0.0,0.0,0.0
30123754923174,-0.12921242,9.107083,3.8333018,0.0,0.0,0.0
30123757302132,-0.13878371,9.107083,3.8285162,0.0,0.0,0.0
30123759681039,-0.148355,9.097511,3.7854455,0.0,0.0,0.0
30123762059945,-0.148355,9.083155,3.7710886,0.0,0.0,0.0
30123764438903,-0.13399807,9.102298,3.790231,0.0,0.0,0.0
30123766817809,-0.124426775,9.12144,3.804588,0.0,0.0,0.0
30123769196716,-0.12921242,9.12144,3.8141594,0.0,0.0,0.0
30123771575674,-0.13399807,9.092726,3.7950168,0.0,0.0,0.0
30123773954580,-0.13399807,9.073584,3.7854455,0.0,0.0,0.0
30123776333487,-0.11964113,9.078369,3.7615173,0.0,0.0,0.0
30123778712445,-0.12921242,9.097511,3.7423747,0.0,0.0,0.0
30123781091351,-0.13399807,9.107083,3.7567315,0.0,0.0,0.0
30123783470257,-0.12921242,9.08794,3.7615173,0.0,0.0,0.0
30123785849216,-0.148355,9.097511,3.7758741,0.0,0.0,0.0
30123788228122,-0.15314065,9.097511,3.7710886,0.0,0.0,0.0
30123790607028,-0.12921242,9.083155,3.7710886,0.0,0.0,0.0
30123792985987,-0.11485548,9.107083,3.7663028,0.0,0.0,0.0
30123795364893,-0.13399807,9.140582,3.7710886,0.0,0.0,0.0
30123797743799,-0.124426775,9.131011,3.7663028,0.0,0.0,0.0
30123800122705,-0.12921242,9.126225,3.7806597,0.0,0.0,0.0
30123802501664,-0.124426775,9.12144,3.7950168,0.0,0.0,0.0
30123804880570,-0.11485548,9.116654,3.804588,0.0,0.0,0.0
30123807259528,-0.13878371,9.107083,3.8093736,0.0,0.0,0.0
30123809638434,-0.11964113,9.116654,3.7950168,0.0,0.0,0.0
30123812017341,-0.11964113,9.150154,3.7950168,0.0,0.0,0.0
30123814396299,-0.11964113,9.145369,3.7950168,0.0,0.0,0.0
30123816775205,-0.124426775,9.140582,3.8093736,0.0,0.0,0.0
30123819154112,-0.10049855,9.116654,3.8333018,0.0,0.0,0.0
30123821533070,-0.11485548,9.102298,3.8285162,0.0,0.0,0.0
30123823911976,-0.1052842,9.12144,3.8237305,0.0,0.0,0.0
30123826291403,-0.086141616,9.12144,3.804588,0.0,0.0,0.0
30123828669841,-0.10049855,9.107083,3.790231,0.0,0.0,0.0
30123831048747,-0.11485548,9.097511,3.790231,0.0,0.0,0.0
30123833427653,-0.11485548,9.08794,3.7998023,0.0,0.0,0.0
30123835806612,-0.13399807,9.097511,3.818945,0.0,0.0,0.0
30123838185518,-0.15792629,9.08794,3.8141594,0.0,0.0,0.0
30123840564424,-0.15314065,9.078369,3.7950168,0.0,0.0,0.0
30123842943330,-0.15792629,9.078369,3.7854455,0.0,0.0,0.0
30123845322289,-0.16749759,9.092726,3.7710886,0.0,0.0,0.0
30123847701195,-0.19142582,9.097511,3.7567315,0.0,0.0,0.0
30123850080153,-0.2009971,9.08794,3.7615173,0.0,0.0,0.0
30123852459059,-0.18664017,9.107083,3.7663028,0.0,0.0,0.0
30123854837966,-0.19621146,9.131011,3.7854455,0.0,0.0,0.0
30123857216924,-0.2009971,9.102298,3.7998023,0.0,0.0,0.0
30123859595830,-0.17706887,9.083155,3.751946,0.0,0.0,0.0
30123861974737,-0.17706887,9.083155,3.7471602,0.0,0.0,0.0
30123864353695,-0.18664017,9.116654,3.7423747,0.0,0.0,0.0
30123866732601,-0.18664017,9.12144,3.7615173,0.0,0.0,0.0
30123869111507,-0.16749759,9.116654,3.7567315,0.0,0.0,0.0
30123871490466,-0.16271193,9.131011,3.7950168,0.0,0.0,0.0
30123873869372,-0.14356937,9.111869,3.7758741,0.0,0.0,0.0
30123876248278,-0.13878371,9.126225,3.7806597,0.0,0.0,0.0
30123878627237,-0.13399807,9.126225,3.7758741,0.0,0.0,0.0
30123881006143,-0.11006984,9.12144,3.7710886,0.0,0.0,0.0
30123883385049,-0.11006984,9.12144,3.7854455,0.0,0.0,0.0
30123885764007,-0.13878371,9.102298,3.8093736,0.0,0.0,0.0
30123888142914,-0.13878371,9.126225,3.8093736,0.0,0.0,0.0
30123890521820,-0.13878371,9.126225,3.8141594,0.0,0.0,0.0
30123892900778,-0.14356937,9.111869,3.818945,0.0,0.0,0.0
30123895279684,-0.15314065,9.097511,3.8237305,0.0,0.0,0.0
30123897658591,-0.14356937,9.102298,3.8237305,0.0,0.0,0.0
30123900037549,-0.15314065,9.12144,3.8237305,0.0,0.0,0.0
30123902416455,-0.15792629,9.111869,3.818945,0.0,0.0,0.0
30123904795362,-0.15314065,9.107083,3.818945,0.0,0.0,0.0
30123907174320,-0.15314065,9.097511,3.8237305,0.0,0.0,0.0
30123909553226,-0.12921242,9.111869,3.8093736,0.0,0.0,0.0
30123911932132,-0.13399807,9.12144,3.8237305,0.0,0.0,0.0
30123914311091,-0.11964113,9.116654,3.842873,0.0,0.0,0.0
30123916689997,-0.124426775,9.102298,3.8524444,0.0,0.0,0.0
30123919068903,-0.124426775,9.097511,3.8333018,0.0,0.0,0.0
30123921447862,-0.1052842,9.097511,3.8237305,0.0,0.0,0.0
30123923826716,-0.11964113,9.08794,3.8285162,0.0,0.0,0.0
30123926205674,-0.11964113,9.097511,3.8285162,0.0,0.0,0.0
30123928584632,-0.11485548,9.102298,3.8141594,0.0,0.0,0.0
30123930963539,-0.09571291,9.102298,3.7998023,0.0,0.0,0.0
30123933342445,-0.086141616,9.083155,3.804588,0.0,0.0,0.0
30123935721403,-0.09571291,9.08794,3.8141594,0.0,0.0,0.0
30123938100309,-0.1052842,9.083155,3.804588,0.0,0.0,0.0
30123940479216,-0.11485548,9.078369,3.804588,0.0,0.0,0.0
30123942858174,-0.11964113,9.107083,3.7854455,0.0,0.0,0.0
30123945237080,-0.15792629,9.107083,3.7854455,0.0,0.0,0.0
30123947615987,-0.15314065,9.097511,3.7758741,0.0,0.0,0.0
30123949994945,-0.15314065,9.092726,3.790231,0.0,0.0,0.0
30123952373851,-0.16271193,9.107083,3.7806597,0.0,0.0,0.0
30123954752757,-0.18664017,9.131011,3.7806597,0.0,0.0,0.0
30123957131716,-0.18185452,9.12144,3.7615173,0.0,0.0,0.0
30123959510622,-0.17706887,9.102298,3.7615173,0.0,0.0,0.0
30123961889528,-0.16749759,9.12144,3.7663028,0.0,0.0,0.0
30123964268487,-0.16749759,9.107083,3.7663028,0.0,0.0,0.0
30123966647393,-0.13399807,9.111869,3.7758741,0.0,0.0,0.0
30123969026299,-0.11006984,9.111869,3.7998023,0.0,0.0,0.0
30123971405257,-0.11485548,9.107083,3.7998023,0.0,0.0,0.0
30123973784164,-0.09571291,9.116654,3.7950168,0.0,0.0,0.0
30123976163070,-0.09571291,9.126225,3.7663028,0.0,0.0,0.0
30123978542028,-0.07178468,9.116654,3.7758741,0.0,0.0,0.0
30123980920934,-0.07178468,9.111869,3.7806597,0.0,0.0,0.0
30123983299841,-0.05742774,9.116654,3.7950168,0.0,0.0,0.0
30123985678799,-0.038285162,9.116654,3.7758741,0.0,0.0,0.0
30123988057705,-0.038285162,9.116654,3.7998023,0.0,0.0,0.0
30123990436612,-0.062213387,9.111869,3.790231,0.0,0.0,0.0
30123992815518,-0.06699903,9.126225,3.8093736,0.0,0.0,0.0
30123995194476,-0.09571291,9.12144,3.7998023,0.0,0.0,0.0
30123997573382,-0.076570325,9.111869,3.8093736,0.0,0.0,0.0
30123999952341,-0.11485548,9.097511,3.8093736,0.0,0.0,0.0
30124002331247,-0.14356937,9.107083,3.8380876,0.0,0.0,0.0
30124004710153,-0.15314065,9.126225,3.8476589,0.0,0.0,0.0
30124007089112,-0.13399807,9.116654,3.8476589,0.0,0.0,0.0
30124009468018,-0.148355,9.135797,3.8237305,0.0,0.0,0.0
30124011846924,-0.17706887,9.140582,3.8285162,0.0,0.0,0.0
30124014225882,-0.18185452,9.12144,3.842873,0.0,0.0,0.0
30124016604789,-0.16749759,9.131011,3.8572302,0.0,0.0,0.0
30124018983695,-0.16749759,9.116654,3.8572302,0.0,0.0,0.0
30124021362653,-0.15314065,9.12144,3.8476589,0.0,0.0,0.0
30124023741559,-0.12921242,9.135797,3.8380876,0.0,0.0,0.0
30124026120466,-0.086141616,9.140582,3.8285162,0.0,0.0,0.0
30124028499424,-0.06699903,9.131011,3.8333018,0.0,0.0,0.0
30124030878330,-0.02871387,9.111869,3.8572302,0.0,0.0,0.0
30124033257237,-0.014356935,9.102298,3.8763726,0.0,0.0,0.0
30124035636195,0.019142581,9.12144,3.8524444,0.0,0.0,0.0
30124038015101,0.02871387,9.102298,3.8380876,0.0,0.0,0.0
30124040394007,0.07178468,9.08794,3.8333018,0.0,0.0,0.0
30124042772914,0.06699903,9.08794,3.818945,0.0,0.0,0.0
30124045151872,0.043070808,9.107083,3.8093736,0.0,0.0,0.0
30124047530778,0.033499517,9.097511,3.8285162,0.0,0.0,0.0
30124049909737,0.0526421,9.092726,3.8476589,0.0,0.0,0.0
30124052288643,0.05742774,9.111869,3.8141594,0.0,0.0,0.0
30124054667549,0.009571291,9.097511,3.790231,0.0,0.0,0.0
30124057046455,-0.02871387,9.116654,3.7854455,0.0,0.0,0.0
30124059425414,-0.023928227,9.111869,3.7567315,0.0,0.0,0.0
30124061804320,-0.05742774,9.08794,3.7758741,0.0,0.0,0.0
30124064183226,-0.076570325,9.068798,3.790231,0.0,0.0,0.0
30124066562184,-0.09571291,9.097511,3.7854455,0.0,0.0,0.0
30124068941091,-0.11485548,9.097511,3.790231,0.0,0.0,0.0
30124071320049,-0.148355,9.092726,3.7806597,0.0,0.0,0.0
30124073698955,-0.16749759,9.064013,3.7423747,0.0,0.0,0.0
30124076077862,-0.16749759,9.083155,3.751946,0.0,0.0,0.0
30124078456820,-0.16271193,9.08794,3.7567315,0.0,0.0,0.0
30124080835726,-0.16271193,9.08794,3.7758741,0.0,0.0,0.0
30124083214632,-0.16749759,9.12144,3.7950168,0.0,0.0,0.0
30124085593591,-0.11485548,9.126225,3.7806597,0.0,0.0,0.0
30124087972497,-0.11006984,9.131011,3.7806597,0.0,0.0,0.0
30124090351403,-0.076570325,9.107083,3.7758741,0.0,0.0,0.0
30124092730309,-0.07178468,9.126225,3.7806597,0.0,0.0,0.0
30124095109268,-0.0526421,9.111869,3.7663028,0.0,0.0,0.0
30124097488174,-0.033499517,9.107083,3.7615173,0.0,0.0,0.0
30124099867080,-0.02871387,9.107083,3.7710886,0.0,0.0,0.0
30124102246039,-0.02871387,9.116654,3.7806597,0.0,0.0,0.0
30124104624945,-0.023928227,9.107083,3.7806597,0.0,0.0,0.0
30124107003851,-0.009571291,9.116654,3.7806597,0.0,0.0,0.0
30124109382809,-0.023928227,9.097511,3.7950168,0.0,0.0,0.0
30124111761716,-0.043070808,9.097511,3.7950168,0.0,0.0,0.0
30124114140674,-0.08135597,9.107083,3.7806597,0.0,0.0,0.0
30124116519580,-0.11485548,9.083155,3.7950168,0.0,0.0,0.0
30124118898487,-0.13878371,9.097511,3.7854455,0.0,0.0,0.0
30124121277445,-0.16271193,9.107083,3.7998023,0.0,0.0,0.0
30124123656351,-0.2009971,9.107083,3.8093736,0.0,0.0,0.0
30124126035257,-0.2009971,9.097511,3.790231,0.0,0.0,0.0
30124128414164,-0.21535404,9.107083,3.7950168,0.0,0.0,0.0
30124130793122,-0.22971097,9.092726,3.790231,0.0,0.0,0.0
30124133172028,-0.22013968,9.126225,3.7950168,0.0,0.0,0.0
30124135550934,-0.20578274,9.116654,3.804588,0.0,0.0,0.0
30124137929893,-0.17706887,9.097511,3.8285162,0.0,0.0,0.0
30124140308799,-0.148355,9.107083,3.818945,0.0,0.0,0.0
30124142687705,-0.13878371,9.107083,3.804588,0.0,0.0,0.0
30124145066664,-0.12921242,9.111869,3.790231,0.0,0.0,0.0
30124147445570,-0.11006984,9.12144,3.7950168,0.0,0.0,0.0
30124149824476,-0.07178468,9.111869,3.8093736,0.0,0.0,0.0
30124152203434,-0.0526421,9.097511,3.818945,0.0,0.0,0.0
30124154582341,-0.043070808,9.097511,3.8333018,0.0,0.0,0.0
30124156961195,-0.02871387,9.08794,3.8237305,0.0,0.0,0.0
30124159340205,-0.033499517,9.092726,3.7950168,0.0,0.0,0.0
30124161719112,-0.043070808,9.097511,3.7998023,0.0,0.0,0.0
30124164098018,-0.05742774,9.08794,3.790231,0.0,0.0,0.0
30124166476976,-0.1052842,9.107083,3.7998023,0.0,0.0,0.0
30124168855882,-0.10049855,9.097511,3.8093736,0.0,0.0,0.0
30124171234789,-0.1052842,9.111869,3.8141594,0.0,0.0,0.0
30124173613747,-0.11485548,9.107083,3.818945,0.0,0.0,0.0
30124175992653,-0.11485548,9.116654,3.8285162,0.0,0.0,0.0
30124178371559,-0.13399807,9.116654,3.804588,0.0,0.0,0.0
30124180750518,-0.13878371,9.126225,3.7998023,0.0,0.0,0.0
30124183129424,-0.148355,9.140582,3.7854455,0.0,0.0,0.0
30124185508330,-0.15314065,9.135797,3.7806597,0.0,0.0,0.0
30124187887237,-0.13399807,9.135797,3.7998023,0.0,0.0,0.0
30124190266195,-0.1052842,9.12144,3.8141594,0.0,0.0,0.0
30124192645101,-0.076570325,9.131011,3.7854455,0.0,0.0,0.0
30124195024059,-0.05742774,9.12144,3.7806597,0.0,0.0,0.0
30124197402966,-0.033499517,9.126225,3.7854455,0.0,0.0,0.0
30124199781872,-0.0047856453,9.097511,3.790231,0.0,0.0,0.0
30124202160830,0.019142581,9.08794,3.7998023,0.0,0.0,0.0
30124204539737,0.05742774,9.083155,3.8237305,0.0,0.0,0.0
30124206918643,0.07178468,9.092726,3.8285162,0.0,0.0,0.0
30124209297601,0.09571291,9.08794,3.818945,0.0,0.0,0.0
30124211676507,0.11964113,9.116654,3.7950168,0.0,0.0,0.0
30124214055414,0.076570325,9.111869,3.790231,0.0,0.0,0.0
30124216434372,0.086141616,9.097511,3.8093736,0.0,0.0,0.0
30124218813278,0.08135597,9.08794,3.804588,0.0,0.0,0.0
30124221192184,0.062213387,9.08794,3.842873,0.0,0.0,0.0
30124223571143,0.0526421,9.097511,3.8333018,0.0,0.0,0.0
30124225950049,0.038285162,9.08794,3.818945,0.0,0.0,0.0
30124228328955,0.0047856453,9.08794,3.7998023,0.0,0.0,0.0
30124230707914,0.0,9.08794,3.7950168,0.0,0.0,0.0
30124233086820,-0.019142581,9.116654,3.8237305,0.0,0.0,0.0
30124235465726,-0.009571291,9.107083,3.8333018,0.0,0.0,0.0
30124237844684,-0.02871387,9.131011,3.842873,0.0,0.0,0.0
30124240223591,-0.033499517,9.111869,3.8237305,0.0,0.0,0.0
30124242602497,-0.02871387,9.116654,3.7950168,0.0,0.0,0.0
30124244981455,-0.02871387,9.131011,3.7758741,0.0,0.0,0.0
30124247360362,-0.038285162,9.111869,3.7758741,0.0,0.0,0.0
30124249739268,-0.02871387,9.097511,3.790231,0.0,0.0,0.0
30124252118226,-0.023928227,9.107083,3.7854455,0.0,0.0,0.0
30124254497132,-0.009571291,9.107083,3.7663028,0.0,0.0,0.0
30124256876039,0.009571291,9.092726,3.7663028,0.0,0.0,0.0
30124259254997,0.014356935,9.111869,3.7710886,0.0,0.0,0.0
30124261633903,0.023928227,9.111869,3.7806597,0.0,0.0,0.0
30124264012809,0.019142581,9.126225,3.7663028,0.0,0.0,0.0
30124266391716,0.019142581,9.116654,3.7758741,0.0,0.0,0.0
30124268770674,0.02871387,9.12144,3.7567315,0.0,0.0,0.0
30124271149580,0.014356935,9.107083,3.7567315,0.0,0.0,0.0
30124273528487,0.0047856453,9.131011,3.7710886,0.0,0.0,0.0
30124275907445,-0.019142581,9.126225,3.7854455,0.0,0.0,0.0
30124278286351,-0.033499517,9.131011,3.7854455,0.0,0.0,0.0
30124280665309,-0.047856454,9.131011,3.790231,0.0,0.0,0.0
30124283044216,-0.047856454,9.12144,3.7950168,0.0,0.0,0.0
30124285423122,-0.06699903,9.097511,3.818945,0.0,0.0,0.0
30124287802080,-0.07178468,9.107083,3.8285162,0.0,0.0,0.0
30124290180987,-0.076570325,9.102298,3.8333018,0.0,0.0,0.0
30124292559893,-0.09092726,9.116654,3.8237305,0.0,0.0,0.0
30124294938799,-0.09092726,9.092726,3.8141594,0.0,0.0,0.0
30124297317757,-0.086141616,9.092726,3.818945,0.0,0.0,0.0
30124299696664,-0.076570325,9.116654,3.8237305,0.0,0.0,0.0
30124302075570,-0.0526421,9.092726,3.8141594,0.0,0.0,0.0
30124304454528,-0.0047856453,9.08794,3.8237305,0.0,0.0,0.0
30124306833434,0.0047856453,9.126225,3.8237305,0.0,0.0,0.0
30124309212341,0.0,9.107083,3.8093736,0.0,0.0,0.0
30124311591299,0.014356935,9.111869,3.818945,0.0,0.0,0.0
30124313970205,0.019142581,9.111869,3.8093736,0.0,0.0,0.0
30124316349112,0.02871387,9.097511,3.8285162,0.0,0.0,0.0
30124318728070,0.038285162,9.097511,3.804588,0.0,0.0,0.0
30124321106976,0.0,9.097511,3.8141594,0.0,0.0,0.0
30124323485882,0.02871387,9.092726,3.8093736,0.0,0.0,0.0
30124325864841,0.0526421,9.102298,3.8237305,0.0,0.0,0.0
30124328243747,0.023928227,9.08794,3.8237305,0.0,0.0,0.0
30124330622653,0.0,9.078369,3.818945,0.0,0.0,0.0
30124333001612,0.0,9.097511,3.8093736,0.0,0.0,0.0
30124335380518,-0.02871387,9.08794,3.804588,0.0,0.0,0.0
30124337759424,-0.033499517,9.083155,3.7806597,0.0,0.0,0.0
30124340138382,-0.0526421,9.111869,3.7950168,0.0,0.0,0.0
30124342517289,-0.09092726,9.107083,3.790231,0.0,0.0,0.0
30124344896195,-0.11006984,9.107083,3.7854455,0.0,0.0,0.0
30124347275153,-0.11006984,9.111869,3.7854455,0.0,0.0,0.0
30124349654059,-0.11964113,9.12144,3.7806597,0.0,0.0,0.0
30124352032966,-0.11006984,9.12144,3.7663028,0.0,0.0,0.0
30124354411924,-0.124426775,9.097511,3.7806597,0.0,0.0,0.0
30124356790830,-0.11485548,9.12144,3.7998023,0.0,0.0,0.0
30124359169737,-0.11964113,9.116654,3.7854455,0.0,0.0,0.0
30124361548695,-0.1052842,9.126225,3.7710886,0.0,0.0,0.0
30124363927601,-0.09092726,9.12144,3.7663028,0.0,0.0,0.0
30124366306507,-0.062213387,9.135797,3.7615173,0.0,0.0,0.0
30124368685414,-0.047856454,9.12144,3.7567315,0.0,0.0,0.0
30124371064372,-0.0526421,9.145369,3.7663028,0.0,0.0,0.0
30124373443278,-0.02871387,9.131011,3.7758741,0.0,0.0,0.0
30124375822237,0.0047856453,9.12144,3.7758741,0.0,0.0,0.0
30124378201143,0.0047856453,9.126225,3.7615173,0.0,0.0,0.0
30124380580049,0.023928227,9.107083,3.7663028,0.0,0.0,0.0
30124382959007,0.02871387,9.102298,3.7663028,0.0,0.0,0.0
30124385337914,0.019142581,9.116654,3.7663028,0.0,0.0,0.0
30124387716820,-0.0047856453,9.12144,3.7663028,0.0,0.0,0.0
30124390095778,-0.033499517,9.097511,3.7854455,0.0,0.0,0.0
30124392474684,-0.038285162,9.08794,3.7950168,0.0,0.0,0.0
30124394853591,-0.0526421,9.08794,3.804588,0.0,0.0,0.0
30124397232497,-0.06699903,9.073584,3.7998023,0.0,0.0,0.0
30124399611455,-0.09571291,9.097511,3.7998023,0.0,0.0,0.0
30124401990362,-0.076570325,9.107083,3.8093736,0.0,0.0,0.0
30124404369268,-0.076570325,9.111869,3.804588,0.0,0.0,0.0
30124406748226,-0.10049855,9.083155,3.804588,0.0,0.0,0.0
30124409127132,-0.11006984,9.111869,3.8093736,0.0,0.0,0.0
30124411506039,-0.13878371,9.092726,3.8141594,0.0,0.0,0.0
30124413884997,-0.124426775,9.097511,3.7998023,0.0,0.0,0.0
30124416263903,-0.11006984,9.126225,3.7854455,0.0,0.0,0.0
30124418642809,-0.12921242,9.126225,3.7854455,0.0,0.0,0.0
30124421021768,-0.1052842,9.116654,3.7710886,0.0,0.0,0.0
30124423400674,-0.11964113,9.111869,3.7806597,0.0,0.0,0.0
30124425779580,-0.09571291,9.12144,3.7806597,0.0,0.0,0.0
30124428158539,-0.09571291,9.131011,3.7710886,0.0,0.0,0.0
30124430537445,-0.1052842,9.107083,3.7567315,0.0,0.0,0.0
30124432916351,-0.08135597,9.102298,3.7471602,0.0,0.0,0.0
30124435295309,-0.06699903,9.126225,3.7328033,0.0,0.0,0.0
30124437674216,-0.07178468,9.135797,3.737589,0.0,0.0,0.0
30124440053122,-0.06699903,9.135797,3.7423747,0.0,0.0,0.0
30124442432080,-0.07178468,9.126225,3.7663028,0.0,0.0,0.0
30124444810987,-0.07178468,9.107083,3.751946,0.0,0.0,0.0
30124447189893,-0.086141616,9.107083,3.7567315,0.0,0.0,0.0
30124449568851,-0.1052842,9.12144,3.7328033,0.0,0.0,0.0
30124451947757,-0.13399807,9.126225,3.7423747,0.0,0.0,0.0
30124454326664,-0.11485548,9.12144,3.7567315,0.0,0.0,0.0
30124456705622,-0.1052842,9.107083,3.7663028,0.0,0.0,0.0
30124459084528,-0.124426775,9.12144,3.7615173,0.0,0.0,0.0
30124461463434,-0.148355,9.131011,3.7806597,0.0,0.0,0.0
30124463842393,-0.15792629,9.116654,3.7854455,0.0,0.0,0.0
30124466221299,-0.13878371,9.092726,3.7950168,0.0,0.0,0.0
30124468600205,-0.14356937,9.092726,3.8093736,0.0,0.0,0.0
30124470979164,-0.16271193,9.08794,3.804588,0.0,0.0,0.0
30124473358070,-0.15792629,9.092726,3.8093736,0.0,0.0,0.0
30124475736976,-0.16749759,9.107083,3.8093736,0.0,0.0,0.0
30124478115934,-0.16271193,9.116654,3.8141594,0.0,0.0,0.0
30124480494841,-0.16749759,9.12144,3.8237305,0.0,0.0,0.0
30124482873747,-0.148355,9.102298,3.7950168,0.0,0.0,0.0
30124485252705,-0.16749759,9.111869,3.8093736,0.0,0.0,0.0
30124487631612,-0.15792629,9.131011,3.7998023,0.0,0.0,0.0
30124490010518,-0.14356937,9.12144,3.7998023,0.0,0.0,0.0
30124492389476,-0.15792629,9.12144,3.790231,0.0,0.0,0.0
30124494768382,-0.16749759,9.12144,3.7950168,0.0,0.0,0.0
30124497147289,-0.16749759,9.145369,3.790231,0.0,0.0,0.0
30124499526247,-0.16749759,9.135797,3.7854455,0.0,0.0,0.0
30124501905153,-0.18185452,9.131011,3.7998023,0.0,0.0,0.0
30124504284059,-0.18664017,9.140582,3.7806597,0.0,0.0,0.0
30124506662966,-0.18185452,9.169296,3.7806597,0.0,0.0,0.0
30124509041924,-0.17706887,9.12144,3.7710886,0.0,0.0,0.0
30124511420830,-0.18185452,9.131011,3.7710886,0.0,0.0,0.0
30124513799737,-0.19142582,9.131011,3.7806597,0.0,0.0,0.0
30124516178695,-0.19621146,9.12144,3.7806597,0.0,0.0,0.0
30124518557601,-0.19142582,9.145369,3.7758741,0.0,0.0,0.0
30124520936507,-0.2009971,9.126225,3.7710886,0.0,0.0,0.0
30124523315466,-0.20578274,9.111869,3.7950168,0.0,0.0,0.0
30124525694372,-0.18664017,9.131011,3.7950168,0.0,0.0,0.0
30124528073278,-0.16749759,9.111869,3.790231,0.0,0.0,0.0
30124530452237,-0.19621146,9.092726,3.7950168,0.0,0.0,0.0
30124532831143,-0.18185452,9.097511,3.7998023,0.0,0.0,0.0
30124535210049,-0.19621146,9.116654,3.7950168,0.0,0.0,0.0
30124537589007,-0.2009971,9.12144,3.790231,0.0,0.0,0.0
30124539967914,-0.19621146,9.102298,3.7998023,0.0,0.0,0.0
30124542346820,-0.17228323,9.102298,3.7950168,0.0,0.0,0.0
30124544725778,-0.148355,9.111869,3.7998023,0.0,0.0,0.0
30124547104684,-0.15314065,9.102298,3.7998023,0.0,0.0,0.0
30124549483591,-0.16749759,9.102298,3.7998023,0.0,0.0,0.0
30124551862549,-0.15792629,9.083155,3.804588,0.0,0.0,0.0
30124554241455,-0.15792629,9.083155,3.7998023,0.0,0.0,0.0
30124556620362,-0.16749759,9.111869,3.7998023,0.0,0.0,0.0
30124558999320,-0.18664017,9.116654,3.7998023,0.0,0.0,0.0
30124561378226,-0.19621146,9.111869,3.7998023,0.0,0.0,0.0
30124563757132,-0.19621146,9.116654,3.7950168,0.0,0.0,0.0
30124566136091,-0.2105684,9.111869,3.7854455,0.0,0.0,0.0
30124568514997,-0.23928227,9.107083,3.7950168,0.0,0.0,0.0
30124570893903,-0.23449662,9.107083,3.790231,0.0,0.0,0.0
30124573272862,-0.2440679,9.126225,3.7806597,0.0,0.0,0.0
30124575651768,-0.28235307,9.126225,3.790231,0.0,0.0,0.0
30124578030674,-0.28713873,9.111869,3.8141594,0.0,0.0,0.0
30124580409580,-0.28235307,9.126225,3.804588,0.0,0.0,0.0
30124582788539,-0.3062813,9.150154,3.7950168,0.0,0.0,0.0
30124585167445,-0.31585258,9.131011,3.790231,0.0,0.0,0.0
30124587546403,-0.32542387,9.140582,3.7854455,0.0,0.0,0.0
30124589925309,-0.30149564,9.116654,3.8093736,0.0,0.0,0.0
30124592304216,-0.28713873,9.092726,3.7998023,0.0,0.0,0.0
30124594683122,-0.25842485,9.107083,3.7998023,0.0,0.0,0.0
30124597062080,-0.2536392,9.097511,3.7950168,0.0,0.0,0.0
30124599440987,-0.23928227,9.097511,3.7998023,0.0,0.0,0.0
30124601819893,-0.2009971,9.092726,3.8093736,0.0,0.0,0.0
30124604198851,-0.2009971,9.111869,3.790231,0.0,0.0,0.0
30124606577757,-0.2009971,9.083155,3.7998023,0.0,0.0,0.0
30124608956664,-0.21535404,9.107083,3.8093736,0.0,0.0,0.0
30124611335622,-0.21535404,9.078369,3.8093736,0.0,0.0,0.0
30124613714528,-0.2105684,9.097511,3.7854455,0.0,0.0,0.0
30124616093434,-0.21535404,9.111869,3.804588,0.0,0.0,0.0
30124618472393,-0.22492532,9.12144,3.790231,0.0,0.0,0.0
30124620851299,-0.22492532,9.107083,3.7710886,0.0,0.0,0.0
30124623230205,-0.21535404,9.102298,3.7998023,0.0,0.0,0.0
30124625609164,-0.25842485,9.107083,3.8093736,0.0,0.0,0.0
30124627988070,-0.28713873,9.126225,3.804588,0.0,0.0,0.0
30124630366976,-0.2727818,9.097511,3.8141594,0.0,0.0,0.0
30124632745934,-0.26799613,9.102298,3.804588,0.0,0.0,0.0
30124635124841,-0.25842485,9.097511,3.804588,0.0,0.0,0.0
30124637503747,-0.28713873,9.083155,3.804588,0.0,0.0,0.0
30124639882705,-0.2727818,9.126225,3.8141594,0.0,0.0,0.0
30124642261612,-0.27756742,9.111869,3.8285162,0.0,0.0,0.0
30124644640466,-0.27756742,9.097511,3.804588,0.0,0.0,0.0
30124647019424,-0.26799613,9.107083,3.8093736,0.0,0.0,0.0
30124649398382,-0.26799613,9.107083,3.7998023,0.0,0.0,0.0
30124651777289,-0.2536392,9.12144,3.818945,0.0,0.0,0.0
30124654156247,-0.25842485,9.12144,3.8141594,0.0,0.0,0.0
30124656535153,-0.2632105,9.097511,3.804588,0.0,0.0,0.0
30124658914059,-0.2536392,9.08794,3.8141594,0.0,0.0,0.0
30124661293018,-0.22971097,9.102298,3.8285162,0.0,0.0,0.0
30124663671924,-0.2536392,9.092726,3.818945,0.0,0.0,0.0
30124666050830,-0.23449662,9.092726,3.7950168,0.0,0.0,0.0
30124668429789,-0.21535404,9.102298,3.7950168,0.0,0.0,0.0
30124670808695,-0.2440679,9.08794,3.7950168,0.0,0.0,0.0
30124673187601,-0.25842485,9.107083,3.7854455,0.0,0.0,0.0
30124675566559,-0.28235307,9.116654,3.7998023,0.0,0.0,0.0
30124677945466,-0.27756742,9.107083,3.8141594,0.0,0.0,0.0
30124680324372,-0.2727818,9.116654,3.8141594,0.0,0.0,0.0
30124682703278,-0.2727818,9.131011,3.818945,0.0,0.0,0.0
30124685082237,-0.28713873,9.12144,3.804588,0.0,0.0,0.0
30124687461143,-0.29192436,9.107083,3.8141594,0.0,0.0,0.0
30124689840049,-0.26799613,9.092726,3.804588,0.0,0.0,0.0
30124692219007,-0.2440679,9.111869,3.818945,0.0,0.0,0.0
30124694597914,-0.24885355,9.102298,3.8093736,0.0,0.0,0.0
30124696976820,-0.24885355,9.083155,3.7950168,0.0,0.0,0.0
30124699355778,-0.25842485,9.083155,3.7758741,0.0,0.0,0.0
30124701734684,-0.23449662,9.08794,3.7710886,0.0,0.0,0.0
30124704113591,-0.22971097,9.102298,3.7806597,0.0,0.0,0.0
30124706492549,-0.24885355,9.08794,3.7806597,0.0,0.0,0.0
30124708871455,-0.23449662,9.083155,3.7663028,0.0,0.0,0.0
30124711250362,-0.22013968,9.092726,3.7806597,0.0,0.0,0.0
30124713629320,-0.22971097,9.097511,3.7854455,0.0,0.0,0.0
30124716008226,-0.24885355,9.097511,3.7854455,0.0,0.0,0.0
30124718387132,-0.23449662,9.102298,3.7806597,0.0,0.0,0.0
30124720766091,-0.25842485,9.102298,3.7758741,0.0,0.0,0.0
30124723144997,-0.2632105,9.107083,3.7854455,0.0,0.0,0.0
30124725523903,-0.26799613,9.131011,3.7998023,0.0,0.0,0.0
30124727902862,-0.28235307,9.116654,3.8093736,0.0,0.0,0.0
30124730281768,-0.2632105,9.092726,3.804588,0.0,0.0,0.0
30124732660674,-0.28235307,9.116654,3.7998023,0.0,0.0,0.0
30124735039632,-0.30149564,9.135797,3.790231,0.0,0.0,0.0
30124737418539,-0.28713873,9.140582,3.7806597,0.0,0.0,0.0
30124739797445,-0.28713873,9.111869,3.7998023,0.0,0.0,0.0
30124742176403,-0.28713873,9.131011,3.8093736,0.0,0.0,0.0
30124744555309,-0.26799613,9.126225,3.804588,0.0,0.0,0.0
30124746934216,-0.23928227,9.116654,3.7854455,0.0,0.0,0.0
30124749313174,-0.2105684,9.107083,3.7854455,0.0,0.0,0.0
30124751692080,-0.2105684,9.102298,3.790231,0.0,0.0,0.0
30124754070987,-0.20578274,9.107083,3.7950168,0.0,0.0,0.0
30124756449893,-0.19142582,9.097511,3.7950168,0.0,0.0,0.0
30124758828851,-0.17228323,9.097511,3.804588,0.0,0.0,0.0
30124761207757,-0.13399807,9.102298,3.8141594,0.0,0.0,0.0
30124763586664,-0.15792629,9.107083,3.7998023,0.0,0.0,0.0
30124765965622,-0.16749759,9.08794,3.7854455,0.0,0.0,0.0
30124768344528,-0.18185452,9.102298,3.7950168,0.0,0.0,0.0
30124770723434,-0.19142582,9.107083,3.7854455,0.0,0.0,0.0
30124773102393,-0.18185452,9.107083,3.7998023,0.0,0.0,0.0
30124775481299,-0.20578274,9.102298,3.8093736,0.0,0.0,0.0
30124777860205,-0.22013968,9.12144,3.8237305,0.0,0.0,0.0
30124780239164,-0.23449662,9.126225,3.818945,0.0,0.0,0.0
30124782618070,-0.24885355,9.131011,3.7998023,0.0,0.0,0.0
30124784996976,-0.2727818,9.107083,3.804588,0.0,0.0,0.0
30124787375934,-0.2632105,9.097511,3.804588,0.0,0.0,0.0
30124789754841,-0.2536392,9.102298,3.804588,0.0,0.0,0.0
30124792133747,-0.24885355,9.116654,3.818945,0.0,0.0,0.0
30124794512705,-0.29192436,9.111869,3.8093736,0.0,0.0,0.0
30124796891612,-0.28235307,9.126225,3.804588,0.0,0.0,0.0
30124799270518,-0.26799613,9.116654,3.790231,0.0,0.0,0.0
30124801649476,-0.25842485,9.126225,3.7854455,0.0,0.0,0.0
30124804028382,-0.2727818,9.111869,3.7663028,0.0,0.0,0.0
30124806407289,-0.2727818,9.135797,3.7663028,0.0,0.0,0.0
30124808786195,-0.2632105,9.116654,3.7710886,0.0,0.0,0.0
30124811165153,-0.2440679,9.111869,3.7854455,0.0,0.0,0.0
30124813544059,-0.23928227,9.116654,3.7710886,0.0,0.0,0.0
30124815922966,-0.24885355,9.135797,3.7710886,0.0,0.0,0.0
30124818301924,-0.23449662,9.111869,3.790231,0.0,0.0,0.0
30124820680830,-0.22492532,9.12144,3.7950168,0.0,0.0,0.0
30124823059737,-0.2440679,9.116654,3.7950168,0.0,0.0,0.0
30124825438695,-0.23928227,9.107083,3.790231,0.0,0.0,0.0
30124827817601,-0.2440679,9.12144,3.790231,0.0,0.0,0.0
30124830196507,-0.23449662,9.107083,3.7854455,0.0,0.0,0.0
30124832575466,-0.23928227,9.097511,3.7710886,0.0,0.0,0.0
30124834954372,-0.22492532,9.12144,3.7950168,0.0,0.0,0.0
30124837333278,-0.22492532,9.116654,3.7950168,0.0,0.0,0.0
30124839712237,-0.23449662,9.102298,3.790231,0.0,0.0,0.0
30124842091091,-0.22492532,9.102298,3.7854455,0.0,0.0,0.0
30124844470049,-0.17228323,9.111869,3.7950168,0.0,0.0,0.0
30124846849007,-0.15314065,9.107083,3.7998023,0.0,0.0,0.0
30124849227914,-0.17228323,9.107083,3.7806597,0.0,0.0,0.0
30124851606820,-0.15792629,9.097511,3.7758741,0.0,0.0,0.0
30124853985778,-0.15792629,9.116654,3.7854455,0.0,0.0,0.0
30124856364684,-0.14356937,9.107083,3.7806597,0.0,0.0,0.0
30124858743591,-0.13878371,9.116654,3.790231,0.0,0.0,0.0
30124861122549,-0.13399807,9.111869,3.7806597,0.0,0.0,0.0
30124863501455,-0.13878371,9.097511,3.7758741,0.0,0.0,0.0
30124865880362,-0.15792629,9.083155,3.7710886,0.0,0.0,0.0
30124868259320,-0.14356937,9.092726,3.7854455,0.0,0.0,0.0
30124870638226,-0.11964113,9.097511,3.7950168,0.0,0.0,0.0
30124873017132,-0.13399807,9.111869,3.7854455,0.0,0.0,0.0
30124875396039,-0.148355,9.102298,3.7758741,0.0,0.0,0.0
30124877774997,-0.13878371,9.111869,3.7758741,0.0,0.0,0.0
30124880153903,-0.16271193,9.102298,3.7758741,0.0,0.0,0.0
30124882532809,-0.16271193,9.12144,3.7758741,0.0,0.0,0.0
30124884911768,-0.16271193,9.135797,3.7710886,0.0,0.0,0.0
30124887290674,-0.18185452,9.126225,3.7854455,0.0,0.0,0.0
30124889669580,-0.18664017,9.107083,3.790231,0.0,0.0,0.0
30124892048539,-0.18185452,9.107083,3.7758741,0.0,0.0,0.0
30124894427445,-0.17228323,9.131011,3.7758741,0.0,0.0,0.0
30124896806351,-0.17706887,9.131011,3.7758741,0.0,0.0,0.0
30124899185309,-0.17706887,9.102298,3.7663028,0.0,0.0,0.0
30124901564216,-0.18185452,9.111869,3.7663028,0.0,0.0,0.0
30124903943122,-0.19142582,9.126225,3.7854455,0.0,0.0,0.0
30124906322080,-0.18664017,9.097511,3.7950168,0.0,0.0,0.0
30124908700987,-0.20578274,9.097511,3.7950168,0.0,0.0,0.0
30124911079893,-0.2009971,9.092726,3.7950168,0.0,0.0,0.0
30124913458851,-0.19142582,9.102298,3.790231,0.0,0.0,0.0
30124915837757,-0.21535404,9.092726,3.7806597,0.0,0.0,0.0
30124918216664,-0.20578274,9.083155,3.7854455,0.0,0.0,0.0
30124920595622,-0.2105684,9.097511,3.7710886,0.0,0.0,0.0
30124922974528,-0.2009971,9.097511,3.7998023,0.0,0.0,0.0
30124925353434,-0.19142582,9.078369,3.7854455,0.0,0.0,0.0
30124927732393,-0.18664017,9.073584,3.790231,0.0,0.0,0.0
30124930111299,-0.16271193,9.083155,3.818945,0.0,0.0,0.0
30124932490205,-0.17706887,9.107083,3.8285162,0.0,0.0,0.0
30124934869112,-0.19142582,9.131011,3.8237305,0.0,0.0,0.0
30124937248070,-0.18664017,9.126225,3.8141594,0.0,0.0,0.0
30124939626976,-0.18185452,9.12144,3.818945,0.0,0.0,0.0
30124942005882,-0.18664017,9.12144,3.804588,0.0,0.0,0.0
30124944384841,-0.17228323,9.126225,3.8093736,0.0,0.0,0.0
30124946763747,-0.17228323,9.140582,3.804588,0.0,0.0,0.0
30124949142653,-0.14356937,9.131011,3.804588,0.0,0.0,0.0
30124951521559,-0.14356937,9.107083,3.7950168,0.0,0.0,0.0
30124953900518,-0.14356937,9.12144,3.790231,0.0,0.0,0.0
30124956279424,-0.14356937,9.107083,3.7998023,0.0,0.0,0.0
30124958658382,-0.16271193,9.102298,3.7950168,0.0,0.0,0.0
30124961037289,-0.19142582,9.102298,3.7998023,0.0,0.0,0.0
30124963416195,-0.19142582,9.111869,3.7998023,0.0,0.0,0.0
30124965795153,-0.2105684,9.107083,3.7854455,0.0,0.0,0.0
30124968174059,-0.18664017,9.111869,3.7710886,0.0,0.0,0.0
30124970552966,-0.17706887,9.111869,3.7854455,0.0,0.0,0.0
30124972931924,-0.19142582,9.131011,3.7663028,0.0,0.0,0.0
30124975310830,-0.20578274,9.12144,3.7567315,0.0,0.0,0.0
30124977689737,-0.19621146,9.111869,3.7615173,0.0,0.0,0.0
30124980068695,-0.19621146,9.107083,3.7567315,0.0,0.0,0.0
30124982447601,-0.18185452,9.111869,3.7615173,0.0,0.0,0.0
30124984826507,-0.16749759,9.102298,3.7615173,0.0,0.0,0.0
30124987205466,-0.17228323,9.135797,3.7663028,0.0,0.0,0.0
30124989584372,-0.148355,9.131011,3.7806597,0.0,0.0,0.0
30124991963278,-0.148355,9.12144,3.7758741,0.0,0.0,0.0
30124994342237,-0.14356937,9.126225,3.7663028,0.0,0.0,0.0
30124996721143,-0.13878371,9.12144,3.7710886,0.0,0.0,0.0
30124999100049,-0.13399807,9.135797,3.7663028,0.0,0.0,0.0
30125001479007,-0.13878371,9.145369,3.7806597,0.0,0.0,0.0
30125003857914,-0.13399807,9.145369,3.7806597,0.0,0.0,0.0
30125006236820,-0.11485548,9.126225,3.790231,0.0,0.0,0.0
30125008615674,-0.11485548,9.111869,3.7998023,0.0,0.0,0.0
30125010994684,-0.11964113,9.135797,3.7854455,0.0,0.0,0.0
30125013373591,-0.1052842,9.107083,3.7854455,0.0,0.0,0.0
30125015752497,-0.11006984,9.102298,3.7950168,0.0,0.0,0.0
30125018131455,-0.11964113,9.126225,3.7854455,0.0,0.0,0.0
30125020510362,-0.13399807,9.135797,3.804588,0.0,0.0,0.0
30125022889268,-0.15792629,9.145369,3.7854455,0.0,0.0,0.0
30125025268226,-0.17706887,9.135797,3.7806597,0.0,0.0,0.0
30125027647132,-0.16271193,9.12144,3.7806597,0.0,0.0,0.0
30125030026039,-0.16749759,9.131011,3.7806597,0.0,0.0,0.0
30125032404997,-0.18664017,9.111869,3.7758741,0.0,0.0,0.0
30125034783851,-0.19142582,9.12144,3.790231,0.0,0.0,0.0
30125037162809,-0.19621146,9.116654,3.790231,0.0,0.0,0.0
30125039541716,-0.19142582,9.111869,3.7950168,0.0,0.0,0.0
30125041920674,-0.18185452,9.12144,3.7806597,0.0,0.0,0.0
30125044299580,-0.16749759,9.116654,3.7615173,0.0,0.0,0.0
30125046678487,-0.18185452,9.107083,3.7758741,0.0,0.0,0.0
30125049057445,-0.2009971,9.12144,3.7950168,0.0,0.0,0.0
30125051436351,-0.17228323,9.102298,3.7854455,0.0,0.0,0.0
30125053815205,-0.18664017,9.116654,3.7758741,0.0,0.0,0.0
30125056194216,-0.19621146,9.111869,3.7758741,0.0,0.0,0.0
30125058573122,-0.19621146,9.107083,3.7663028,0.0,0.0,0.0
30125060952028,-0.18664017,9.107083,3.7758741,0.0,0.0,0.0
30125063330987,-0.17228323,9.111869,3.7806597,0.0,0.0,0.0
30125065709893,-0.17706887,9.111869,3.7854455,0.0,0.0,0.0
30125068088799,-0.19142582,9.126225,3.7950168,0.0,0.0,0.0
30125070467757,-0.19142582,9.12144,3.804588,0.0,0.0,0.0
30125072846664,-0.18664017,9.116654,3.7998023,0.0,0.0,0.0
30125075225570,-0.16271193,9.126225,3.8141594,0.0,0.0,0.0
30125077604528,-0.17706887,9.111869,3.8141594,0.0,0.0,0.0
30125079983434,-0.148355,9.107083,3.804588,0.0,0.0,0.0
30125082362341,-0.15314065,9.102298,3.790231,0.0,0.0,0.0
30125084741299,-0.14356937,9.097511,3.790231,0.0,0.0,0.0
30125087120205,-0.12921242,9.097511,3.8093736,0.0,0.0,0.0
30125089499112,-0.12921242,9.097511,3.7998023,0.0,0.0,0.0
30125091878070,-0.11485548,9.083155,3.7854455,0.0,0.0,0.0
30125094256976,-0.11964113,9.059227,3.790231,0.0,0.0,0.0
30125096635882,-0.124426775,9.059227,3.790231,0.0,0.0,0.0
30125099014737,-0.11006984,9.068798,3.7854455,0.0,0.0,0.0
30125101393747,-0.10049855,9.08794,3.7950168,0.0,0.0,0.0
30125103772601,-0.10049855,9.092726,3.7950168,0.0,0.0,0.0
30125106151559,-0.09571291,9.102298,3.7806597,0.0,0.0,0.0
30125108530518,-0.1052842,9.092726,3.790231,0.0,0.0,0.0
30125110909424,-0.11485548,9.092726,3.7806597,0.0,0.0,0.0
30125113288330,-0.11485548,9.107083,3.7710886,0.0,0.0,0.0
30125115667289,-0.11964113,9.116654,3.7806597,0.0,0.0,0.0
30125118046195,-0.16749759,9.111869,3.7758741,0.0,0.0,0.0
30125120425101,-0.14356937,9.116654,3.7758741,0.0,0.0,0.0
30125122804059,-0.14356937,9.145369,3.7758741,0.0,0.0,0.0
30125125182966,-0.17228323,9.140582,3.7758741,0.0,0.0,0.0
30125127561872,-0.18185452,9.126225,3.7710886,0.0,0.0,0.0
30125129940830,-0.18664017,9.135797,3.7806597,0.0,0.0,0.0
30125132319737,-0.20578274,9.135797,3.7854455,0.0,0.0,0.0
30125134698643,-0.16749759,9.135797,3.7710886,0.0,0.0,0.0
30125137077601,-0.18185452,9.12144,3.7806597,0.0,0.0,0.0
30125139456507,-0.18664017,9.131011,3.790231,0.0,0.0,0.0
30125141835414,-0.17706887,9.145369,3.7950168,0.0,0.0,0.0
30125144214320,-0.16271193,9.126225,3.7710886,0.0,0.0,0.0
30125146593278,-0.15792629,9.131011,3.7806597,0.0,0.0,0.0
30125148972184,-0.15792629,9.111869,3.7806597,0.0,0.0,0.0
30125151351091,-0.148355,9.116654,3.7615173,0.0,0.0,0.0
30125153730049,-0.14356937,9.102298,3.7854455,0.0,0.0,0.0
30125156108955,-0.17228323,9.107083,3.7758741,0.0,0.0,0.0
30125158487862,-0.16271193,9.111869,3.7854455,0.0,0.0,0.0
30125160866820,-0.15314065,9.107083,3.790231,0.0,0.0,0.0
30125163245726,-0.17706887,9.107083,3.7615173,0.0,0.0,0.0
30125165624528,-0.16749759,9.12144,3.7567315,0.0,0.0,0.0
30125168003591,-0.18664017,9.126225,3.7567315,0.0,0.0,0.0
30125170382497,-0.2009971,9.111869,3.7806597,0.0,0.0,0.0
30125172761403,-0.22013968,9.102298,3.7663028,0.0,0.0,0.0
30125175140362,-0.23928227,9.116654,3.7758741,0.0,0.0,0.0
30125177519268,-0.26799613,9.126225,3.7806597,0.0,0.0,0.0
30125179898174,-0.2440679,9.12144,3.7854455,0.0,0.0,0.0
30125182277080,-0.25842485,9.126225,3.7998023,0.0,0.0,0.0
30125184656039,-0.25842485,9.116654,3.7950168,0.0,0.0,0.0
30125187034893,-0.26799613,9.116654,3.790231,0.0,0.0,0.0
30125189413903,-0.25842485,9.140582,3.7806597,0.0,0.0,0.0
30125191792809,-0.24885355,9.135797,3.7854455,0.0,0.0,0.0
30125194171716,-0.23449662,9.159725,3.790231,0.0,0.0,0.0
30125196550622,-0.22013968,9.159725,3.7806597,0.0,0.0,0.0
30125198929580,-0.2105684,9.145369,3.790231,0.0,0.0,0.0
30125201308487,-0.18185452,9.131011,3.7854455,0.0,0.0,0.0
30125203687393,-0.19142582,9.159725,3.7710886,0.0,0.0,0.0
30125206066351,-0.17228323,9.140582,3.7854455,0.0,0.0,0.0
30125208445257,-0.17706887,9.111869,3.7854455,0.0,0.0,0.0
30125210824164,-0.16749759,9.131011,3.7806597,0.0,0.0,0.0
30125213203122,-0.16749759,9.12144,3.7758741,0.0,0.0,0.0
