t_ns,ax,ay,az,bx,by,bz
19429045324851,-1.8041883,8.9826565,4.2927237,0.0,0.0,0.0
19429047704122,-1.8711873,8.973084,4.321438,0.0,0.0,0.0
19429050083341,-1.8999012,8.997013,4.369294,0.0,0.0,0.0
19429052462559,-1.8951155,9.030513,4.388437,0.0,0.0,0.0
19429054841778,-1.861616,9.01137,4.345366,0.0,0.0,0.0
19429057221049,-1.7419748,9.016156,4.2687955,0.0,0.0,0.0
19429059600268,-1.5696917,9.030513,4.220939,0.0,0.0,0.0
19429061979486,-1.3782659,9.016156,4.2017965,0.0,0.0,0.0
19429064358705,-1.1389836,9.020942,4.1922255,0.0,0.0,0.0
19429066737976,-0.9236295,9.001799,4.206582,0.0,0.0,0.0
19429069117195,-0.67477596,8.992228,4.2257247,0.0,0.0,0.0
19429071496414,-0.4833502,9.001799,4.182654,0.0,0.0,0.0
19429073875632,-0.33020952,8.958728,4.115655,0.0,0.0,0.0
19429076254851,-0.20578274,8.958728,4.0773697,0.0,0.0,0.0
19429078634122,-0.148355,8.944371,4.063013,0.0,0.0,0.0
19429081013341,-0.11006984,8.944371,4.082155,0.0,0.0,0.0
19429083392559,-0.10049855,8.944371,4.0869412,0.0,0.0,0.0
19429085771778,-0.13878371,8.925228,4.1347976,0.0,0.0,0.0
19429088151049,-0.23449662,8.930014,4.1778684,0.0,0.0,0.0
19429090530268,-0.3493521,8.915657,4.182654,0.0,0.0,0.0
19429092909486,-0.47377887,8.944371,4.182654,0.0,0.0,0.0
19429095288705,-0.6221339,8.949157,4.182654,0.0,0.0,0.0
19429097667976,-0.7800602,8.939586,4.206582,0.0,0.0,0.0
19429100047195,-0.93320084,8.9348,4.240082,0.0,0.0,0.0
19429102426361,-1.0624132,8.944371,4.2927237,0.0,0.0,0.0
19429104805632,-1.1581261,8.9348,4.3357944,0.0,0.0,0.0
19429107184903,-1.253839,8.920443,4.3357944,0.0,0.0,0.0
19429109564122,-1.3208381,8.925228,4.321438,0.0,0.0,0.0
19429111943341,-1.3064811,8.9013,4.302295,0.0,0.0,0.0
19429114322559,-1.2921243,8.867801,4.3070807,0.0,0.0,0.0
19429116701830,-1.2346965,8.843872,4.331009,0.0,0.0,0.0
19429119081049,-1.1437693,8.810373,4.345366,0.0,0.0,0.0
19429121460268,-1.0576276,8.772088,4.331009,0.0,0.0,0.0
19429123839486,-0.93320084,8.7577305,4.3501515,0.0,0.0,0.0
19429126218757,-0.83748794,8.743374,4.359723,0.0,0.0,0.0
19429128597976,-0.6891329,8.71466,4.3501515,0.0,0.0,0.0
19429130977195,-0.5599205,8.71466,4.3405805,0.0,0.0,0.0
19429133356414,-0.46899325,8.681161,4.3357944,0.0,0.0,0.0
19429135735632,-0.41156548,8.690732,4.345366,0.0,0.0,0.0
19429138114903,-0.32063824,8.705089,4.3836513,0.0,0.0,0.0
19429140494122,-0.2632105,8.695518,4.398008,0.0,0.0,0.0
19429142873341,-0.18664017,8.776874,4.3932223,0.0,0.0,0.0
19429145252559,-0.20578274,8.762517,4.287938,0.0,0.0,0.0
19429147631830,-0.3493521,8.662018,4.3262234,0.0,0.0,0.0
19429150011049,-0.22971097,8.709874,4.546363,0.0,0.0,0.0
19429152390268,-0.15314065,8.772088,4.6755753,0.0,0.0,0.0
19429154769486,-0.23928227,8.729017,4.618148,0.0,0.0,0.0
19429157148757,-0.29671,8.700303,4.4889355,0.0,0.0,0.0
19429159527976,-0.22013968,8.781659,4.4171505,0.0,0.0,0.0
19429161907195,-0.27756742,8.805588,4.3501515,0.0,0.0,0.0
19429164286414,-0.37806597,8.796016,4.3501515,0.0,0.0,0.0
19429166665684,-0.3924229,8.776874,4.5128636,0.0,0.0,0.0
19429169044903,-0.44985065,8.776874,4.618148,0.0,0.0,0.0
19429171424122,-0.5694918,8.762517,4.6229334,0.0,0.0,0.0
19429173803341,-0.6556334,8.748159,4.546363,0.0,0.0,0.0
19429176182611,-0.66999036,8.819944,4.4410787,0.0,0.0,0.0
19429178561830,-0.7178468,8.819944,4.354937,0.0,0.0,0.0
19429180941049,-0.7896315,8.82473,4.359723,0.0,0.0,0.0
19429183320268,-0.83748794,8.843872,4.4458647,0.0,0.0,0.0
19429185699486,-0.8327023,8.829515,4.5272202,0.0,0.0,0.0
19429188078757,-0.8757731,8.810373,4.546363,0.0,0.0,0.0
19429190457924,-0.80877405,8.82473,4.4985065,0.0,0.0,0.0
19429192837195,-0.76570326,8.829515,4.4075794,0.0,0.0,0.0
19429195216414,-0.7896315,8.834301,4.369294,0.0,0.0,0.0
19429197595684,-0.64606214,8.872586,4.3740797,0.0,0.0,0.0
19429199974903,-0.6125626,8.843872,4.388437,0.0,0.0,0.0
19429202354122,-0.6221339,8.85823,4.436293,0.0,0.0,0.0
19429204733341,-0.57427746,8.839087,4.4315076,0.0,0.0,0.0
19429207112611,-0.55513483,8.843872,4.45065,0.0,0.0,0.0
19429209491830,-0.5982057,8.843872,4.4171505,0.0,0.0,0.0
19429211871049,-0.5599205,8.863015,4.426722,0.0,0.0,0.0
19429214250268,-0.5024927,8.839087,4.3932223,0.0,0.0,0.0
19429216629539,-0.5455636,8.848659,4.3405805,0.0,0.0,0.0
19429219008757,-0.57906306,8.85823,4.321438,0.0,0.0,0.0
19429221387976,-0.53599226,8.877372,4.321438,0.0,0.0,0.0
19429223767195,-0.53599226,8.886943,4.354937,0.0,0.0,0.0
19429226146414,-0.6029913,8.85823,4.369294,0.0,0.0,0.0
19429228525684,-0.63170516,8.863015,4.3788652,0.0,0.0,0.0
19429230904903,-0.61734825,8.839087,4.3501515,0.0,0.0,0.0
19429233284122,-0.66041905,8.843872,4.3118663,0.0,0.0,0.0
19429235663341,-0.6652047,8.839087,4.2975097,0.0,0.0,0.0
19429238042611,-0.66041905,8.839087,4.287938,0.0,0.0,0.0
19429240421830,-0.67477596,8.805588,4.2831526,0.0,0.0,0.0
19429242801049,-0.67477596,8.800801,4.3070807,0.0,0.0,0.0
19429245180268,-0.65084773,8.810373,4.316652,0.0,0.0,0.0
19429247559539,-0.63170516,8.82473,4.3118663,0.0,0.0,0.0
19429249938757,-0.6269195,8.829515,4.302295,0.0,0.0,0.0
19429252317976,-0.59342,8.819944,4.26401,0.0,0.0,0.0
19429254697195,-0.5312066,8.82473,4.273581,0.0,0.0,0.0
19429257076414,-0.5168497,8.82473,4.2831526,0.0,0.0,0.0
19429259455684,-0.4833502,8.82473,4.331009,0.0,0.0,0.0
19429261834903,-0.44985065,8.829515,4.316652,0.0,0.0,0.0
19429264214122,-0.4211368,8.843872,4.3262234,0.0,0.0,0.0
19429266593341,-0.44506502,8.867801,4.3262234,0.0,0.0,0.0
19429268972611,-0.4019942,8.863015,4.331009,0.0,0.0,0.0
19429271351830,-0.38285163,8.853444,4.3405805,0.0,0.0,0.0
19429273731049,-0.34456646,8.85823,4.3501515,0.0,0.0,0.0
19429276110268,-0.3589234,8.848659,4.3501515,0.0,0.0,0.0
19429278489539,-0.35413775,8.848659,4.3645086,0.0,0.0,0.0
19429280868757,-0.3589234,8.848659,4.3788652,0.0,0.0,0.0
19429283247976,-0.4211368,8.82473,4.388437,0.0,0.0,0.0
19429285627195,-0.4354937,8.815159,4.3645086,0.0,0.0,0.0
19429288006466,-0.4546363,8.796016,4.359723,0.0,0.0,0.0
19429290385684,-0.4546363,8.800801,4.345366,0.0,0.0,0.0
19429292764903,-0.52163535,8.781659,4.359723,0.0,0.0,0.0
19429295144070,-0.55034924,8.7673025,4.3788652,0.0,0.0,0.0
19429297523341,-0.59342,8.79123,4.402794,0.0,0.0,0.0
19429299902611,-0.6221339,8.781659,4.412365,0.0,0.0,0.0
19429302281830,-0.65084773,8.776874,4.3932223,0.0,0.0,0.0
19429304661049,-0.6556334,8.762517,4.3788652,0.0,0.0,0.0
19429307040268,-0.6795616,8.79123,4.388437,0.0,0.0,0.0
19429309419539,-0.7082755,8.796016,4.398008,0.0,0.0,0.0
19429311798757,-0.6987042,8.796016,4.421936,0.0,0.0,0.0
19429314177976,-0.6843473,8.786445,4.4075794,0.0,0.0,0.0
19429316557195,-0.6795616,8.800801,4.412365,0.0,0.0,0.0
19429318936466,-0.67477596,8.805588,4.398008,0.0,0.0,0.0
19429321315684,-0.66041905,8.800801,4.3836513,0.0,0.0,0.0
19429323694903,-0.66999036,8.796016,4.3788652,0.0,0.0,0.0
19429326074122,-0.65084773,8.819944,4.398008,0.0,0.0,0.0
19429328453393,-0.60777694,8.829515,4.412365,0.0,0.0,0.0
19429330832611,-0.6029913,8.810373,4.4075794,0.0,0.0,0.0
19429333211830,-0.5886344,8.810373,4.4075794,0.0,0.0,0.0
19429335591049,-0.56470615,8.805588,4.402794,0.0,0.0,0.0
19429337970268,-0.5455636,8.79123,4.398008,0.0,0.0,0.0
19429340349539,-0.53599226,8.786445,4.3788652,0.0,0.0,0.0
19429342728757,-0.49292147,8.796016,4.354937,0.0,0.0,0.0
19429345107976,-0.45942193,8.79123,4.359723,0.0,0.0,0.0
19429347487195,-0.4642076,8.786445,4.3788652,0.0,0.0,0.0
19429349866466,-0.44985065,8.810373,4.3932223,0.0,0.0,0.0
19429352245684,-0.44506502,8.796016,4.3836513,0.0,0.0,0.0
19429354624903,-0.44506502,8.810373,4.402794,0.0,0.0,0.0
19429357004122,-0.42592242,8.796016,4.398008,0.0,0.0,0.0
19429359383393,-0.4211368,8.853444,4.3932223,0.0,0.0,0.0
19429361762611,-0.37328035,8.867801,4.3836513,0.0,0.0,0.0
19429364141830,-0.38763726,8.853444,4.402794,0.0,0.0,0.0
19429366521049,-0.38285163,8.853444,4.388437,0.0,0.0,0.0
19429368900268,-0.37806597,8.843872,4.3788652,0.0,0.0,0.0
19429371279539,-0.40677986,8.834301,4.3836513,0.0,0.0,0.0
19429373658705,-0.43070808,8.853444,4.3740797,0.0,0.0,0.0
19429376037976,-0.44985065,8.863015,4.359723,0.0,0.0,0.0
19429378417195,-0.47377887,8.877372,4.359723,0.0,0.0,0.0
19429380796466,-0.5024927,8.882157,4.359723,0.0,0.0,0.0
19429383175684,-0.5407779,8.867801,4.3501515,0.0,0.0,0.0
19429385554903,-0.5886344,8.863015,4.345366,0.0,0.0,0.0
19429387934122,-0.6221339,8.85823,4.331009,0.0,0.0,0.0
19429390313393,-0.6556334,8.867801,4.345366,0.0,0.0,0.0
19429392692611,-0.6843473,8.891729,4.354937,0.0,0.0,0.0
19429395071830,-0.7082755,8.9013,4.331009,0.0,0.0,0.0
19429397451049,-0.72741807,8.9013,4.3501515,0.0,0.0,0.0
19429399830216,-0.7465607,8.896515,4.3788652,0.0,0.0,0.0
19429402209539,-0.7609176,8.9013,4.3740797,0.0,0.0,0.0
19429404588757,-0.7465607,8.896515,4.388437,0.0,0.0,0.0
19429406967976,-0.7369894,8.896515,4.3788652,0.0,0.0,0.0
19429409347195,-0.72741807,8.882157,4.3788652,0.0,0.0,0.0
19429411726466,-0.67477596,8.834301,4.412365,0.0,0.0,0.0
19429414105684,-0.5072784,8.82473,4.517649,0.0,0.0,0.0
19429416484903,-0.39720857,8.815159,4.3645086,0.0,0.0,0.0
19429418864122,-0.5599205,8.82473,4.1443686,0.0,0.0,0.0
19429421243341,-0.5982057,8.805588,4.072584,0.0,0.0,0.0
19429423622611,-0.526421,8.776874,4.182654,0.0,0.0,0.0
19429426001830,-0.59342,8.796016,4.331009,0.0,0.0,0.0
19429428381049,-0.66041905,8.7577305,4.4315076,0.0,0.0,0.0
19429430760320,-0.53599226,8.752945,4.5128636,0.0,0.0,0.0
19429433139539,-0.44506502,8.805588,4.4075794,0.0,0.0,0.0
19429435518757,-0.45942193,8.853444,4.206582,0.0,0.0,0.0
19429437897976,-0.38763726,8.872586,4.101298,0.0,0.0,0.0
19429440277195,-0.26799613,8.863015,4.1204405,0.0,0.0,0.0
19429442656466,-0.2536392,8.85823,4.240082,0.0,0.0,0.0
19429445035684,-0.2440679,8.863015,4.388437,0.0,0.0,0.0
19429447414903,-0.18185452,8.839087,4.4554358,0.0,0.0,0.0
19429449794122,-0.1052842,8.853444,4.421936,0.0,0.0,0.0
19429452173341,-0.124426775,8.882157,4.287938,0.0,0.0,0.0
19429454552611,-0.09571291,8.886943,4.1635113,0.0,0.0,0.0
19429456931830,-0.062213387,8.891729,4.1204405,0.0,0.0,0.0
19429459311049,-0.11485548,8.906086,4.168297,0.0,0.0,0.0
19429461690268,-0.148355,8.9108715,4.240082,0.0,0.0,0.0
19429464069539,-0.16271193,8.896515,4.3070807,0.0,0.0,0.0
19429466448757,-0.22013968,8.882157,4.2927237,0.0,0.0,0.0
19429468827976,-0.31585258,8.920443,4.2161536,0.0,0.0,0.0
19429471207195,-0.3684947,8.9348,4.1204405,0.0,0.0,0.0
19429473586466,-0.4354937,8.944371,4.082155,0.0,0.0,0.0
19429475965684,-0.53599226,8.958728,4.091727,0.0,0.0,0.0
19429478344903,-0.6364908,8.949157,4.1635113,0.0,0.0,0.0
19429480724122,-0.7178468,8.9348,4.23051,0.0,0.0,0.0
19429483103393,-0.8039884,8.953942,4.2687955,0.0,0.0,0.0
19429485482611,-0.8853444,8.958728,4.2257247,0.0,0.0,0.0
19429487861830,-0.9523434,8.992228,4.139583,0.0,0.0,0.0
19429490241049,-1.0049855,8.987442,4.106084,0.0,0.0,0.0
19429492620268,-1.0480564,9.016156,4.1108694,0.0,0.0,0.0
19429494999539,-1.0863415,8.997013,4.1635113,0.0,0.0,0.0
19429497378757,-1.1102697,8.973084,4.2257247,0.0,0.0,0.0
19429499757976,-1.1006985,8.977871,4.2687955,0.0,0.0,0.0
19429502137195,-1.0719845,8.9826565,4.2448673,0.0,0.0,0.0
19429504516466,-1.0576276,8.9826565,4.2017965,0.0,0.0,0.0
19429506895684,-1.0145568,8.968299,4.168297,0.0,0.0,0.0
19429509274903,-0.95712906,8.997013,4.1587257,0.0,0.0,0.0
19429511654122,-0.91405827,9.006584,4.197011,0.0,0.0,0.0
19429514033393,-0.8422736,8.977871,4.249653,0.0,0.0,0.0
19429516412611,-0.7752745,8.973084,4.3070807,0.0,0.0,0.0
19429518791830,-0.7178468,8.958728,4.3357944,0.0,0.0,0.0
19429521171049,-0.66999036,8.953942,4.331009,0.0,0.0,0.0
19429523550268,-0.61734825,8.944371,4.287938,0.0,0.0,0.0
19429525929539,-0.5982057,8.939586,4.26401,0.0,0.0,0.0
19429528308757,-0.6029913,8.930014,4.278367,0.0,0.0,0.0
19429530687976,-0.57427746,8.886943,4.321438,0.0,0.0,0.0
19429533067195,-0.61734825,8.863015,4.3501515,0.0,0.0,0.0
19429535446466,-0.6269195,8.834301,4.3501515,0.0,0.0,0.0
19429537825684,-0.66999036,8.800801,4.3357944,0.0,0.0,0.0
19429540204903,-0.6939186,8.781659,4.3262234,0.0,0.0,0.0
19429542584122,-0.7178468,8.810373,4.302295,0.0,0.0,0.0
19429544963341,-0.7465607,8.819944,4.287938,0.0,0.0,0.0
19429547342611,-0.7896315,8.815159,4.3118663,0.0,0.0,0.0
19429549721830,-0.79920274,8.800801,4.3405805,0.0,0.0,0.0
19429552101049,-0.79920274,8.776874,4.359723,0.0,0.0,0.0
19429554480268,-0.79441714,8.810373,4.3740797,0.0,0.0,0.0
19429556859539,-0.82313097,8.810373,4.3405805,0.0,0.0,0.0
19429559238757,-0.7896315,8.829515,4.302295,0.0,0.0,0.0
19429561617976,-0.7369894,8.853444,4.3070807,0.0,0.0,0.0
19429563997195,-0.6843473,8.853444,4.3118663,0.0,0.0,0.0
19429566376414,-0.64606214,8.848659,4.3262234,0.0,0.0,0.0
19429568755684,-0.6125626,8.85823,4.359723,0.0,0.0,0.0
19429571134903,-0.55034924,8.877372,4.3645086,0.0,0.0,0.0
19429573514070,-0.4881358,8.891729,4.369294,0.0,0.0,0.0
19429575893341,-0.44506502,8.877372,4.3405805,0.0,0.0,0.0
19429578272611,-0.3924229,8.886943,4.302295,0.0,0.0,0.0
19429580651830,-0.38763726,8.891729,4.2687955,0.0,0.0,0.0
19429583031049,-0.33499518,8.906086,4.26401,0.0,0.0,0.0
19429585410268,-0.31106696,8.9013,4.240082,0.0,0.0,0.0
19429587789539,-0.29671,8.9013,4.2352962,0.0,0.0,0.0
19429590168757,-0.28713873,8.867801,4.220939,0.0,0.0,0.0
19429592547976,-0.28235307,8.896515,4.211368,0.0,0.0,0.0
19429594927195,-0.28713873,8.886943,4.1922255,0.0,0.0,0.0
19429597306414,-0.32542387,8.891729,4.1874394,0.0,0.0,0.0
19429599685684,-0.38763726,8.9013,4.206582,0.0,0.0,0.0
19429602064903,-0.41156548,8.896515,4.240082,0.0,0.0,0.0
19429604444122,-0.44506502,8.915657,4.249653,0.0,0.0,0.0
19429606823341,-0.45942193,8.9108715,4.2592244,0.0,0.0,0.0
19429609202611,-0.51206404,8.939586,4.249653,0.0,0.0,0.0
19429611581830,-0.55034924,8.973084,4.249653,0.0,0.0,0.0
19429613961049,-0.57427746,8.958728,4.2592244,0.0,0.0,0.0
19429616340268,-0.5982057,8.949157,4.2448673,0.0,0.0,0.0
19429618719539,-0.61734825,8.944371,4.240082,0.0,0.0,0.0
19429621098757,-0.6364908,8.939586,4.240082,0.0,0.0,0.0
19429623477976,-0.65084773,8.953942,4.2592244,0.0,0.0,0.0
19429625857195,-0.65084773,8.9108715,4.254439,0.0,0.0,0.0
19429628236414,-0.6556334,8.9013,4.2448673,0.0,0.0,0.0
19429630615684,-0.63170516,8.9013,4.240082,0.0,0.0,0.0
19429632994903,-0.61734825,8.9108715,4.2687955,0.0,0.0,0.0
19429635374122,-0.60777694,8.9013,4.287938,0.0,0.0,0.0
19429637753341,-0.59342,8.872586,4.2927237,0.0,0.0,0.0
19429640132611,-0.5982057,8.85823,4.302295,0.0,0.0,0.0
19429642511830,-0.5982057,8.843872,4.3357944,0.0,0.0,0.0
19429644891049,-0.5694918,8.82473,4.3501515,0.0,0.0,0.0
19429647270268,-0.5982057,8.839087,4.354937,0.0,0.0,0.0
19429649649486,-0.6029913,8.829515,4.3645086,0.0,0.0,0.0
19429652028757,-0.6221339,8.810373,4.3645086,0.0,0.0,0.0
19429654407976,-0.6269195,8.772088,4.3836513,0.0,0.0,0.0
19429656787195,-0.63170516,8.762517,4.421936,0.0,0.0,0.0
19429659166414,-0.6652047,8.752945,4.436293,0.0,0.0,0.0
19429661545684,-0.66999036,8.762517,4.4745784,0.0,0.0,0.0
19429663924903,-0.6795616,8.729017,4.4554358,0.0,0.0,0.0
19429666304122,-0.6891329,8.729017,4.4745784,0.0,0.0,0.0
19429668683341,-0.6843473,8.752945,4.493721,0.0,0.0,0.0
19429671062559,-0.6939186,8.748159,4.4985065,0.0,0.0,0.0
19429673441830,-0.6939186,8.733803,4.5224347,0.0,0.0,0.0
19429675821049,-0.66999036,8.738588,4.5272202,0.0,0.0,0.0
19429678200268,-0.6652047,8.738588,4.546363,0.0,0.0,0.0
19429680579486,-0.63170516,8.743374,4.536792,0.0,0.0,0.0
19429682958757,-0.6125626,8.729017,4.546363,0.0,0.0,0.0
19429685337976,-0.60777694,8.729017,4.551149,0.0,0.0,0.0
19429687717195,-0.57906306,8.752945,4.5798626,0.0,0.0,0.0
19429690096414,-0.52163535,8.748159,4.570291,0.0,0.0,0.0
19429692475684,-0.5072784,8.733803,4.56072,0.0,0.0,0.0
19429694854903,-0.4881358,8.724232,4.56072,0.0,0.0,0.0
19429697234122,-0.45942193,8.719446,4.5272202,0.0,0.0,0.0
19429699613341,-0.44506502,8.738588,4.493721,0.0,0.0,0.0
19429701992559,-0.41156548,8.700303,4.465007,0.0,0.0,0.0
19429704371830,-0.41156548,8.695518,4.4458647,0.0,0.0,0.0
19429706751049,-0.41156548,8.709874,4.426722,0.0,0.0,0.0
19429709130268,-0.4354937,8.729017,4.412365,0.0,0.0,0.0
19429711509486,-0.44506502,8.729017,4.436293,0.0,0.0,0.0
19429713888705,-0.4833502,8.733803,4.421936,0.0,0.0,0.0
19429716267976,-0.47377887,8.7577305,4.412365,0.0,0.0,0.0
19429718647195,-0.4833502,8.772088,4.3788652,0.0,0.0,0.0
19429721026414,-0.5072784,8.786445,4.3788652,0.0,0.0,0.0
19429723405632,-0.4881358,8.819944,4.3788652,0.0,0.0,0.0
19429725784903,-0.4881358,8.805588,4.3501515,0.0,0.0,0.0
19429728164122,-0.4881358,8.834301,4.3501515,0.0,0.0,0.0
19429730543341,-0.46899325,8.843872,4.354937,0.0,0.0,0.0
19429732922559,-0.45942193,8.853444,4.3501515,0.0,0.0,0.0
19429735301778,-0.4546363,8.867801,4.354937,0.0,0.0,0.0
19429737681049,-0.4354937,8.891729,4.345366,0.0,0.0,0.0
19429740060268,-0.41156548,8.891729,4.3357944,0.0,0.0,0.0
19429742439486,-0.37328035,8.896515,4.3262234,0.0,0.0,0.0
19429744818705,-0.3589234,8.9013,4.302295,0.0,0.0,0.0
19429747197924,-0.38285163,8.906086,4.287938,0.0,0.0,0.0
19429749577195,-0.3684947,8.886943,4.287938,0.0,0.0,0.0
19429751956414,-0.38763726,8.886943,4.287938,0.0,0.0,0.0
19429754335632,-0.39720857,8.877372,4.2975097,0.0,0.0,0.0
19429756714903,-0.41635114,8.867801,4.302295,0.0,0.0,0.0
19429759094122,-0.44027936,8.891729,4.3070807,0.0,0.0,0.0
19429761473341,-0.4881358,8.896515,4.287938,0.0,0.0,0.0
19429763852559,-0.5312066,8.867801,4.26401,0.0,0.0,0.0
19429766231778,-0.5838487,8.872586,4.302295,0.0,0.0,0.0
19429768611049,-0.6221339,8.882157,4.3070807,0.0,0.0,0.0
19429770990268,-0.66999036,8.896515,4.3070807,0.0,0.0,0.0
19429773369486,-0.70348984,8.877372,4.345366,0.0,0.0,0.0
19429775748705,-0.7178468,8.867801,4.354937,0.0,0.0,0.0
19429778127976,-0.7369894,8.839087,4.369294,0.0,0.0,0.0
19429780507195,-0.7704889,8.82473,4.359723,0.0,0.0,0.0
19429782886414,-0.7848458,8.805588,4.3740797,0.0,0.0,0.0
19429785265632,-0.8135597,8.819944,4.388437,0.0,0.0,0.0
19429787644851,-0.80877405,8.853444,4.398008,0.0,0.0,0.0
19429790024122,-0.79920274,8.853444,4.4075794,0.0,0.0,0.0
19429792403341,-0.7800602,8.839087,4.436293,0.0,0.0,0.0
19429794782559,-0.7369894,8.829515,4.45065,0.0,0.0,0.0
19429797161778,-0.7178468,8.819944,4.465007,0.0,0.0,0.0
19429799541049,-0.66041905,8.805588,4.4841495,0.0,0.0,0.0
19429801920268,-0.60777694,8.805588,4.4889355,0.0,0.0,0.0
19429804299486,-0.55513483,8.786445,4.493721,0.0,0.0,0.0
19429806678705,-0.526421,8.7673025,4.508078,0.0,0.0,0.0
19429809057924,-0.4833502,8.752945,4.5272202,0.0,0.0,0.0
19429811437195,-0.42592242,8.748159,4.536792,0.0,0.0,0.0
19429813816414,-0.4019942,8.748159,4.517649,0.0,0.0,0.0
19429816195632,-0.3589234,8.733803,4.508078,0.0,0.0,0.0
19429818574851,-0.34456646,8.724232,4.493721,0.0,0.0,0.0
19429820954122,-0.3397808,8.681161,4.503292,0.0,0.0,0.0
19429823333341,-0.31106696,8.700303,4.5128636,0.0,0.0,0.0
19429825712559,-0.31106696,8.709874,4.4985065,0.0,0.0,0.0
19429828091778,-0.3062813,8.71466,4.479364,0.0,0.0,0.0
19429830470997,-0.31585258,8.733803,4.469793,0.0,0.0,0.0
19429832850268,-0.3493521,8.748159,4.4602213,0.0,0.0,0.0
19429835229486,-0.34456646,8.7577305,4.4554358,0.0,0.0,0.0
19429837608705,-0.35413775,8.776874,4.4554358,0.0,0.0,0.0
19429839987924,-0.34456646,8.805588,4.4602213,0.0,0.0,0.0
19429842367195,-0.3397808,8.834301,4.469793,0.0,0.0,0.0
19429844746414,-0.36370903,8.843872,4.4602213,0.0,0.0,0.0
19429847125632,-0.33499518,8.877372,4.45065,0.0,0.0,0.0
19429849504851,-0.30149564,8.891729,4.4315076,0.0,0.0,0.0
19429851884070,-0.31585258,8.906086,4.4554358,0.0,0.0,0.0
19429854263341,-0.33020952,8.944371,4.4458647,0.0,0.0,0.0
19429856642559,-0.31585258,8.953942,4.436293,0.0,0.0,0.0
19429859021778,-0.30149564,8.958728,4.426722,0.0,0.0,0.0
19429861400997,-0.28713873,8.949157,4.436293,0.0,0.0,0.0
19429863780216,-0.29671,8.944371,4.388437,0.0,0.0,0.0
19429866159486,-0.28713873,8.953942,4.354937,0.0,0.0,0.0
19429868538705,-0.29671,8.939586,4.331009,0.0,0.0,0.0
19429870917924,-0.28235307,8.925228,4.316652,0.0,0.0,0.0
19429873297143,-0.32063824,8.9108715,4.302295,0.0,0.0,0.0
19429875676414,-0.34456646,8.882157,4.287938,0.0,0.0,0.0
19429878055632,-0.3684947,8.882157,4.2687955,0.0,0.0,0.0
19429880434851,-0.40677986,8.896515,4.23051,0.0,0.0,0.0
19429882814070,-0.4546363,8.906086,4.2257247,0.0,0.0,0.0
19429885193341,-0.5072784,8.9108715,4.2352962,0.0,0.0,0.0
19429887572559,-0.55513483,8.930014,4.2257247,0.0,0.0,0.0
19429889951778,-0.5982057,8.9013,4.2448673,0.0,0.0,0.0
19429892330997,-0.67477596,8.9108715,4.254439,0.0,0.0,0.0
19429894710216,-0.7369894,8.896515,4.2592244,0.0,0.0,0.0
19429897089486,-0.79441714,8.9013,4.254439,0.0,0.0,0.0
19429899468705,-0.86141616,8.891729,4.273581,0.0,0.0,0.0
19429901847924,-0.9284152,8.906086,4.278367,0.0,0.0,0.0
19429904227143,-0.93320084,8.9108715,4.273581,0.0,0.0,0.0
19429906606361,-0.94755775,8.9108715,4.273581,0.0,0.0,0.0
19429908985632,-0.94755775,8.891729,4.2687955,0.0,0.0,0.0
19429911364851,-0.8997013,8.867801,4.26401,0.0,0.0,0.0
19429913744070,-0.85184485,8.815159,4.2592244,0.0,0.0,0.0
19429916123289,-0.7896315,8.772088,4.2352962,0.0,0.0,0.0
19429918502559,-0.7082755,8.748159,4.23051,0.0,0.0,0.0
19429920881778,-0.60777694,8.743374,4.220939,0.0,0.0,0.0
19429923260997,-0.5072784,8.738588,4.211368,0.0,0.0,0.0
19429925640216,-0.41156548,8.733803,4.206582,0.0,0.0,0.0
19429928019434,-0.32542387,8.748159,4.211368,0.0,0.0,0.0
19429930398705,-0.23449662,8.748159,4.220939,0.0,0.0,0.0
19429932777924,-0.15792629,8.79123,4.2448673,0.0,0.0,0.0
19429935157143,-0.09092726,8.805588,4.254439,0.0,0.0,0.0
19429937536361,-0.033499517,8.843872,4.302295,0.0,0.0,0.0
19429939915632,-0.009571291,8.843872,4.302295,0.0,0.0,0.0
19429942294851,0.033499517,8.863015,4.278367,0.0,0.0,0.0
19429944674070,0.038285162,8.930014,4.273581,0.0,0.0,0.0
19429947053289,0.023928227,8.930014,4.2975097,0.0,0.0,0.0
19429949432507,0.014356935,8.944371,4.321438,0.0,0.0,0.0
19429951811778,-0.019142581,8.963513,4.3405805,0.0,0.0,0.0
19429954190997,-0.09092726,8.968299,4.321438,0.0,0.0,0.0
19429956570216,-0.16749759,8.953942,4.3262234,0.0,0.0,0.0
19429958949434,-0.2536392,8.968299,4.3262234,0.0,0.0,0.0
19429961328653,-0.3589234,8.968299,4.331009,0.0,0.0,0.0
19429963707924,-0.44985065,8.944371,4.3070807,0.0,0.0,0.0
19429966087143,-0.5407779,8.925228,4.316652,0.0,0.0,0.0
19429968466361,-0.6269195,8.930014,4.3262234,0.0,0.0,0.0
19429970845580,-0.6939186,8.915657,4.3118663,0.0,0.0,0.0
19429973224851,-0.7513463,8.906086,4.3118663,0.0,0.0,0.0
19429975604070,-0.7704889,8.882157,4.316652,0.0,0.0,0.0
19429977983289,-0.80877405,8.882157,4.321438,0.0,0.0,0.0
19429980362507,-0.83748794,8.886943,4.3357944,0.0,0.0,0.0
19429982741726,-0.8709874,8.886943,4.369294,0.0,0.0,0.0
19429985120997,-0.8279166,8.85823,4.398008,0.0,0.0,0.0
19429987500216,-0.8279166,8.834301,4.402794,0.0,0.0,0.0
19429989879434,-0.79441714,8.829515,4.398008,0.0,0.0,0.0
19429992258653,-0.7704889,8.810373,4.3836513,0.0,0.0,0.0
19429994637924,-0.70348984,8.79123,4.3788652,0.0,0.0,0.0
19429997017143,-0.6556334,8.752945,4.402794,0.0,0.0,0.0
19429999396361,-0.5838487,8.743374,4.4075794,0.0,0.0,0.0
19430001775580,-0.52163535,8.724232,4.4171505,0.0,0.0,0.0
19430004154799,-0.44506502,8.743374,4.4075794,0.0,0.0,0.0
19430006534070,-0.3924229,8.7673025,4.398008,0.0,0.0,0.0
19430008913289,-0.33020952,8.762517,4.3932223,0.0,0.0,0.0
19430011292507,-0.2632105,8.781659,4.402794,0.0,0.0,0.0
19430013671726,-0.22492532,8.810373,4.4171505,0.0,0.0,0.0
19430016050997,-0.19142582,8.82473,4.4410787,0.0,0.0,0.0
19430018430216,-0.14356937,8.834301,4.479364,0.0,0.0,0.0
19430020809434,-0.12921242,8.872586,4.479364,0.0,0.0,0.0
19430023188653,-0.11964113,8.877372,4.479364,0.0,0.0,0.0
19430025567872,-0.11485548,8.872586,4.4889355,0.0,0.0,0.0
19430027947143,-0.13399807,8.877372,4.465007,0.0,0.0,0.0
19430030326361,-0.15792629,8.877372,4.436293,0.0,0.0,0.0
19430032705580,-0.2009971,8.886943,4.436293,0.0,0.0,0.0
19430035084747,-0.24885355,8.9013,4.4458647,0.0,0.0,0.0
19430037464018,-0.32542387,8.896515,4.436293,0.0,0.0,0.0
19430039843289,-0.3924229,8.891729,4.412365,0.0,0.0,0.0
19430042222507,-0.46899325,8.877372,4.388437,0.0,0.0,0.0
19430044601726,-0.51206404,8.882157,4.3645086,0.0,0.0,0.0
19430046980945,-0.5838487,8.896515,4.3645086,0.0,0.0,0.0
19430049360216,-0.61734825,8.915657,4.354937,0.0,0.0,0.0
19430051739434,-0.63170516,8.891729,4.3405805,0.0,0.0,0.0
19430054118653,-0.66041905,8.906086,4.3405805,0.0,0.0,0.0
19430056497872,-0.6652047,8.915657,4.316652,0.0,0.0,0.0
19430058877091,-0.66999036,8.896515,4.2927237,0.0,0.0,0.0
19430061256361,-0.66041905,8.930014,4.2448673,0.0,0.0,0.0
19430063635580,-0.6269195,8.915657,4.2161536,0.0,0.0,0.0
19430066014799,-0.6221339,8.925228,4.240082,0.0,0.0,0.0
19430068394018,-0.59342,8.930014,4.2161536,0.0,0.0,0.0
19430070773184,-0.57906306,8.9108715,4.2257247,0.0,0.0,0.0
19430073152507,-0.53599226,8.896515,4.1922255,0.0,0.0,0.0
19430075531726,-0.47856453,8.906086,4.1778684,0.0,0.0,0.0
19430077910945,-0.44506502,8.9108715,4.15394,0.0,0.0,0.0
19430080290164,-0.42592242,8.920443,4.168297,0.0,0.0,0.0
19430082669434,-0.40677986,8.944371,4.1635113,0.0,0.0,0.0
19430085048653,-0.3589234,8.939586,4.1778684,0.0,0.0,0.0
19430087427872,-0.29192436,8.9826565,4.1922255,0.0,0.0,0.0
19430089807091,-0.2727818,8.977871,4.1874394,0.0,0.0,0.0
19430092186309,-0.2632105,8.987442,4.1874394,0.0,0.0,0.0
19430094565580,-0.26799613,9.01137,4.1874394,0.0,0.0,0.0
19430096944747,-0.26799613,9.006584,4.1922255,0.0,0.0,0.0
19430099324018,-0.26799613,9.016156,4.23051,0.0,0.0,0.0
19430101703236,-0.30149564,8.987442,4.249653,0.0,0.0,0.0
19430104082455,-0.31585258,8.968299,4.2448673,0.0,0.0,0.0
19430106461726,-0.3493521,8.949157,4.240082,0.0,0.0,0.0
19430108840945,-0.4019942,8.949157,4.23051,0.0,0.0,0.0
19430111220164,-0.44506502,8.944371,4.211368,0.0,0.0,0.0
19430113599382,-0.47377887,8.925228,4.211368,0.0,0.0,0.0
19430115978653,-0.526421,8.877372,4.206582,0.0,0.0,0.0
19430118357872,-0.5455636,8.848659,4.2257247,0.0,0.0,0.0
19430120737091,-0.5886344,8.848659,4.240082,0.0,0.0,0.0
19430123116309,-0.6364908,8.968299,4.249653,0.0,0.0,0.0
19430125495580,-0.6556334,8.843872,4.0390844,0.0,0.0,0.0
19430127874799,-0.5599205,8.676374,3.546163,0.0,0.0,0.0
19430130254018,-0.5982057,8.896515,3.4743786,0.0,0.0,0.0
19430132633236,-0.6556334,8.973084,3.9050865,0.0,0.0,0.0
19430135012455,-0.61734825,8.805588,4.599005,0.0,0.0,0.0
19430137391674,-0.57906306,8.662018,4.9674997,0.0,0.0,0.0
19430139770945,-0.51206404,8.815159,4.7042894,0.0,0.0,0.0
19430142150164,-0.44506502,8.9826565,4.0007997,0.0,0.0,0.0
19430144529382,-0.32542387,9.025727,3.3786657,0.0,0.0,0.0
19430146908601,-0.32063824,9.078369,3.4408789,0.0,0.0,0.0
19430149287872,-0.23928227,9.001799,4.125226,0.0,0.0,0.0
19430151667091,-0.10049855,8.85823,4.9292145,0.0,0.0,0.0
19430154046309,-0.0526421,8.834301,5.288138,0.0,0.0,0.0
19430156425528,-0.0047856453,8.930014,4.9866424,0.0,0.0,0.0
19430158804747,0.0526421,9.025727,4.331009,0.0,0.0,0.0
19430161184018,0.11006984,8.9826565,3.790231,0.0,0.0,0.0
19430163563236,0.086141616,8.944371,3.7663028,0.0,0.0,0.0
19430165942455,0.11006984,8.906086,4.249653,0.0,0.0,0.0
19430168321674,0.13878371,8.82473,4.900501,0.0,0.0,0.0
19430170700945,0.07178468,8.719446,5.221139,0.0,0.0,0.0
19430173080164,0.0,8.705089,5.0775695,0.0,0.0,0.0
19430175459382,-0.07178468,8.724232,4.5798626,0.0,0.0,0.0
19430177838601,-0.09571291,8.748159,4.101298,0.0,0.0,0.0
19430180217820,-0.19621146,8.743374,3.9481573,0.0,0.0,0.0
19430182597091,-0.2632105,8.705089,4.1922255,0.0,0.0,0.0
19430184976309,-0.34456646,8.63809,4.6755753,0.0,0.0,0.0
19430187355528,-0.41156548,8.56152,5.0344987,0.0,0.0,0.0
19430189734747,-0.47856453,8.551949,5.0440702,0.0,0.0,0.0
19430192113966,-0.53599226,8.595019,4.7282176,0.0,0.0,0.0
19430194493236,-0.59342,8.623733,4.2927237,0.0,0.0,0.0
19430196872455,-0.6269195,8.662018,4.0534415,0.0,0.0,0.0
19430199251674,-0.6891329,8.685946,4.1347976,0.0,0.0,0.0
19430201630893,-0.6987042,8.647661,4.4410787,0.0,0.0,0.0
19430204010111,-0.6939186,8.618947,4.7712884,0.0,0.0,0.0
19430206389382,-0.7082755,8.623733,4.900501,0.0,0.0,0.0
19430208768601,-0.6364908,8.657232,4.718646,0.0,0.0,0.0
19430211147820,-0.57427746,8.705089,4.398008,0.0,0.0,0.0
19430213527039,-0.4977071,8.772088,4.1204405,0.0,0.0,0.0
19430215906257,-0.42592242,8.786445,4.0773697,0.0,0.0,0.0
19430218285528,-0.3589234,8.762517,4.2592244,0.0,0.0,0.0
19430220664747,-0.2727818,8.729017,4.508078,0.0,0.0,0.0
19430223043966,-0.18664017,8.7577305,4.6468616,0.0,0.0,0.0
19430225423184,-0.086141616,8.776874,4.5655055,0.0,0.0,0.0
19430227802455,-0.02871387,8.815159,4.3357944,0.0,0.0,0.0
19430230181674,0.023928227,8.872586,4.115655,0.0,0.0,0.0
19430232560893,0.07178468,8.9108715,4.0151563,0.0,0.0,0.0
19430234940111,0.09092726,8.867801,4.0965123,0.0,0.0,0.0
19430237319330,0.1052842,8.85823,4.278367,0.0,0.0,0.0
19430239698601,0.09092726,8.886943,4.412365,0.0,0.0,0.0
19430242077820,0.08135597,8.906086,4.402794,0.0,0.0,0.0
19430244457039,0.0526421,8.930014,4.278367,0.0,0.0,0.0
19430246836257,0.0047856453,8.992228,4.1108694,0.0,0.0,0.0
19430249215528,-0.033499517,8.992228,4.058227,0.0,0.0,0.0
19430251594747,-0.09571291,8.9826565,4.1347976,0.0,0.0,0.0
19430253973966,-0.17228323,8.992228,4.249653,0.0,0.0,0.0
19430256353184,-0.2440679,9.016156,4.3357944,0.0,0.0,0.0
19430258732403,-0.2727818,8.968299,4.254439,0.0,0.0,0.0
19430261111622,-0.33499518,8.977871,4.101298,0.0,0.0,0.0
19430263490893,-0.3684947,9.035298,4.005585,0.0,0.0,0.0
19430265870111,-0.37328035,9.020942,4.072584,0.0,0.0,0.0
19430268249330,-0.4211368,8.953942,4.254439,0.0,0.0,0.0
19430270628549,-0.4546363,8.987442,4.354937,0.0,0.0,0.0
19430273007820,-0.42592242,9.001799,4.2687955,0.0,0.0,0.0
19430275387039,-0.3924229,8.958728,4.063013,0.0,0.0,0.0
19430277766257,-0.38763726,9.006584,3.885944,0.0,0.0,0.0
19430280145476,-0.35413775,9.0544405,3.9481573,0.0,0.0,0.0
19430282524695,-0.27756742,8.9826565,4.1778684,0.0,0.0,0.0
19430284903966,-0.24885355,8.944371,4.4985065,0.0,0.0,0.0
19430287283184,-0.20578274,8.968299,4.666004,0.0,0.0,0.0
19430289662403,-0.12921242,8.987442,4.6085763,0.0,0.0,0.0
19430292041622,-0.076570325,8.997013,4.3932223,0.0,0.0,0.0
19430294420841,-0.019142581,9.016156,4.1874394,0.0,0.0,0.0
19430296800111,0.019142581,9.040084,4.168297,0.0,0.0,0.0
19430299179330,0.062213387,8.963513,4.3501515,0.0,0.0,0.0
19430301558549,0.033499517,8.925228,4.6085763,0.0,0.0,0.0
19430303937768,0.02871387,8.9348,4.7952166,0.0,0.0,0.0
19430306317039,0.009571291,8.930014,4.7856455,0.0,0.0,0.0
19430308696257,-0.043070808,8.930014,4.575077,0.0,0.0,0.0
19430311075424,-0.076570325,8.977871,4.3118663,0.0,0.0,0.0
19430313454695,-0.11964113,8.968299,4.15394,0.0,0.0,0.0
19430315833914,-0.13399807,8.9013,4.130012,0.0,0.0,0.0
19430318213184,-0.18664017,8.815159,4.2592244,0.0,0.0,0.0
19430320592403,-0.22971097,8.786445,4.45065,0.0,0.0,0.0
19430322971622,-0.29671,8.71466,4.575077,0.0,0.0,0.0
19430325350841,-0.38285163,8.633304,4.6037908,0.0,0.0,0.0
19430327730059,-0.39720857,8.652447,4.5320063,0.0,0.0,0.0
19430330109330,-0.4019942,8.681161,4.426722,0.0,0.0,0.0
19430332488549,-0.38285163,8.681161,4.3788652,0.0,0.0,0.0
19430334867768,-0.34456646,8.647661,4.4602213,0.0,0.0,0.0
19430337246986,-0.32063824,8.623733,4.6468616,0.0,0.0,0.0
19430339626205,-0.2632105,8.609376,4.8287163,0.0,0.0,0.0
19430342005476,-0.18664017,8.571091,4.9340005,0.0,0.0,0.0
19430344384695,-0.14356937,8.566305,4.8861437,0.0,0.0,0.0
19430346763914,-0.086141616,8.590233,4.761717,0.0,0.0,0.0
19430349143132,-0.02871387,8.575876,4.627719,0.0,0.0,0.0
19430351522351,-0.047856454,8.556734,4.6037908,0.0,0.0,0.0
19430353901622,-0.047856454,8.52802,4.694718,0.0,0.0,0.0
19430356280841,-0.09092726,8.465807,4.8382874,0.0,0.0,0.0
19430358660059,-0.11485548,8.379665,4.962714,0.0,0.0,0.0
19430361039278,-0.14356937,8.374879,4.962714,0.0,0.0,0.0
19430363418549,-0.22492532,8.384451,4.843073,0.0,0.0,0.0
19430365797768,-0.28713873,8.4705925,4.800002,0.0,0.0,0.0
19430368176986,-0.3684947,8.5423765,4.8622155,0.0,0.0,0.0
19430370556205,-0.44985065,8.480164,4.910072,0.0,0.0,0.0
19430372935424,-0.47856453,8.504091,4.9531426,0.0,0.0,0.0
19430375314695,-0.5072784,8.60459,4.8765726,0.0,0.0,0.0
19430377693914,-0.5024927,8.628518,4.7425747,0.0,0.0,0.0
19430380073132,-0.49292147,8.618947,4.5942197,0.0,0.0,0.0
19430382452351,-0.47856453,8.609376,4.4985065,0.0,0.0,0.0
19430384831570,-0.4546363,8.595019,4.45065,0.0,0.0,0.0
19430387210841,-0.44506502,8.595019,4.4075794,0.0,0.0,0.0
19430389590059,-0.39720857,8.628518,4.3405805,0.0,0.0,0.0
19430391969278,-0.37806597,8.705089,4.2687955,0.0,0.0,0.0
19430394348497,-0.31585258,8.7673025,4.182654,0.0,0.0,0.0
19430396727716,-0.25842485,8.796016,4.0869412,0.0,0.0,0.0
19430399106986,-0.17228323,8.9013,4.0007997,0.0,0.0,0.0
19430401486205,-0.07178468,8.987442,3.9433718,0.0,0.0,0.0
19430403865424,0.05742774,9.035298,3.9338005,0.0,0.0,0.0
19430406244643,0.16271193,9.068798,3.9338005,0.0,0.0,0.0
19430408623861,0.23928227,9.164511,3.9050865,0.0,0.0,0.0
19430411003132,0.32063824,9.178867,3.871587,0.0,0.0,0.0
19430413382351,0.3684947,9.212367,3.804588,0.0,0.0,0.0
19430415761570,0.39720857,9.250652,3.737589,0.0,0.0,0.0
19430418140789,0.41156548,9.265009,3.7280176,0.0,0.0,0.0
19430420520007,0.38763726,9.265009,3.7567315,0.0,0.0,0.0
19430422899278,0.3924229,9.293723,3.7998023,0.0,0.0,0.0
19430425278497,0.3397808,9.317652,3.8141594,0.0,0.0,0.0
19430427657716,0.32063824,9.346365,3.8141594,0.0,0.0,0.0
19430430036934,0.29192436,9.360723,3.818945,0.0,0.0,0.0
19430432416153,0.2440679,9.365508,3.8285162,0.0,0.0,0.0
19430434795424,0.23449662,9.346365,3.871587,0.0,0.0,0.0
19430437174643,0.23449662,9.293723,3.9338005,0.0,0.0,0.0
19430439553861,0.2440679,9.241081,4.0390844,0.0,0.0,0.0
19430441933080,0.26799613,9.202796,4.101298,0.0,0.0,0.0
19430444312299,0.2440679,9.159725,4.197011,0.0,0.0,0.0
19430446691570,0.2727818,9.073584,4.240082,0.0,0.0,0.0
19430449070789,0.30149564,9.025727,4.2352962,0.0,0.0,0.0
19430451450007,0.29192436,8.987442,4.2161536,0.0,0.0,0.0
19430453829226,0.26799613,8.9348,4.206582,0.0,0.0,0.0
19430456208497,0.24885355,8.877372,4.197011,0.0,0.0,0.0
19430458587716,0.18664017,8.891729,4.2592244,0.0,0.0,0.0
19430460966934,0.13878371,8.781659,4.287938,0.0,0.0,0.0
19430463346153,0.09571291,8.709874,4.3788652,0.0,0.0,0.0
19430465725372,0.033499517,8.685946,4.4889355,0.0,0.0,0.0
19430468104591,-0.014356935,8.633304,4.469793,0.0,0.0,0.0
19430470483861,-0.062213387,8.6141615,4.4410787,0.0,0.0,0.0
19430472863080,-0.124426775,8.681161,4.469793,0.0,0.0,0.0
19430475242299,-0.2105684,8.71466,4.570291,0.0,0.0,0.0
19430477621518,-0.2727818,8.71466,4.6707897,0.0,0.0,0.0
19430480000789,-0.32063824,8.71466,4.800002,0.0,0.0,0.0
19430482380007,-0.3684947,8.79123,4.843073,0.0,0.0,0.0
19430484759226,-0.37806597,8.85823,4.8191447,0.0,0.0,0.0
19430487138445,-0.3589234,8.843872,4.7282176,0.0,0.0,0.0
19430489517664,-0.32063824,8.82473,4.627719,0.0,0.0,0.0
19430491896934,-0.27756742,8.82473,4.5798626,0.0,0.0,0.0
19430494276153,-0.22013968,8.800801,4.5798626,0.0,0.0,0.0
19430496655372,-0.16749759,8.772088,4.6755753,0.0,0.0,0.0
19430499034591,-0.11485548,8.7577305,4.7856455,0.0,0.0,0.0
19430501413809,-0.0047856453,8.772088,4.8191447,0.0,0.0,0.0
19430503793080,0.09571291,8.7577305,4.718646,0.0,0.0,0.0
19430506172299,0.17706887,8.839087,4.508078,0.0,0.0,0.0
19430508551518,0.24885355,8.915657,4.2831526,0.0,0.0,0.0
19430510930736,0.33499518,8.872586,4.211368,0.0,0.0,0.0
19430513309955,0.37806597,8.834301,4.354937,0.0,0.0,0.0
19430515689226,0.44027936,8.800801,4.4889355,0.0,0.0,0.0
19430518068393,0.43070808,8.810373,4.551149,0.0,0.0,0.0
19430520447664,0.41635114,8.82473,4.3645086,0.0,0.0,0.0
19430522826882,0.37806597,8.9108715,4.106084,0.0,0.0,0.0
19430525206049,0.3493521,8.930014,3.8763726,0.0,0.0,0.0
19430527585372,0.28235307,8.925228,3.8572302,0.0,0.0,0.0
19430529964591,0.17228323,8.891729,4.0007997,0.0,0.0,0.0
19430532343809,0.11006984,8.85823,4.1922255,0.0,0.0,0.0
19430534723028,0.0047856453,8.662018,4.23051,0.0,0.0,0.0
19430537102247,-0.05742774,8.709874,4.115655,0.0,0.0,0.0
19430539481518,-0.17706887,9.001799,3.9673,0.0,0.0,0.0
19430541860736,-0.11964113,9.049655,3.804588,0.0,0.0,0.0
19430544239955,-0.17228323,9.0544405,3.7663028,0.0,0.0,0.0
19430546619174,-0.28235307,9.169296,3.8237305,0.0,0.0,0.0
19430548998445,-0.21535404,9.30808,3.9864426,0.0,0.0,0.0
19430551377664,-0.19621146,9.19801,4.091727,0.0,0.0,0.0
19430553756882,-0.2009971,9.116654,4.115655,0.0,0.0,0.0
19430556136101,-0.18664017,9.159725,4.063013,0.0,0.0,0.0
19430558515320,-0.10049855,9.064013,3.871587,0.0,0.0,0.0
19430560894591,-0.14356937,8.977871,3.656233,0.0,0.0,0.0
19430563273809,-0.18185452,9.020942,3.5509489,0.0,0.0,0.0
19430565653028,-0.15792629,9.025727,3.6227336,0.0,0.0,0.0
19430568032247,-0.2009971,8.930014,3.7663028,0.0,0.0,0.0
19430570411466,-0.24885355,8.877372,3.9098723,0.0,0.0,0.0
19430572790684,-0.24885355,8.944371,3.9816568,0.0,0.0,0.0
19430575169955,-0.19142582,8.920443,3.9481573,0.0,0.0,0.0
19430577549174,-0.18664017,8.9348,3.8668015,0.0,0.0,0.0
19430579928393,-0.16271193,8.973084,3.8572302,0.0,0.0,0.0
19430582307611,-0.076570325,9.020942,3.9290147,0.0,0.0,0.0
19430584686830,-0.0047856453,8.963513,4.048656,0.0,0.0,0.0
19430587066101,-0.0047856453,8.953942,4.1874394,0.0,0.0,0.0
19430589445320,0.023928227,8.958728,4.302295,0.0,0.0,0.0
19430591824539,0.038285162,8.953942,4.3501515,0.0,0.0,0.0
19430594203757,0.043070808,8.891729,4.3357944,0.0,0.0,0.0
19430596582976,0.02871387,8.877372,4.2927237,0.0,0.0,0.0
19430598962247,0.014356935,8.891729,4.2927237,0.0,0.0,0.0
19430601341466,0.019142581,8.85823,4.3501515,0.0,0.0,0.0
19430603720684,0.014356935,8.79123,4.4315076,0.0,0.0,0.0
19430606099903,0.009571291,8.776874,4.5655055,0.0,0.0,0.0
19430608479122,0.033499517,8.743374,4.618148,0.0,0.0,0.0
19430610858914,0.0526421,8.71466,4.613362,0.0,0.0,0.0
19430613237611,0.02871387,8.729017,4.5128636,0.0,0.0,0.0
19430615616830,0.038285162,8.748159,4.402794,0.0,0.0,0.0
19430617996049,0.0526421,8.738588,4.369294,0.0,0.0,0.0
19430620375320,0.06699903,8.690732,4.4602213,0.0,0.0,0.0
19430622754539,0.062213387,8.676374,4.584648,0.0,0.0,0.0
19430625133757,0.086141616,8.633304,4.7042894,0.0,0.0,0.0
19430627512976,0.08135597,8.599805,4.733003,0.0,0.0,0.0
19430629892195,0.0526421,8.623733,4.723432,0.0,0.0,0.0
19430632271466,0.033499517,8.690732,4.709075,0.0,0.0,0.0
19430634650684,0.009571291,8.700303,4.723432,0.0,0.0,0.0
19430637029903,-0.05742774,8.647661,4.699504,0.0,0.0,0.0
19430639409122,-0.09571291,8.623733,4.666004,0.0,0.0,0.0
19430641788341,-0.148355,8.652447,4.666004,0.0,0.0,0.0
19430644167611,-0.18664017,8.647661,4.666004,0.0,0.0,0.0
19430646546830,-0.26799613,8.628518,4.723432,0.0,0.0,0.0
19430648926049,-0.33499518,8.595019,4.766503,0.0,0.0,0.0
19430651305268,-0.38763726,8.580662,4.733003,0.0,0.0,0.0
19430653684486,-0.4019942,8.618947,4.651647,0.0,0.0,0.0
19430656063705,-0.4354937,8.642876,4.5655055,0.0,0.0,0.0
19430658442976,-0.44506502,8.652447,4.5559344,0.0,0.0,0.0
19430660822195,-0.4354937,8.681161,4.642076,0.0,0.0,0.0
19430663201414,-0.4354937,8.719446,4.6899323,0.0,0.0,0.0
19430665580632,-0.44506502,8.743374,4.685147,0.0,0.0,0.0
19430667959851,-0.38285163,8.843872,4.6372905,0.0,0.0,0.0
19430670339122,-0.3062813,8.891729,4.536792,0.0,0.0,0.0
19430672718341,-0.21535404,8.920443,4.479364,0.0,0.0,0.0
19430675097559,-0.124426775,8.977871,4.479364,0.0,0.0,0.0
19430677476778,-0.038285162,8.997013,4.5415773,0.0,0.0,0.0
19430679855997,0.043070808,8.973084,4.56072,0.0,0.0,0.0
19430682235268,0.148355,8.9826565,4.551149,0.0,0.0,0.0
19430684614486,0.22492532,9.01137,4.493721,0.0,0.0,0.0
19430686993705,0.3062813,9.016156,4.426722,0.0,0.0,0.0
19430689372924,0.37806597,9.035298,4.3405805,0.0,0.0,0.0
19430691752143,0.42592242,9.01137,4.2831526,0.0,0.0,0.0
19430694131414,0.44027936,9.006584,4.2687955,0.0,0.0,0.0
19430696510632,0.4833502,9.035298,4.2831526,0.0,0.0,0.0
19430698889851,0.4977071,9.102298,4.3262234,0.0,0.0,0.0
19430701269070,0.4833502,9.116654,4.3501515,0.0,0.0,0.0
19430703648289,0.47377887,9.116654,4.3357944,0.0,0.0,0.0
19430706027507,0.4354937,9.145369,4.2448673,0.0,0.0,0.0
19430708406778,0.37806597,9.145369,4.1443686,0.0,0.0,0.0
19430710785997,0.35413775,9.135797,4.0438704,0.0,0.0,0.0
19430713165216,0.31106696,9.097511,4.0151563,0.0,0.0,0.0
19430715544434,0.2536392,9.083155,4.063013,0.0,0.0,0.0
19430717923705,0.19621146,9.040084,4.1204405,0.0,0.0,0.0
19430720302924,0.16271193,9.016156,4.182654,0.0,0.0,0.0
19430722682143,0.15792629,8.992228,4.173083,0.0,0.0,0.0
19430725061361,0.14356937,9.001799,4.072584,0.0,0.0,0.0
19430727440580,0.14356937,8.997013,3.9960139,0.0,0.0,0.0
19430729819851,0.16749759,8.992228,3.9577286,0.0,0.0,0.0
19430732199070,0.14356937,8.987442,3.9481573,0.0,0.0,0.0
19430734578289,0.18185452,8.997013,3.9768713,0.0,0.0,0.0
19430736957507,0.21535404,8.992228,4.0103707,0.0,0.0,0.0
19430739336778,0.22971097,8.977871,3.9673,0.0,0.0,0.0
19430741715997,0.22971097,8.963513,3.8620157,0.0,0.0,0.0
19430744095216,0.23449662,8.973084,3.7950168,0.0,0.0,0.0
19430746474434,0.22013968,8.944371,3.7758741,0.0,0.0,0.0
19430748853653,0.19142582,8.939586,3.8524444,0.0,0.0,0.0
19430751232924,0.1052842,8.925228,4.0151563,0.0,0.0,0.0
19430753612143,0.023928227,8.9348,4.1635113,0.0,0.0,0.0
19430755991361,-0.07178468,8.906086,4.273581,0.0,0.0,0.0
19430758370580,-0.17706887,8.920443,4.2975097,0.0,0.0,0.0
19430760749799,-0.28713873,8.9348,4.2927237,0.0,0.0,0.0
19430763129018,-0.37328035,8.925228,4.3118663,0.0,0.0,0.0
19430765508289,-0.47377887,8.906086,4.3740797,0.0,0.0,0.0
19430767887507,-0.6269195,8.9013,4.508078,0.0,0.0,0.0
19430770266726,-0.71306115,8.872586,4.6229334,0.0,0.0,0.0
19430772645945,-0.8135597,8.863015,4.733003,0.0,0.0,0.0
19430775025164,-0.8709874,8.867801,4.7712884,0.0,0.0,0.0
19430777404434,-0.90448695,8.877372,4.766503,0.0,0.0,0.0
19430779783653,-0.9092726,8.891729,4.766503,0.0,0.0,0.0
19430782162872,-0.9379865,8.877372,4.766503,0.0,0.0,0.0
19430784542091,-0.9379865,8.877372,4.800002,0.0,0.0,0.0
19430786921309,-0.94755775,8.853444,4.8622155,0.0,0.0,0.0
19430789300580,-0.91884387,8.819944,4.8861437,0.0,0.0,0.0
19430791679799,-0.8805587,8.800801,4.8909297,0.0,0.0,0.0
19430794059018,-0.81834537,8.772088,4.833502,0.0,0.0,0.0
19430796438236,-0.72741807,8.752945,4.766503,0.0,0.0,0.0
19430798817455,-0.6939186,8.772088,4.694718,0.0,0.0,0.0
19430801196726,-0.6221339,8.776874,4.6325045,0.0,0.0,0.0
19430803575945,-0.5455636,8.772088,4.6325045,0.0,0.0,0.0
19430805955164,-0.45942193,8.772088,4.6325045,0.0,0.0,0.0
19430808334382,-0.35413775,8.796016,4.5942197,0.0,0.0,0.0
19430810713601,-0.29671,8.834301,4.546363,0.0,0.0,0.0
19430813092872,-0.22492532,8.82473,4.5224347,0.0,0.0,0.0
19430815472091,-0.16749759,8.810373,4.4841495,0.0,0.0,0.0
19430817851309,-0.11006984,8.786445,4.469793,0.0,0.0,0.0
19430820230528,-0.033499517,8.800801,4.45065,0.0,0.0,0.0
19430822609747,0.009571291,8.772088,4.426722,0.0,0.0,0.0
19430824988966,0.038285162,8.776874,4.4602213,0.0,0.0,0.0
19430827368236,0.019142581,8.815159,4.465007,0.0,0.0,0.0
19430829747455,-0.023928227,8.776874,4.45065,0.0,0.0,0.0
19430832126674,-0.043070808,8.805588,4.3932223,0.0,0.0,0.0
19430834505893,-0.1052842,8.829515,4.354937,0.0,0.0,0.0
19430836885164,-0.18664017,8.85823,4.316652,0.0,0.0,0.0
19430839264382,-0.30149564,8.829515,4.331009,0.0,0.0,0.0
19430841643601,-0.4019942,8.786445,4.3740797,0.0,0.0,0.0
19430844022820,-0.49292147,8.7673025,4.398008,0.0,0.0,0.0
19430846402039,-0.55513483,8.7673025,4.4171505,0.0,0.0,0.0
19430848781257,-0.59342,8.781659,4.354937,0.0,0.0,0.0
19430851160528,-0.65084773,8.752945,4.2448673,0.0,0.0,0.0
19430853539747,-0.6987042,8.79123,4.211368,0.0,0.0,0.0
19430855918966,-0.74177504,8.776874,4.206582,0.0,0.0,0.0
19430858298184,-0.76570326,8.752945,4.2448673,0.0,0.0,0.0
19430860677403,-0.76570326,8.690732,4.354937,0.0,0.0,0.0
19430863056674,-0.6891329,8.642876,4.412365,0.0,0.0,0.0
19430865435893,-0.60777694,8.590233,4.388437,0.0,0.0,0.0
19430867815111,-0.5168497,8.595019,4.2831526,0.0,0.0,0.0
19430870194330,-0.4354937,8.590233,4.1443686,0.0,0.0,0.0
19430872573549,-0.3684947,8.547162,4.091727,0.0,0.0,0.0
19430874952820,-0.27756742,8.556734,4.115655,0.0,0.0,0.0
19430877332039,-0.17706887,8.580662,4.254439,0.0,0.0,0.0
19430879711257,-0.12921242,8.595019,4.3788652,0.0,0.0,0.0
19430882090476,-0.043070808,8.6141615,4.4554358,0.0,0.0,0.0
19430884469695,0.009571291,8.6141615,4.402794,0.0,0.0,0.0
19430886848914,0.047856454,8.647661,4.2831526,0.0,0.0,0.0
19430889228184,0.062213387,8.676374,4.182654,0.0,0.0,0.0
19430891607403,0.06699903,8.690732,4.1587257,0.0,0.0,0.0
19430893986622,0.07178468,8.724232,4.2257247,0.0,0.0,0.0
19430896365789,0.047856454,8.743374,4.3357944,0.0,0.0,0.0
19430898745111,-0.0047856453,8.7577305,4.369294,0.0,0.0,0.0
19430901124330,-0.086141616,8.815159,4.3645086,0.0,0.0,0.0
19430903503549,-0.17228323,8.872586,4.2927237,0.0,0.0,0.0
19430905882768,-0.27756742,8.877372,4.211368,0.0,0.0,0.0
19430908261986,-0.33499518,8.915657,4.1778684,0.0,0.0,0.0
19430910641257,-0.37806597,8.925228,4.1922255,0.0,0.0,0.0
19430913020476,-0.43070808,8.925228,4.249653,0.0,0.0,0.0
19430915399695,-0.45942193,8.944371,4.316652,0.0,0.0,0.0
19430917778914,-0.45942193,8.930014,4.345366,0.0,0.0,0.0
19430920158132,-0.4354937,8.968299,4.321438,0.0,0.0,0.0
19430922537403,-0.37806597,8.968299,4.2592244,0.0,0.0,0.0
19430924916622,-0.32542387,8.997013,4.197011,0.0,0.0,0.0
19430927295841,-0.24885355,8.9826565,4.168297,0.0,0.0,0.0
19430929675059,-0.19142582,8.958728,4.206582,0.0,0.0,0.0
19430932054278,-0.09571291,8.958728,4.26401,0.0,0.0,0.0
19430934433497,-0.009571291,8.9348,4.287938,0.0,0.0,0.0
19430936812768,0.062213387,8.925228,4.2831526,0.0,0.0,0.0
19430939191986,0.13399807,8.930014,4.240082,0.0,0.0,0.0
19430941571205,0.17706887,8.930014,4.173083,0.0,0.0,0.0
19430943950424,0.20578274,8.949157,4.139583,0.0,0.0,0.0
19430946329643,0.23449662,8.939586,4.1587257,0.0,0.0,0.0
19430948708914,0.22013968,8.973084,4.2017965,0.0,0.0,0.0
19430951088132,0.18185452,8.9826565,4.2448673,0.0,0.0,0.0
19430953467299,0.12921242,8.973084,4.302295,0.0,0.0,0.0
19430955846570,0.0526421,8.968299,4.278367,0.0,0.0,0.0
19430958225789,-0.0526421,8.987442,4.240082,0.0,0.0,0.0
19430960605059,-0.13399807,8.997013,4.211368,0.0,0.0,0.0
19430962984278,-0.21535404,9.025727,4.2017965,0.0,0.0,0.0
19430965363497,-0.32063824,9.035298,4.23051,0.0,0.0,0.0
19430967742716,-0.4019942,9.006584,4.273581,0.0,0.0,0.0
19430970121934,-0.4642076,9.016156,4.321438,0.0,0.0,0.0
19430972501205,-0.5024927,9.030513,4.321438,0.0,0.0,0.0
19430974880424,-0.49292147,9.025727,4.302295,0.0,0.0,0.0
19430977259643,-0.51206404,9.025727,4.302295,0.0,0.0,0.0
19430979638861,-0.45942193,9.030513,4.287938,0.0,0.0,0.0
19430982018080,-0.4019942,9.035298,4.321438,0.0,0.0,0.0
19430984397299,-0.34456646,9.020942,4.3357944,0.0,0.0,0.0
19430986776570,-0.2440679,9.006584,4.3788652,0.0,0.0,0.0
19430989155789,-0.16271193,8.997013,4.3836513,0.0,0.0,0.0
19430991535007,-0.062213387,8.987442,4.3836513,0.0,0.0,0.0
19430993914226,0.047856454,8.949157,4.3788652,0.0,0.0,0.0
19430996293445,0.12921242,8.949157,4.359723,0.0,0.0,0.0
19430998672716,0.2009971,8.9108715,4.345366,0.0,0.0,0.0
19431001051934,0.22971097,8.915657,4.359723,0.0,0.0,0.0
19431003431101,0.31106696,8.886943,4.3932223,0.0,0.0,0.0
19431005810372,0.34456646,8.848659,4.421936,0.0,0.0,0.0
19431008189591,0.38763726,8.843872,4.4315076,0.0,0.0,0.0
19431010568861,0.39720857,8.829515,4.426722,0.0,0.0,0.0
19431012948080,0.39720857,8.829515,4.412365,0.0,0.0,0.0
19431015327299,0.37328035,8.815159,4.4315076,0.0,0.0,0.0
19431017706518,0.31585258,8.796016,4.4602213,0.0,0.0,0.0
19431020085736,0.29671,8.79123,4.479364,0.0,0.0,0.0
19431022464955,0.25842485,8.815159,4.479364,0.0,0.0,0.0
19431024844226,0.20578274,8.82473,4.4745784,0.0,0.0,0.0
19431027223445,0.15792629,8.848659,4.4985065,0.0,0.0,0.0
19431029602664,0.15314065,8.877372,4.5224347,0.0,0.0,0.0
19431031981882,0.17706887,8.9108715,4.517649,0.0,0.0,0.0
19431034361101,0.18185452,8.915657,4.5272202,0.0,0.0,0.0
19431036740372,0.17706887,8.9108715,4.546363,0.0,0.0,0.0
19431039119591,0.19142582,8.9348,4.546363,0.0,0.0,0.0
19431041498809,0.26799613,8.906086,4.517649,0.0,0.0,0.0
19431043878028,0.28235307,8.920443,4.4745784,0.0,0.0,0.0
19431046257247,0.3062813,8.925228,4.465007,0.0,0.0,0.0
19431048636518,0.32063824,8.906086,4.4602213,0.0,0.0,0.0
19431051015736,0.34456646,8.915657,4.45065,0.0,0.0,0.0
19431053394955,0.3397808,8.9013,4.436293,0.0,0.0,0.0
19431055774174,0.34456646,8.867801,4.4554358,0.0,0.0,0.0
19431058153393,0.33499518,8.867801,4.426722,0.0,0.0,0.0
19431060532611,0.29192436,8.863015,4.412365,0.0,0.0,0.0
19431062911882,0.2536392,8.85823,4.4075794,0.0,0.0,0.0
19431065291101,0.18664017,8.843872,4.398008,0.0,0.0,0.0
19431067670320,0.124426775,8.805588,4.388437,0.0,0.0,0.0
19431070049539,0.086141616,8.810373,4.412365,0.0,0.0,0.0
19431072428809,0.043070808,8.79123,4.4075794,0.0,0.0,0.0
19431074808028,-0.038285162,8.7577305,4.398008,0.0,0.0,0.0
19431077187247,-0.09571291,8.752945,4.3932223,0.0,0.0,0.0
19431079566466,-0.12921242,8.748159,4.388437,0.0,0.0,0.0
19431081945684,-0.16749759,8.724232,4.3740797,0.0,0.0,0.0
19431084324903,-0.19621146,8.719446,4.354937,0.0,0.0,0.0
19431086704174,-0.22971097,8.724232,4.369294,0.0,0.0,0.0
19431089083393,-0.23449662,8.71466,4.3645086,0.0,0.0,0.0
19431091462611,-0.22492532,8.719446,4.359723,0.0,0.0,0.0
19431093841830,-0.2009971,8.705089,4.331009,0.0,0.0,0.0
19431096221049,-0.16749759,8.685946,4.3070807,0.0,0.0,0.0
19431098600320,-0.11006984,8.700303,4.287938,0.0,0.0,0.0
19431100979539,-0.07178468,8.685946,4.273581,0.0,0.0,0.0
19431103358757,-0.019142581,8.676374,4.273581,0.0,0.0,0.0
19431105737976,0.023928227,8.671589,4.26401,0.0,0.0,0.0
19431108117195,0.10049855,8.695518,4.2352962,0.0,0.0,0.0
19431110496414,0.124426775,8.729017,4.206582,0.0,0.0,0.0
19431112875684,0.13399807,8.752945,4.1874394,0.0,0.0,0.0
19431115254903,0.16749759,8.7577305,4.15394,0.0,0.0,0.0
19431117634122,0.18664017,8.776874,4.125226,0.0,0.0,0.0
19431120013341,0.2009971,8.810373,4.139583,0.0,0.0,0.0
19431122392559,0.18664017,8.877372,4.1443686,0.0,0.0,0.0
19431124771778,0.17706887,8.906086,4.1204405,0.0,0.0,0.0
19431127151049,0.16749759,8.930014,4.125226,0.0,0.0,0.0
19431129530268,0.148355,8.949157,4.106084,0.0,0.0,0.0
19431131909486,0.13878371,8.944371,4.1108694,0.0,0.0,0.0
19431134288705,0.124426775,8.944371,4.101298,0.0,0.0,0.0
19431136667924,0.06699903,8.939586,4.0965123,0.0,0.0,0.0
19431139047195,0.062213387,8.953942,4.0965123,0.0,0.0,0.0
19431141426414,0.019142581,8.968299,4.063013,0.0,0.0,0.0
19431143805632,-0.009571291,8.977871,4.058227,0.0,0.0,0.0
19431146184851,-0.009571291,8.987442,4.058227,0.0,0.0,0.0
19431148564070,-0.014356935,8.973084,4.0773697,0.0,0.0,0.0
19431150943289,0.0,8.997013,4.1204405,0.0,0.0,0.0
19431153322559,0.019142581,8.997013,4.15394,0.0,0.0,0.0
19431155701778,0.038285162,8.992228,4.1635113,0.0,0.0,0.0
19431158080997,0.062213387,8.987442,4.173083,0.0,0.0,0.0
19431160460216,0.124426775,8.992228,4.168297,0.0,0.0,0.0
19431162839486,0.16271193,8.9826565,4.220939,0.0,0.0,0.0
19431165218705,0.23928227,8.953942,4.26401,0.0,0.0,0.0
19431167597924,0.28713873,8.9348,4.3118663,0.0,0.0,0.0
19431169977143,0.33020952,8.920443,4.359723,0.0,0.0,0.0
19431172356361,0.3493521,8.9013,4.359723,0.0,0.0,0.0
19431174735580,0.35413775,8.9013,4.359723,0.0,0.0,0.0
19431177114851,0.34456646,8.886943,4.359723,0.0,0.0,0.0
19431179494070,0.32542387,8.872586,4.3740797,0.0,0.0,0.0
19431181873289,0.3062813,8.863015,4.3836513,0.0,0.0,0.0
19431184252507,0.25842485,8.843872,4.4315076,0.0,0.0,0.0
19431186631726,0.23449662,8.853444,4.45065,0.0,0.0,0.0
19431189010997,0.18664017,8.810373,4.4410787,0.0,0.0,0.0
19431191390216,0.13878371,8.810373,4.4410787,0.0,0.0,0.0
19431193769434,0.10049855,8.800801,4.4171505,0.0,0.0,0.0
19431196148653,0.06699903,8.82473,4.398008,0.0,0.0,0.0
19431198527872,0.023928227,8.839087,4.402794,0.0,0.0,0.0
19431200907091,-0.02871387,8.819944,4.426722,0.0,0.0,0.0
19431203286361,-0.05742774,8.815159,4.4458647,0.0,0.0,0.0
19431205665580,-0.05742774,8.839087,4.45065,0.0,0.0,0.0
19431208044799,-0.076570325,8.810373,4.436293,0.0,0.0,0.0
19431210424018,-0.08135597,8.839087,4.421936,0.0,0.0,0.0
19431212803236,-0.0526421,8.867801,4.402794,0.0,0.0,0.0
19431215182507,-0.02871387,8.863015,4.402794,0.0,0.0,0.0
19431217561726,-0.014356935,8.882157,4.412365,0.0,0.0,0.0
19431219940945,0.014356935,8.9108715,4.4171505,0.0,0.0,0.0
19431222320164,0.086141616,8.886943,4.4171505,0.0,0.0,0.0
19431224699382,0.11485548,8.886943,4.426722,0.0,0.0,0.0
19431227078601,0.15792629,8.9013,4.4075794,0.0,0.0,0.0
19431229457820,0.16749759,8.9013,4.3740797,0.0,0.0,0.0
19431231837039,0.21535404,8.886943,4.3501515,0.0,0.0,0.0
19431234216257,0.22492532,8.877372,4.3788652,0.0,0.0,0.0
19431236595528,0.22492532,8.872586,4.369294,0.0,0.0,0.0
19431238974747,0.22971097,8.863015,4.354937,0.0,0.0,0.0
19431241354018,0.2105684,8.848659,4.316652,0.0,0.0,0.0
19431243733236,0.2009971,8.848659,4.278367,0.0,0.0,0.0
19431246112455,0.18185452,8.848659,4.2687955,0.0,0.0,0.0
19431248491674,0.14356937,8.85823,4.273581,0.0,0.0,0.0
19431250870893,0.1052842,8.853444,4.2927237,0.0,0.0,0.0
19431253250111,0.038285162,8.85823,4.2831526,0.0,0.0,0.0
19431255629382,0.019142581,8.863015,4.2927237,0.0,0.0,0.0
19431258008601,-0.038285162,8.872586,4.2831526,0.0,0.0,0.0
19431260387820,-0.1052842,8.882157,4.2687955,0.0,0.0,0.0
19431262767039,-0.15792629,8.882157,4.2448673,0.0,0.0,0.0
19431265146257,-0.2105684,8.877372,4.273581,0.0,0.0,0.0
19431267525528,-0.22013968,8.906086,4.2687955,0.0,0.0,0.0
19431269904747,-0.23449662,8.896515,4.273581,0.0,0.0,0.0
19431272283966,-0.23449662,8.915657,4.2687955,0.0,0.0,0.0
19431274663184,-0.23449662,8.9108715,4.2352962,0.0,0.0,0.0
19431277042403,-0.20578274,8.906086,4.220939,0.0,0.0,0.0
19431279421622,-0.2009971,8.9108715,4.2448673,0.0,0.0,0.0
19431281800893,-0.16749759,8.886943,4.2592244,0.0,0.0,0.0
19431284180111,-0.12921242,8.877372,4.254439,0.0,0.0,0.0
19431286559330,-0.09092726,8.906086,4.249653,0.0,0.0,0.0
19431288938549,-0.05742774,8.9348,4.240082,0.0,0.0,0.0
19431291317768,-0.043070808,8.944371,4.240082,0.0,0.0,0.0
19431293697039,-0.05742774,8.944371,4.2687955,0.0,0.0,0.0
19431296076257,-0.033499517,8.958728,4.2831526,0.0,0.0,0.0
19431298455476,-0.019142581,8.973084,4.302295,0.0,0.0,0.0
19431300834695,0.023928227,8.9826565,4.3070807,0.0,0.0,0.0
19431303213914,-0.014356935,8.968299,4.316652,0.0,0.0,0.0
19431305593132,-0.033499517,8.949157,4.316652,0.0,0.0,0.0
19431307972403,-0.043070808,8.958728,4.321438,0.0,0.0,0.0
19431310351622,-0.033499517,8.973084,4.3262234,0.0,0.0,0.0
19431312730841,-0.043070808,8.953942,4.331009,0.0,0.0,0.0
19431315110059,-0.07178468,8.915657,4.345366,0.0,0.0,0.0
19431317489278,-0.076570325,8.915657,4.388437,0.0,0.0,0.0
19431319868549,-0.09092726,8.925228,4.402794,0.0,0.0,0.0
19431322247768,-0.062213387,8.9013,4.4075794,0.0,0.0,0.0
19431324626986,-0.019142581,8.85823,4.412365,0.0,0.0,0.0
19431327006205,0.009571291,8.848659,4.421936,0.0,0.0,0.0
19431329385424,0.043070808,8.843872,4.421936,0.0,0.0,0.0
19431331764591,0.09092726,8.829515,4.4410787,0.0,0.0,0.0
19431334143914,0.13399807,8.839087,4.45065,0.0,0.0,0.0
19431336523132,0.2105684,8.839087,4.465007,0.0,0.0,0.0
19431338902351,0.2536392,8.815159,4.4745784,0.0,0.0,0.0
19431341281570,0.31585258,8.805588,4.4745784,0.0,0.0,0.0
19431343660789,0.38285163,8.79123,4.469793,0.0,0.0,0.0
19431346040007,0.4211368,8.796016,4.4602213,0.0,0.0,0.0
19431348419278,0.4881358,8.772088,4.436293,0.0,0.0,0.0
19431350798497,0.5455636,8.776874,4.436293,0.0,0.0,0.0
19431353177716,0.5838487,8.772088,4.45065,0.0,0.0,0.0
19431355556934,0.56470615,8.7673025,4.469793,0.0,0.0,0.0
19431357936153,0.57427746,8.762517,4.508078,0.0,0.0,0.0
19431360315424,0.5455636,8.752945,4.5320063,0.0,0.0,0.0
19431362694643,0.52163535,8.762517,4.5224347,0.0,0.0,0.0
19431365073861,0.49292147,8.810373,4.4985065,0.0,0.0,0.0
19431367453080,0.44985065,8.79123,4.45065,0.0,0.0,0.0
19431369832299,0.41156548,8.781659,4.4554358,0.0,0.0,0.0
19431372211518,0.33020952,8.815159,4.465007,0.0,0.0,0.0
19431374590789,0.23928227,8.796016,4.465007,0.0,0.0,0.0
19431376970007,0.17228323,8.810373,4.4554358,0.0,0.0,0.0
19431379349226,0.09092726,8.800801,4.426722,0.0,0.0,0.0
19431381728445,0.014356935,8.805588,4.426722,0.0,0.0,0.0
19431384107664,-0.062213387,8.810373,4.4075794,0.0,0.0,0.0
19431386486934,-0.11006984,8.800801,4.3932223,0.0,0.0,0.0
19431388866153,-0.15314065,8.796016,4.4171505,0.0,0.0,0.0
19431391245372,-0.16749759,8.772088,4.4171505,0.0,0.0,0.0
19431393624591,-0.19142582,8.776874,4.421936,0.0,0.0,0.0
19431396003809,-0.16271193,8.786445,4.412365,0.0,0.0,0.0
19431398383028,-0.14356937,8.79123,4.4075794,0.0,0.0,0.0
19431400762299,-0.1052842,8.79123,4.3740797,0.0,0.0,0.0
19431403141518,-0.05742774,8.786445,4.3645086,0.0,0.0,0.0
19431405520736,0.0047856453,8.819944,4.354937,0.0,0.0,0.0
19431407899955,0.076570325,8.781659,4.369294,0.0,0.0,0.0
19431410279174,0.15314065,8.762517,4.3740797,0.0,0.0,0.0
19431412658393,0.22013968,8.7673025,4.3405805,0.0,0.0,0.0
19431415037664,0.26799613,8.762517,4.3070807,0.0,0.0,0.0
19431417416882,0.29671,8.729017,4.254439,0.0,0.0,0.0
19431419796101,0.3589234,8.7577305,4.2352962,0.0,0.0,0.0
19431422175320,0.3684947,8.772088,4.2257247,0.0,0.0,0.0
19431424554539,0.39720857,8.786445,4.2448673,0.0,0.0,0.0
19431426933809,0.38285163,8.796016,4.2592244,0.0,0.0,0.0
19431429313028,0.33499518,8.82473,4.2687955,0.0,0.0,0.0
19431431692247,0.3062813,8.853444,4.249653,0.0,0.0,0.0
19431434071466,0.2727818,8.848659,4.23051,0.0,0.0,0.0
19431436450684,0.22492532,8.882157,4.206582,0.0,0.0,0.0
19431438829903,0.17228323,8.920443,4.197011,0.0,0.0,0.0
19431441209174,0.13399807,8.944371,4.23051,0.0,0.0,0.0
19431443588393,0.086141616,8.977871,4.2831526,0.0,0.0,0.0
19431445967611,0.062213387,9.001799,4.3118663,0.0,0.0,0.0
19431448346830,0.043070808,9.040084,4.321438,0.0,0.0,0.0
19431450726049,0.043070808,9.078369,4.2975097,0.0,0.0,0.0
19431453105268,0.06699903,9.08794,4.2687955,0.0,0.0,0.0
19431455484539,0.07178468,9.068798,4.249653,0.0,0.0,0.0
19431457863757,0.09571291,9.035298,4.2592244,0.0,0.0,0.0
19431460242924,0.15314065,9.030513,4.26401,0.0,0.0,0.0
19431462622195,0.22971097,9.020942,4.254439,0.0,0.0,0.0
19431465001414,0.28713873,9.016156,4.278367,0.0,0.0,0.0
19431467380632,0.37328035,9.001799,4.287938,0.0,0.0,0.0
19431469759903,0.42592242,8.968299,4.278367,0.0,0.0,0.0
19431472139122,0.51206404,8.977871,4.2687955,0.0,0.0,0.0
19431474518341,0.57906306,8.953942,4.2687955,0.0,0.0,0.0
19431476897559,0.6412765,8.925228,4.2975097,0.0,0.0,0.0
19431479276778,0.6795616,8.906086,4.331009,0.0,0.0,0.0
19431481656049,0.6891329,8.896515,4.359723,0.0,0.0,0.0
19431484035268,0.70348984,8.853444,4.3788652,0.0,0.0,0.0
19431486414486,0.6939186,8.848659,4.3788652,0.0,0.0,0.0
19431488793705,0.6939186,8.839087,4.3740797,0.0,0.0,0.0
19431491172924,0.67477596,8.834301,4.3645086,0.0,0.0,0.0
19431493552143,0.6412765,8.848659,4.354937,0.0,0.0,0.0
19431495931414,0.59342,8.796016,4.359723,0.0,0.0,0.0
19431498310632,0.52163535,8.810373,4.398008,0.0,0.0,0.0
19431500689851,0.4642076,8.752945,4.4075794,0.0,0.0,0.0
19431503069070,0.36370903,8.719446,4.412365,0.0,0.0,0.0
19431505448289,0.26799613,8.695518,4.3932223,0.0,0.0,0.0
19431507827455,0.18185452,8.709874,4.3501515,0.0,0.0,0.0
19431510206778,0.09571291,8.724232,4.3357944,0.0,0.0,0.0
19431512585997,-0.014356935,8.719446,4.3405805,0.0,0.0,0.0
19431514965216,-0.14356937,8.733803,4.3645086,0.0,0.0,0.0
19431517344382,-0.2440679,8.752945,4.412365,0.0,0.0,0.0
19431519723653,-0.32063824,8.781659,4.421936,0.0,0.0,0.0
19431522102924,-0.3924229,8.810373,4.4171505,0.0,0.0,0.0
19431524482143,-0.4642076,8.819944,4.426722,0.0,0.0,0.0
19431526861361,-0.4977071,8.872586,4.4410787,0.0,0.0,0.0
19431529240580,-0.5455636,8.9013,4.4554358,0.0,0.0,0.0
19431531619799,-0.5455636,8.9108715,4.469793,0.0,0.0,0.0
19431533999018,-0.5168497,8.925228,4.4745784,0.0,0.0,0.0
19431536378289,-0.47856453,8.9348,4.4841495,0.0,0.0,0.0
19431538757507,-0.4211368,8.915657,4.4602213,0.0,0.0,0.0
19431541136726,-0.37806597,8.9348,4.4458647,0.0,0.0,0.0
19431543515945,-0.29671,8.920443,4.4075794,0.0,0.0,0.0
19431545895164,-0.22013968,8.9108715,4.402794,0.0,0.0,0.0
19431548274382,-0.124426775,8.9013,4.3932223,0.0,0.0,0.0
19431550653653,-0.062213387,8.863015,4.412365,0.0,0.0,0.0
19431553032872,-0.014356935,8.853444,4.398008,0.0,0.0,0.0
19431555412091,0.062213387,8.834301,4.3645086,0.0,0.0,0.0
19431557791309,0.086141616,8.839087,4.3645086,0.0,0.0,0.0
19431560170528,0.086141616,8.839087,4.354937,0.0,0.0,0.0
19431562549799,0.086141616,8.863015,4.345366,0.0,0.0,0.0
19431564929018,0.09092726,8.891729,4.3262234,0.0,0.0,0.0
19431567308236,0.08135597,8.9108715,4.345366,0.0,0.0,0.0
19431569687455,0.05742774,8.886943,4.354937,0.0,0.0,0.0
19431572066674,0.019142581,8.805588,4.2975097,0.0,0.0,0.0
19431574445893,-0.06699903,8.7673025,4.278367,0.0,0.0,0.0
19431576825164,-0.06699903,8.815159,4.278367,0.0,0.0,0.0
19431579204382,-0.15792629,8.829515,4.321438,0.0,0.0,0.0
19431581583601,-0.17706887,8.676374,4.240082,0.0,0.0,0.0
19431583962820,-0.2632105,8.920443,4.4315076,0.0,0.0,0.0
19431586342039,-0.37328035,9.040084,4.4171505,0.0,0.0,0.0
19431588721257,-0.3397808,8.963513,4.369294,0.0,0.0,0.0
19431591100476,-0.2440679,8.920443,4.3262234,0.0,0.0,0.0
19431593479747,-0.086141616,8.906086,4.3118663,0.0,0.0,0.0
19431595858914,0.10049855,8.82473,4.254439,0.0,0.0,0.0
19431598238184,0.37806597,8.690732,4.2257247,0.0,0.0,0.0
19431600617351,0.6987042,8.681161,4.302295,0.0,0.0,0.0
19431602996622,0.94755775,8.724232,4.273581,0.0,0.0,0.0
19431605375893,1.1294123,8.685946,4.115655,0.0,0.0,0.0
19431607755111,1.3351951,8.676374,4.072584,0.0,0.0,0.0
19431610134330,1.5218352,8.7577305,4.182654,0.0,0.0,0.0
19431612513549,1.5696917,8.772088,4.197011,0.0,0.0,0.0
19431614892768,1.564906,8.719446,4.197011,0.0,0.0,0.0
19431617271986,1.4835501,8.82473,4.3070807,0.0,0.0,0.0
19431619651257,1.2251252,8.867801,4.2448673,0.0,0.0,0.0
19431622030476,0.8566305,8.906086,4.1108694,0.0,0.0,0.0
19431624409695,0.5599205,8.925228,4.0438704,0.0,0.0,0.0
19431626788914,0.23449662,9.0544405,4.063013,0.0,0.0,0.0
19431629168132,-0.22971097,9.107083,4.072584,0.0,0.0,0.0
19431631547351,-0.6556334,9.12144,4.125226,0.0,0.0,0.0
19431633926622,-1.0001999,9.164511,4.2448673,0.0,0.0,0.0
19431636305789,-1.3399807,9.183653,4.273581,0.0,0.0,0.0
19431638685059,-1.6893328,9.202796,4.23051,0.0,0.0,0.0
19431641064278,-1.9190438,9.193225,4.220939,0.0,0.0,0.0
19431643443497,-2.0147567,9.226724,4.2592244,0.0,0.0,0.0
19431645822716,-2.0386848,9.193225,4.2975097,0.0,0.0,0.0
19431648201986,-1.9669002,9.097511,4.3645086,0.0,0.0,0.0
19431650581205,-1.7467605,9.064013,4.5128636,0.0,0.0,0.0
19431652960424,-1.4500505,9.035298,4.584648,0.0,0.0,0.0
19431655339643,-1.1294123,9.006584,4.570291,0.0,0.0,0.0
19431657718861,-0.7178468,8.9348,4.536792,0.0,0.0,0.0
19431660098080,-0.22971097,8.906086,4.4841495,0.0,0.0,0.0
19431662477351,0.23449662,8.877372,4.402794,0.0,0.0,0.0
19431664856570,0.6987042,8.82473,4.3501515,0.0,0.0,0.0
19431667235789,1.119841,8.772088,4.354937,0.0,0.0,0.0
19431669615007,1.5170496,8.729017,4.402794,0.0,0.0,0.0
19431671994226,1.8281165,8.676374,4.4171505,0.0,0.0,0.0
19431674373445,1.9812572,8.633304,4.412365,0.0,0.0,0.0
19431676752664,2.009971,8.623733,4.3357944,0.0,0.0,0.0
19431679131934,1.9621146,8.6141615,4.287938,0.0,0.0,0.0
19431681511153,1.713261,8.628518,4.2687955,0.0,0.0,0.0
19431683890372,1.3016955,8.633304,4.287938,0.0,0.0,0.0
19431686269591,0.80877405,8.628518,4.359723,0.0,0.0,0.0
19431688648861,0.38763726,8.657232,4.465007,0.0,0.0,0.0
19431691028080,-0.08135597,8.690732,4.5320063,0.0,0.0,0.0
19431693407299,-0.5838487,8.738588,4.4841495,0.0,0.0,0.0
19431695786518,-0.9906286,8.82473,4.426722,0.0,0.0,0.0
19431698165736,-1.3064811,8.882157,4.3932223,0.0,0.0,0.0
19431700544955,-1.5888343,8.896515,4.3357944,0.0,0.0,0.0
19431702924226,-1.8137596,8.958728,4.3836513,0.0,0.0,0.0
19431705303445,-1.8855443,9.001799,4.436293,0.0,0.0,0.0
19431707682664,-1.8903298,9.020942,4.479364,0.0,0.0,0.0
19431710061830,-1.861616,9.001799,4.426722,0.0,0.0,0.0
19431712441101,-1.6366907,9.025727,4.359723,0.0,0.0,0.0
19431714820320,-1.2921243,9.044869,4.2687955,0.0,0.0,0.0
19431717199591,-0.9667004,9.035298,4.1778684,0.0,0.0,0.0
19431719578809,-0.5886344,9.020942,4.1587257,0.0,0.0,0.0
19431721958028,-0.17228323,8.992228,4.2017965,0.0,0.0,0.0
19431724337247,0.27756742,8.944371,4.254439,0.0,0.0,0.0
19431726716466,0.6556334,8.85823,4.240082,0.0,0.0,0.0
19431729095684,1.0097711,8.810373,4.1922255,0.0,0.0,0.0
19431731474903,1.3399807,8.810373,4.130012,0.0,0.0,0.0
19431733854174,1.6271194,8.800801,4.0773697,0.0,0.0,0.0
19431736233393,1.7611175,8.786445,4.082155,0.0,0.0,0.0
19431738612611,1.7706888,8.772088,4.101298,0.0,0.0,0.0
19431740991830,1.6845472,8.786445,4.173083,0.0,0.0,0.0
19431743371049,1.4787644,8.786445,4.211368,0.0,0.0,0.0
19431745750320,1.1246266,8.800801,4.254439,0.0,0.0,0.0
19431748129539,0.75613195,8.819944,4.2448673,0.0,0.0,0.0
19431750508757,0.41156548,8.848659,4.2592244,0.0,0.0,0.0
19431752887976,0.038285162,8.886943,4.287938,0.0,0.0,0.0
19431755267195,-0.33499518,8.867801,4.2927237,0.0,0.0,0.0
19431757646414,-0.65084773,8.867801,4.3645086,0.0,0.0,0.0
19431760025632,-0.9236295,8.882157,4.45065,0.0,0.0,0.0
19431762404903,-1.134198,8.882157,4.4985065,0.0,0.0,0.0
19431764784070,-1.2729816,8.882157,4.4602213,0.0,0.0,0.0
19431767163341,-1.3160524,8.872586,4.436293,0.0,0.0,0.0
19431769542559,-1.3064811,8.9013,4.4171505,0.0,0.0,0.0
19431771921778,-1.2346965,8.867801,4.436293,0.0,0.0,0.0
19431774301049,-1.0863415,8.853444,4.503292,0.0,0.0,0.0
19431776680268,-0.8709874,8.815159,4.536792,0.0,0.0,0.0
19431779059486,-0.6029913,8.839087,4.546363,0.0,0.0,0.0
19431781438705,-0.3397808,8.85823,4.517649,0.0,0.0,0.0
19431783817924,-0.014356935,8.843872,4.4315076,0.0,0.0,0.0
19431786197143,0.32063824,8.839087,4.3836513,0.0,0.0,0.0
19431788576414,0.5407779,8.834301,4.3357944,0.0,0.0,0.0
19431790955632,0.75613195,8.805588,4.354937,0.0,0.0,0.0
19431793334851,0.9667004,8.7577305,4.3788652,0.0,0.0,0.0
19431795714070,1.0815558,8.7673025,4.4075794,0.0,0.0,0.0
19431798093236,1.1246266,8.79123,4.4171505,0.0,0.0,0.0
19431800472507,1.0576276,8.819944,4.4075794,0.0,0.0,0.0
19431802851778,0.9284152,8.805588,4.402794,0.0,0.0,0.0
19431805230997,0.7704889,8.800801,4.412365,0.0,0.0,0.0
19431807610216,0.5599205,8.834301,4.4602213,0.0,0.0,0.0
19431809989434,0.31585258,8.843872,4.5128636,0.0,0.0,0.0
19431812368653,0.06699903,8.863015,4.56072,0.0,0.0,0.0
19431814747872,-0.18185452,8.882157,4.584648,0.0,0.0,0.0
19431817127091,-0.38285163,8.9013,4.570291,0.0,0.0,0.0
19431819506361,-0.5599205,8.896515,4.5272202,0.0,0.0,0.0
19431821885580,-0.70348984,8.920443,4.479364,0.0,0.0,0.0
19431824264799,-0.7752745,8.915657,4.4745784,0.0,0.0,0.0
19431826644018,-0.82313097,8.906086,4.479364,0.0,0.0,0.0
19431829023236,-0.82313097,8.896515,4.479364,0.0,0.0,0.0
19431831402403,-0.7465607,8.906086,4.493721,0.0,0.0,0.0
19431833781726,-0.6125626,8.906086,4.4745784,0.0,0.0,0.0
19431836160945,-0.44027936,8.886943,4.421936,0.0,0.0,0.0
19431838540164,-0.2727818,8.872586,4.3645086,0.0,0.0,0.0
19431840919382,-0.06699903,8.863015,4.3262234,0.0,0.0,0.0
19431843298601,0.148355,8.839087,4.345366,0.0,0.0,0.0
19431845677820,0.34456646,8.815159,4.3645086,0.0,0.0,0.0
19431848057091,0.526421,8.786445,4.3836513,0.0,0.0,0.0
19431850436309,0.66999036,8.762517,4.3501515,0.0,0.0,0.0
19431852815528,0.7848458,8.772088,4.321438,0.0,0.0,0.0
19431855194747,0.8566305,8.781659,4.2831526,0.0,0.0,0.0
19431857573966,0.8757731,8.772088,4.2448673,0.0,0.0,0.0
19431859953184,0.8662018,8.805588,4.2352962,0.0,0.0,0.0
19431862332455,0.7800602,8.82473,4.2592244,0.0,0.0,0.0
19431864711674,0.6556334,8.796016,4.2927237,0.0,0.0,0.0
19431867090893,0.52163535,8.79123,4.3118663,0.0,0.0,0.0
19431869470111,0.36370903,8.839087,4.331009,0.0,0.0,0.0
19431871849330,0.2009971,8.843872,4.3118663,0.0,0.0,0.0
19431874228549,0.033499517,8.843872,4.287938,0.0,0.0,0.0
19431876607820,-0.09092726,8.882157,4.254439,0.0,0.0,0.0
19431878987039,-0.19621146,8.896515,4.278367,0.0,0.0,0.0
19431881366205,-0.30149564,8.9013,4.2927237,0.0,0.0,0.0
19431883745476,-0.36370903,8.925228,4.321438,0.0,0.0,0.0
19431886124695,-0.37328035,8.968299,4.3262234,0.0,0.0,0.0
19431888503914,-0.37806597,8.977871,4.3118663,0.0,0.0,0.0
19431890883184,-0.3397808,8.968299,4.249653,0.0,0.0,0.0
19431893262403,-0.27756742,8.997013,4.2161536,0.0,0.0,0.0
19431895641622,-0.20578274,9.01137,4.2017965,0.0,0.0,0.0
19431898020841,-0.09571291,9.006584,4.254439,0.0,0.0,0.0
19431900400059,0.023928227,9.006584,4.278367,0.0,0.0,0.0
19431902779278,0.12921242,8.9826565,4.2927237,0.0,0.0,0.0
19431905158549,0.2440679,8.953942,4.26401,0.0,0.0,0.0
19431907537768,0.33499518,8.939586,4.2161536,0.0,0.0,0.0
19431909916986,0.3924229,8.915657,4.1922255,0.0,0.0,0.0
19431912296205,0.43070808,8.872586,4.182654,0.0,0.0,0.0
19431914675424,0.4546363,8.839087,4.173083,0.0,0.0,0.0
19431917054643,0.44027936,8.815159,4.1922255,0.0,0.0,0.0
19431919433861,0.41156548,8.772088,4.2592244,0.0,0.0,0.0
19431921813132,0.32542387,8.752945,4.2927237,0.0,0.0,0.0
19431924192351,0.24885355,8.738588,4.316652,0.0,0.0,0.0
19431926571570,0.19142582,8.752945,4.3070807,0.0,0.0,0.0
19431928950789,0.10049855,8.7577305,4.316652,0.0,0.0,0.0
19431931330007,0.02871387,8.762517,4.331009,0.0,0.0,0.0
19431933709226,-0.0526421,8.762517,4.3836513,0.0,0.0,0.0
19431936088497,-0.13399807,8.7673025,4.421936,0.0,0.0,0.0
19431938467716,-0.19621146,8.796016,4.4458647,0.0,0.0,0.0
19431940846934,-0.21535404,8.805588,4.4315076,0.0,0.0,0.0
19431943226153,-0.2105684,8.815159,4.4171505,0.0,0.0,0.0
19431945605372,-0.21535404,8.82473,4.3932223,0.0,0.0,0.0
19431947984591,-0.19621146,8.839087,4.369294,0.0,0.0,0.0
19431950363861,-0.15792629,8.834301,4.388437,0.0,0.0,0.0
19431952743080,-0.124426775,8.843872,4.3932223,0.0,0.0,0.0
19431955122299,-0.047856454,8.839087,4.3836513,0.0,0.0,0.0
19431957501518,-0.02871387,8.843872,4.3836513,0.0,0.0,0.0
19431959880736,0.009571291,8.839087,4.359723,0.0,0.0,0.0
19431962259955,0.043070808,8.867801,4.354937,0.0,0.0,0.0
19431964639226,0.086141616,8.867801,4.3645086,0.0,0.0,0.0
19431967018445,0.10049855,8.867801,4.412365,0.0,0.0,0.0
19431969397559,0.1052842,8.872586,4.4171505,0.0,0.0,0.0
19431971776882,0.086141616,8.882157,4.4410787,0.0,0.0,0.0
19431974156101,0.0526421,8.886943,4.421936,0.0,0.0,0.0
19431976535320,0.033499517,8.896515,4.412365,0.0,0.0,0.0
19431978914591,-0.02871387,8.9013,4.402794,0.0,0.0,0.0
19431981293809,-0.086141616,8.9013,4.3836513,0.0,0.0,0.0
19431983673028,-0.11964113,8.9013,4.3645086,0.0,0.0,0.0
19431986052247,-0.14356937,8.920443,4.3645086,0.0,0.0,0.0
19431988431466,-0.19142582,8.9108715,4.3740797,0.0,0.0,0.0
19431990810684,-0.22492532,8.925228,4.3932223,0.0,0.0,0.0
19431993189903,-0.24885355,8.944371,4.398008,0.0,0.0,0.0
19431995569174,-0.25842485,8.949157,4.3836513,0.0,0.0,0.0
19431997948393,-0.24885355,8.953942,4.3645086,0.0,0.0,0.0
19432000327611,-0.23449662,8.973084,4.359723,0.0,0.0,0.0
19432002706830,-0.19621146,8.977871,4.3645086,0.0,0.0,0.0
19432005086049,-0.17228323,8.953942,4.3836513,0.0,0.0,0.0
19432007465268,-0.14356937,8.968299,4.388437,0.0,0.0,0.0
19432009844539,-0.11964113,8.968299,4.3836513,0.0,0.0,0.0
19432012223757,-0.08135597,8.968299,4.3788652,0.0,0.0,0.0
19432014602976,-0.047856454,8.953942,4.3740797,0.0,0.0,0.0
19432016982195,-0.009571291,8.939586,4.3262234,0.0,0.0,0.0
19432019361414,0.023928227,8.939586,4.3357944,0.0,0.0,0.0
19432021740632,0.05742774,8.930014,4.359723,0.0,0.0,0.0
19432024119903,0.09092726,8.920443,4.388437,0.0,0.0,0.0
19432026499122,0.1052842,8.939586,4.3836513,0.0,0.0,0.0
19432028878341,0.13399807,8.925228,4.3788652,0.0,0.0,0.0
19432031257559,0.16749759,8.920443,4.3645086,0.0,0.0,0.0
19432033636778,0.17228323,8.906086,4.354937,0.0,0.0,0.0
19432036015997,0.23449662,8.906086,4.345366,0.0,0.0,0.0
19432038395216,0.2727818,8.9108715,4.3357944,0.0,0.0,0.0
19432040774486,0.29671,8.872586,4.3262234,0.0,0.0,0.0
19432043153705,0.31585258,8.853444,4.302295,0.0,0.0,0.0
19432045532924,0.37328035,8.843872,4.287938,0.0,0.0,0.0
19432047912143,0.37806597,8.829515,4.240082,0.0,0.0,0.0
19432050291361,0.37806597,8.819944,4.2257247,0.0,0.0,0.0
19432052670580,0.37806597,8.79123,4.23051,0.0,0.0,0.0
19432055049851,0.3493521,8.772088,4.240082,0.0,0.0,0.0
19432057429070,0.33499518,8.762517,4.23051,0.0,0.0,0.0
19432059808289,0.33499518,8.752945,4.220939,0.0,0.0,0.0
19432062187507,0.27756742,8.752945,4.211368,0.0,0.0,0.0
19432064566726,0.2009971,8.7577305,4.23051,0.0,0.0,0.0
19432066945945,0.11964113,8.752945,4.2592244,0.0,0.0,0.0
19432069325216,0.06699903,8.733803,4.2592244,0.0,0.0,0.0
19432071704434,0.0,8.724232,4.254439,0.0,0.0,0.0
19432074083653,-0.06699903,8.743374,4.254439,0.0,0.0,0.0
19432076462872,-0.11485548,8.7577305,4.26401,0.0,0.0,0.0
19432078842091,-0.15314065,8.776874,4.2687955,0.0,0.0,0.0
19432081221309,-0.19621146,8.786445,4.2687955,0.0,0.0,0.0
19432083600528,-0.2536392,8.819944,4.273581,0.0,0.0,0.0
19432085979799,-0.2632105,8.829515,4.2831526,0.0,0.0,0.0
19432088359018,-0.27756742,8.829515,4.3070807,0.0,0.0,0.0
19432090738236,-0.25842485,8.843872,4.321438,0.0,0.0,0.0
19432093117455,-0.25842485,8.863015,4.345366,0.0,0.0,0.0
19432095496674,-0.21535404,8.863015,4.3740797,0.0,0.0,0.0
19432097875893,-0.16271193,8.863015,4.3740797,0.0,0.0,0.0
19432100255164,-0.11964113,8.882157,4.3740797,0.0,0.0,0.0
19432102634382,-0.06699903,8.896515,4.388437,0.0,0.0,0.0
19432105013601,-0.033499517,8.896515,4.4075794,0.0,0.0,0.0
19432107392820,0.043070808,8.896515,4.421936,0.0,0.0,0.0
19432109772039,0.11485548,8.877372,4.4315076,0.0,0.0,0.0
19432112151257,0.18185452,8.872586,4.4458647,0.0,0.0,0.0
19432114530476,0.22013968,8.9013,4.4315076,0.0,0.0,0.0
19432116909747,0.28713873,8.886943,4.4075794,0.0,0.0,0.0
19432119288966,0.31106696,8.896515,4.402794,0.0,0.0,0.0
19432121668184,0.29671,8.9108715,4.398008,0.0,0.0,0.0
19432124047403,0.26799613,8.9108715,4.398008,0.0,0.0,0.0
19432126426622,0.21535404,8.906086,4.4075794,0.0,0.0,0.0
19432128805841,0.14356937,8.9013,4.4171505,0.0,0.0,0.0
19432131185111,0.07178468,8.915657,4.4315076,0.0,0.0,0.0
19432133564330,0.019142581,8.9348,4.421936,0.0,0.0,0.0
19432135943497,-0.033499517,8.906086,4.426722,0.0,0.0,0.0
19432138322768,-0.1052842,8.920443,4.421936,0.0,0.0,0.0
19432140701986,-0.16749759,8.953942,4.426722,0.0,0.0,0.0
19432143081205,-0.21535404,8.949157,4.402794,0.0,0.0,0.0
19432145460424,-0.26799613,8.944371,4.3932223,0.0,0.0,0.0
19432147839695,-0.32063824,8.939586,4.4075794,0.0,0.0,0.0
19432150218914,-0.33020952,8.968299,4.421936,0.0,0.0,0.0
19432152598132,-0.3589234,8.973084,4.398008,0.0,0.0,0.0
19432154977351,-0.31585258,8.958728,4.3788652,0.0,0.0,0.0
19432157356518,-0.28713873,8.963513,4.3645086,0.0,0.0,0.0
19432159735789,-0.2536392,8.977871,4.369294,0.0,0.0,0.0
19432162115059,-0.22013968,8.973084,4.3836513,0.0,0.0,0.0
19432164494278,-0.14356937,8.949157,4.3932223,0.0,0.0,0.0
19432166873497,-0.10049855,8.939586,4.369294,0.0,0.0,0.0
19432169252716,-0.038285162,8.9348,4.354937,0.0,0.0,0.0
19432171631934,0.019142581,8.949157,4.354937,0.0,0.0,0.0
19432174011153,0.07178468,8.939586,4.359723,0.0,0.0,0.0
19432176390424,0.10049855,8.958728,4.3405805,0.0,0.0,0.0
19432178769643,0.15792629,8.9108715,4.3357944,0.0,0.0,0.0
19432181148861,0.17228323,8.9108715,4.3070807,0.0,0.0,0.0
19432183528080,0.16749759,8.896515,4.273581,0.0,0.0,0.0
19432185907299,0.18664017,8.882157,4.2161536,0.0,0.0,0.0
19432188286518,0.13878371,8.906086,4.206582,0.0,0.0,0.0
19432190665736,0.086141616,8.9013,4.182654,0.0,0.0,0.0
19432193044955,0.047856454,8.891729,4.1778684,0.0,0.0,0.0
19432195424226,0.0047856453,8.877372,4.173083,0.0,0.0,0.0
19432197803445,-0.08135597,8.863015,4.1874394,0.0,0.0,0.0
19432200182664,-0.11485548,8.867801,4.197011,0.0,0.0,0.0
19432202561882,-0.16271193,8.853444,4.197011,0.0,0.0,0.0
19432204941101,-0.21535404,8.867801,4.206582,0.0,0.0,0.0
19432207320372,-0.28235307,8.863015,4.254439,0.0,0.0,0.0
19432209699591,-0.30149564,8.843872,4.2831526,0.0,0.0,0.0
19432212078809,-0.32063824,8.834301,4.3262234,0.0,0.0,0.0
19432214458028,-0.3062813,8.834301,4.359723,0.0,0.0,0.0
19432216837247,-0.3062813,8.848659,4.3836513,0.0,0.0,0.0
19432219216466,-0.2632105,8.85823,4.3932223,0.0,0.0,0.0
19432221595684,-0.2105684,8.843872,4.3836513,0.0,0.0,0.0
19432223974955,-0.14356937,8.85823,4.3932223,0.0,0.0,0.0
19432226354174,-0.09571291,8.85823,4.4171505,0.0,0.0,0.0
19432228733393,-0.043070808,8.848659,4.4410787,0.0,0.0,0.0
19432231112611,0.023928227,8.867801,4.4171505,0.0,0.0,0.0
19432233491830,0.076570325,8.867801,4.402794,0.0,0.0,0.0
19432235871049,0.13878371,8.848659,4.402794,0.0,0.0,0.0
19432238250268,0.15314065,8.848659,4.369294,0.0,0.0,0.0
19432240629539,0.19621146,8.872586,4.3357944,0.0,0.0,0.0
19432243008757,0.20578274,8.867801,4.3405805,0.0,0.0,0.0
19432245387976,0.19142582,8.829515,4.3405805,0.0,0.0,0.0
19432247767195,0.17228323,8.872586,4.3740797,0.0,0.0,0.0
19432250146414,0.15792629,8.839087,4.3740797,0.0,0.0,0.0
19432252525632,0.11964113,8.810373,4.3645086,0.0,0.0,0.0
19432254904903,0.062213387,8.810373,4.354937,0.0,0.0,0.0
19432257284122,0.019142581,8.800801,4.354937,0.0,0.0,0.0
19432259663341,-0.05742774,8.815159,4.354937,0.0,0.0,0.0
19432262042559,-0.124426775,8.829515,4.369294,0.0,0.0,0.0
19432264421778,-0.18185452,8.796016,4.3836513,0.0,0.0,0.0
19432266800997,-0.2440679,8.815159,4.398008,0.0,0.0,0.0
19432269180216,-0.32063824,8.819944,4.3932223,0.0,0.0,0.0
19432271559486,-0.35413775,8.829515,4.3788652,0.0,0.0,0.0
19432273938705,-0.37806597,8.810373,4.3836513,0.0,0.0,0.0
19432276317924,-0.38285163,8.786445,4.3740797,0.0,0.0,0.0
19432278697143,-0.37806597,8.810373,4.331009,0.0,0.0,0.0
19432281076361,-0.3589234,8.781659,4.3118663,0.0,0.0,0.0
19432283455580,-0.32542387,8.805588,4.3070807,0.0,0.0,0.0
19432285834799,-0.27756742,8.82473,4.302295,0.0,0.0,0.0
19432288214070,-0.22492532,8.800801,4.2927237,0.0,0.0,0.0
19432290593289,-0.16271193,8.800801,4.2831526,0.0,0.0,0.0
19432292972507,-0.13878371,8.82473,4.278367,0.0,0.0,0.0
19432295351726,-0.07178468,8.834301,4.302295,0.0,0.0,0.0
19432297730945,-0.009571291,8.819944,4.287938,0.0,0.0,0.0
19432300110164,0.019142581,8.829515,4.2831526,0.0,0.0,0.0
19432302489382,0.047856454,8.819944,4.3070807,0.0,0.0,0.0
19432304868653,0.086141616,8.800801,4.331009,0.0,0.0,0.0
19432307247872,0.1052842,8.772088,4.3357944,0.0,0.0,0.0
19432309627091,0.11964113,8.772088,4.321438,0.0,0.0,0.0
19432312006309,0.124426775,8.752945,4.3118663,0.0,0.0,0.0
19432314385528,0.124426775,8.7577305,4.3118663,0.0,0.0,0.0
19432316764695,0.09092726,8.752945,4.3070807,0.0,0.0,0.0
19432319144018,0.07178468,8.762517,4.287938,0.0,0.0,0.0
19432321523236,0.038285162,8.7673025,4.287938,0.0,0.0,0.0
19432323902455,0.014356935,8.776874,4.3118663,0.0,0.0,0.0
19432326281674,-0.009571291,8.786445,4.3118663,0.0,0.0,0.0
19432328660893,-0.0526421,8.819944,4.287938,0.0,0.0,0.0
19432331040111,-0.047856454,8.834301,4.3070807,0.0,0.0,0.0
19432333419330,-0.09092726,8.82473,4.316652,0.0,0.0,0.0
19432335798601,-0.09092726,8.829515,4.2975097,0.0,0.0,0.0
19432338177820,-0.13399807,8.843872,4.302295,0.0,0.0,0.0
19432340557039,-0.11485548,8.843872,4.3262234,0.0,0.0,0.0
19432342936257,-0.13878371,8.872586,4.3405805,0.0,0.0,0.0
19432345315476,-0.15314065,8.863015,4.354937,0.0,0.0,0.0
19432347694695,-0.15314065,8.848659,4.345366,0.0,0.0,0.0
19432350073914,-0.13399807,8.848659,4.354937,0.0,0.0,0.0
19432352453184,-0.11006984,8.863015,4.3836513,0.0,0.0,0.0
19432354832403,-0.086141616,8.853444,4.3836513,0.0,0.0,0.0
19432357211622,-0.038285162,8.843872,4.3836513,0.0,0.0,0.0
19432359590841,0.0047856453,8.867801,4.3836513,0.0,0.0,0.0
19432361970059,0.033499517,8.867801,4.354937,0.0,0.0,0.0
19432364349278,0.038285162,8.853444,4.3357944,0.0,0.0,0.0
19432366728549,0.086141616,8.867801,4.3262234,0.0,0.0,0.0
19432369107768,0.13399807,8.877372,4.316652,0.0,0.0,0.0
19432371486986,0.16271193,8.848659,4.316652,0.0,0.0,0.0
19432373866205,0.19142582,8.853444,4.3357944,0.0,0.0,0.0
19432376245424,0.19621146,8.843872,4.3357944,0.0,0.0,0.0
19432378624643,0.20578274,8.853444,4.3262234,0.0,0.0,0.0
19432381003861,0.20578274,8.853444,4.316652,0.0,0.0,0.0
19432383383132,0.18185452,8.834301,4.331009,0.0,0.0,0.0
19432385762351,0.16749759,8.863015,4.331009,0.0,0.0,0.0
19432388141570,0.11964113,8.848659,4.3262234,0.0,0.0,0.0
19432390520789,0.07178468,8.872586,4.369294,0.0,0.0,0.0
19432392900007,0.014356935,8.891729,4.3836513,0.0,0.0,0.0
19432395279226,-0.043070808,8.9108715,4.369294,0.0,0.0,0.0
19432397658445,-0.086141616,8.930014,4.369294,0.0,0.0,0.0
19432400037716,-0.16271193,8.939586,4.3501515,0.0,0.0,0.0
19432402416934,-0.23928227,8.963513,4.3501515,0.0,0.0,0.0
19432404796153,-0.32542387,8.973084,4.3501515,0.0,0.0,0.0
19432407175372,-0.38763726,8.992228,4.359723,0.0,0.0,0.0
19432409554591,-0.4546363,9.001799,4.359723,0.0,0.0,0.0
19432411933809,-0.4977071,8.997013,4.3357944,0.0,0.0,0.0
19432414313028,-0.5072784,8.987442,4.331009,0.0,0.0,0.0
19432416692247,-0.526421,8.977871,4.2975097,0.0,0.0,0.0
19432419071518,-0.5312066,8.9108715,4.287938,0.0,0.0,0.0
19432421450736,-0.5312066,8.891729,4.321438,0.0,0.0,0.0
19432423829955,-0.5072784,8.915657,4.3357944,0.0,0.0,0.0
19432426209174,-0.46899325,8.9013,4.369294,0.0,0.0,0.0
19432428588393,-0.4211368,8.896515,4.402794,0.0,0.0,0.0
19432430967664,-0.36370903,8.896515,4.402794,0.0,0.0,0.0
19432433346882,-0.31106696,8.925228,4.4315076,0.0,0.0,0.0
19432435726101,-0.23928227,8.9108715,4.4315076,0.0,0.0,0.0
19432438105320,-0.17228323,8.920443,4.388437,0.0,0.0,0.0
19432440484539,-0.11006984,8.949157,4.3645086,0.0,0.0,0.0
19432442863757,-0.062213387,8.963513,4.3357944,0.0,0.0,0.0
19432445242976,0.014356935,8.973084,4.3118663,0.0,0.0,0.0
19432447622195,0.05742774,8.973084,4.2687955,0.0,0.0,0.0
19432450001466,0.062213387,8.953942,4.249653,0.0,0.0,0.0
19432452380684,0.09571291,8.953942,4.254439,0.0,0.0,0.0
19432454759903,0.13399807,8.953942,4.240082,0.0,0.0,0.0
19432457139122,0.14356937,8.925228,4.240082,0.0,0.0,0.0
19432459518341,0.11485548,8.9108715,4.2687955,0.0,0.0,0.0
19432461897559,0.09092726,8.930014,4.2927237,0.0,0.0,0.0
19432464276778,0.1052842,8.925228,4.3357944,0.0,0.0,0.0
19432466656049,0.09092726,8.9013,4.354937,0.0,0.0,0.0
19432469035268,0.062213387,8.882157,4.3740797,0.0,0.0,0.0
19432471414486,0.05742774,8.853444,4.388437,0.0,0.0,0.0
19432473793705,0.0526421,8.886943,4.412365,0.0,0.0,0.0
19432476172924,0.0526421,8.877372,4.4075794,0.0,0.0,0.0
19432478552143,0.062213387,8.872586,4.421936,0.0,0.0,0.0
19432480931414,0.086141616,8.85823,4.421936,0.0,0.0,0.0
19432483310632,0.124426775,8.848659,4.421936,0.0,0.0,0.0
19432485689851,0.16271193,8.848659,4.4315076,0.0,0.0,0.0
19432488069070,0.19621146,8.85823,4.4315076,0.0,0.0,0.0
19432490448289,0.22971097,8.85823,4.4171505,0.0,0.0,0.0
19432492827507,0.29192436,8.863015,4.402794,0.0,0.0,0.0
19432495206726,0.36370903,8.848659,4.3836513,0.0,0.0,0.0
19432497585997,0.39720857,8.85823,4.388437,0.0,0.0,0.0
19432499965216,0.4211368,8.829515,4.3836513,0.0,0.0,0.0
19432502344434,0.47377887,8.839087,4.359723,0.0,0.0,0.0
19432504723653,0.4833502,8.848659,4.354937,0.0,0.0,0.0
19432507102872,0.4833502,8.839087,4.359723,0.0,0.0,0.0
19432509482091,0.4881358,8.819944,4.331009,0.0,0.0,0.0
19432511861309,0.44985065,8.796016,4.3357944,0.0,0.0,0.0
19432514240580,0.3924229,8.79123,4.3357944,0.0,0.0,0.0
19432516619799,0.33499518,8.829515,4.3357944,0.0,0.0,0.0
19432518999018,0.26799613,8.800801,4.3070807,0.0,0.0,0.0
19432521378236,0.19621146,8.805588,4.3262234,0.0,0.0,0.0
19432523757455,0.148355,8.805588,4.302295,0.0,0.0,0.0
19432526136674,0.086141616,8.800801,4.287938,0.0,0.0,0.0
19432528515893,0.009571291,8.796016,4.26401,0.0,0.0,0.0
19432530895164,-0.033499517,8.796016,4.278367,0.0,0.0,0.0
19432533274382,-0.062213387,8.839087,4.2687955,0.0,0.0,0.0
19432535653549,-0.06699903,8.829515,4.26401,0.0,0.0,0.0
19432538032820,-0.076570325,8.815159,4.254439,0.0,0.0,0.0
19432540412039,-0.086141616,8.815159,4.249653,0.0,0.0,0.0
19432542791257,-0.05742774,8.834301,4.254439,0.0,0.0,0.0
19432545170476,-0.038285162,8.839087,4.240082,0.0,0.0,0.0
19432547549747,0.0,8.848659,4.249653,0.0,0.0,0.0
19432549928966,0.02871387,8.853444,4.26401,0.0,0.0,0.0
19432552308184,0.086141616,8.829515,4.287938,0.0,0.0,0.0
19432554687403,0.12921242,8.843872,4.3118663,0.0,0.0,0.0
19432557066622,0.18664017,8.82473,4.3262234,0.0,0.0,0.0
19432559445841,0.21535404,8.853444,4.345366,0.0,0.0,0.0
19432561825059,0.22971097,8.877372,4.354937,0.0,0.0,0.0
19432564204330,0.24885355,8.85823,4.3788652,0.0,0.0,0.0
19432566583549,0.24885355,8.863015,4.3740797,0.0,0.0,0.0
19432568962768,0.2440679,8.85823,4.3788652,0.0,0.0,0.0
19432571341986,0.21535404,8.872586,4.3740797,0.0,0.0,0.0
19432573721205,0.18664017,8.891729,4.388437,0.0,0.0,0.0
19432576100424,0.15792629,8.882157,4.3932223,0.0,0.0,0.0
19432578479643,0.12921242,8.867801,4.398008,0.0,0.0,0.0
19432580858914,0.07178468,8.872586,4.398008,0.0,0.0,0.0
19432583238132,0.023928227,8.877372,4.4171505,0.0,0.0,0.0
19432585617351,-0.009571291,8.877372,4.421936,0.0,0.0,0.0
19432587996570,-0.06699903,8.886943,4.426722,0.0,0.0,0.0
19432590375789,-0.07178468,8.920443,4.426722,0.0,0.0,0.0
19432592755007,-0.08135597,8.9013,4.4315076,0.0,0.0,0.0
19432595134226,-0.08135597,8.896515,4.4315076,0.0,0.0,0.0
19432597513497,-0.07178468,8.886943,4.4458647,0.0,0.0,0.0
19432599892716,-0.05742774,8.9013,4.421936,0.0,0.0,0.0
19432602271934,-0.038285162,8.906086,4.426722,0.0,0.0,0.0
19432604651153,0.02871387,8.896515,4.4315076,0.0,0.0,0.0
19432607030372,0.07178468,8.896515,4.4075794,0.0,0.0,0.0
19432609409591,0.11964113,8.930014,4.402794,0.0,0.0,0.0
19432611788809,0.16271193,8.915657,4.3788652,0.0,0.0,0.0
19432614168080,0.17706887,8.920443,4.3836513,0.0,0.0,0.0
19432616547299,0.2440679,8.9348,4.354937,0.0,0.0,0.0
19432618926518,0.2632105,8.891729,4.354937,0.0,0.0,0.0
19432621305736,0.26799613,8.886943,4.3501515,0.0,0.0,0.0
19432623684955,0.27756742,8.863015,4.3501515,0.0,0.0,0.0
19432626064174,0.2632105,8.867801,4.3501515,0.0,0.0,0.0
19432628443393,0.22971097,8.872586,4.3357944,0.0,0.0,0.0
19432630822664,0.22492532,8.872586,4.3262234,0.0,0.0,0.0
19432633201882,0.18185452,8.872586,4.331009,0.0,0.0,0.0
19432635581101,0.14356937,8.863015,4.3405805,0.0,0.0,0.0
19432637960320,0.1052842,8.891729,4.354937,0.0,0.0,0.0
19432640339539,0.05742774,8.886943,4.359723,0.0,0.0,0.0
19432642718757,0.023928227,8.896515,4.3645086,0.0,0.0,0.0
19432645097976,0.0,8.896515,4.359723,0.0,0.0,0.0
19432647477195,-0.009571291,8.920443,4.3788652,0.0,0.0,0.0
19432649856466,0.009571291,8.9348,4.3501515,0.0,0.0,0.0
19432652235684,0.02871387,8.958728,4.331009,0.0,0.0,0.0
19432654614903,0.02871387,8.953942,4.331009,0.0,0.0,0.0
19432656994122,0.07178468,8.958728,4.302295,0.0,0.0,0.0
19432659373341,0.1052842,8.949157,4.2831526,0.0,0.0,0.0
19432661752559,0.148355,8.920443,4.2687955,0.0,0.0,0.0
19432664131778,0.19142582,8.872586,4.26401,0.0,0.0,0.0
19432666511049,0.23449662,8.872586,4.254439,0.0,0.0,0.0
19432668890216,0.26799613,8.867801,4.26401,0.0,0.0,0.0
19432671269486,0.2727818,8.843872,4.254439,0.0,0.0,0.0
19432673648705,0.28713873,8.834301,4.278367,0.0,0.0,0.0
19432676027924,0.29671,8.805588,4.2831526,0.0,0.0,0.0
19432678407143,0.28713873,8.810373,4.2831526,0.0,0.0,0.0
19432680786361,0.25842485,8.796016,4.2831526,0.0,0.0,0.0
19432683165632,0.22492532,8.810373,4.2975097,0.0,0.0,0.0
19432685544851,0.19621146,8.79123,4.287938,0.0,0.0,0.0
19432687924070,0.13878371,8.82473,4.278367,0.0,0.0,0.0
19432690303289,0.06699903,8.853444,4.273581,0.0,0.0,0.0
19432692682507,0.014356935,8.848659,4.287938,0.0,0.0,0.0
19432695061726,-0.062213387,8.85823,4.287938,0.0,0.0,0.0
19432697440945,-0.14356937,8.891729,4.287938,0.0,0.0,0.0
19432699820216,-0.18185452,8.886943,4.287938,0.0,0.0,0.0
19432702199382,-0.22971097,8.9013,4.302295,0.0,0.0,0.0
19432704578653,-0.2440679,8.882157,4.321438,0.0,0.0,0.0
19432706957872,-0.26799613,8.872586,4.331009,0.0,0.0,0.0
19432709337091,-0.25842485,8.882157,4.3405805,0.0,0.0,0.0
19432711716309,-0.23928227,8.863015,4.331009,0.0,0.0,0.0
19432714095528,-0.20578274,8.872586,4.3262234,0.0,0.0,0.0
19432716474747,-0.16271193,8.877372,4.3405805,0.0,0.0,0.0
19432718854018,-0.13399807,8.85823,4.369294,0.0,0.0,0.0
19432721233236,-0.09571291,8.85823,4.3740797,0.0,0.0,0.0
19432723612455,-0.06699903,8.848659,4.359723,0.0,0.0,0.0
19432725991674,-0.014356935,8.839087,4.359723,0.0,0.0,0.0
19432728370893,0.014356935,8.848659,4.345366,0.0,0.0,0.0
19432730750111,0.043070808,8.848659,4.345366,0.0,0.0,0.0
19432733129278,0.06699903,8.853444,4.3405805,0.0,0.0,0.0
19432735508601,0.062213387,8.843872,4.3501515,0.0,0.0,0.0
19432737887820,0.038285162,8.863015,4.3357944,0.0,0.0,0.0
19432740267039,0.02871387,8.85823,4.316652,0.0,0.0,0.0
19432742646257,0.0,8.863015,4.3118663,0.0,0.0,0.0
19432745025476,-0.043070808,8.863015,4.302295,0.0,0.0,0.0
19432747404695,-0.1052842,8.877372,4.2975097,0.0,0.0,0.0
19432749783914,-0.15314065,8.891729,4.2975097,0.0,0.0,0.0
19432752163132,-0.20578274,8.886943,4.287938,0.0,0.0,0.0
19432754542403,-0.2536392,8.886943,4.302295,0.0,0.0,0.0
19432756921622,-0.2632105,8.877372,4.2927237,0.0,0.0,0.0
19432759300841,-0.28235307,8.891729,4.3118663,0.0,0.0,0.0
19432761680059,-0.2727818,8.896515,4.302295,0.0,0.0,0.0
19432764059278,-0.26799613,8.891729,4.287938,0.0,0.0,0.0
19432766438497,-0.24885355,8.877372,4.2831526,0.0,0.0,0.0
19432768817716,-0.22492532,8.872586,4.278367,0.0,0.0,0.0
19432771196986,-0.18664017,8.853444,4.302295,0.0,0.0,0.0
19432773576205,-0.13399807,8.839087,4.321438,0.0,0.0,0.0
19432775955424,-0.086141616,8.853444,4.3262234,0.0,0.0,0.0
19432778334747,-0.02871387,8.853444,4.3118663,0.0,0.0,0.0
19432780713861,0.019142581,8.867801,4.316652,0.0,0.0,0.0
19432783093080,0.062213387,8.867801,4.3118663,0.0,0.0,0.0
19432785472299,0.10049855,8.867801,4.331009,0.0,0.0,0.0
19432787851570,0.148355,8.848659,4.3357944,0.0,0.0,0.0
19432790230789,0.19621146,8.863015,4.3405805,0.0,0.0,0.0
19432792610007,0.18664017,8.867801,4.3357944,0.0,0.0,0.0
19432794989226,0.18185452,8.877372,4.3501515,0.0,0.0,0.0
19432797368445,0.17706887,8.886943,4.359723,0.0,0.0,0.0
19432799747664,0.15792629,8.896515,4.359723,0.0,0.0,0.0
19432802126882,0.11006984,8.882157,4.3740797,0.0,0.0,0.0
19432804506153,0.06699903,8.877372,4.388437,0.0,0.0,0.0
19432806885372,0.02871387,8.867801,4.398008,0.0,0.0,0.0
19432809264591,0.014356935,8.896515,4.412365,0.0,0.0,0.0
19432811643809,-0.009571291,8.882157,4.412365,0.0,0.0,0.0
19432814023028,-0.047856454,8.891729,4.4315076,0.0,0.0,0.0
19432816402247,-0.047856454,8.891729,4.421936,0.0,0.0,0.0
19432818781466,-0.086141616,8.9013,4.402794,0.0,0.0,0.0
19432821160684,-0.09571291,8.915657,4.4075794,0.0,0.0,0.0
19432823539955,-0.09571291,8.915657,4.4075794,0.0,0.0,0.0
19432825919174,-0.09092726,8.896515,4.398008,0.0,0.0,0.0
19432828298393,-0.09571291,8.9108715,4.398008,0.0,0.0,0.0
19432830677611,-0.086141616,8.891729,4.3836513,0.0,0.0,0.0
19432833056830,-0.06699903,8.891729,4.3836513,0.0,0.0,0.0
19432835436049,-0.07178468,8.882157,4.3788652,0.0,0.0,0.0
19432837815268,-0.0526421,8.882157,4.369294,0.0,0.0,0.0
19432840194539,-0.05742774,8.872586,4.3645086,0.0,0.0,0.0
19432842573757,-0.038285162,8.891729,4.345366,0.0,0.0,0.0
19432844952976,-0.038285162,8.891729,4.3262234,0.0,0.0,0.0
19432847332195,-0.062213387,8.882157,4.3405805,0.0,0.0,0.0
19432849711414,-0.07178468,8.872586,4.3262234,0.0,0.0,0.0
19432852090632,-0.08135597,8.872586,4.3070807,0.0,0.0,0.0
19432854469851,-0.09571291,8.85823,4.3070807,0.0,0.0,0.0
19432856849070,-0.12921242,8.867801,4.3070807,0.0,0.0,0.0
19432859228341,-0.15314065,8.882157,4.2927237,0.0,0.0,0.0
19432861607559,-0.18664017,8.863015,4.302295,0.0,0.0,0.0
19432863986778,-0.2009971,8.863015,4.316652,0.0,0.0,0.0
19432866365997,-0.24885355,8.877372,4.331009,0.0,0.0,0.0
19432868745216,-0.25842485,8.886943,4.3405805,0.0,0.0,0.0
19432871124434,-0.25842485,8.886943,4.3645086,0.0,0.0,0.0
19432873503653,-0.2727818,8.872586,4.369294,0.0,0.0,0.0
19432875882872,-0.27756742,8.877372,4.3405805,0.0,0.0,0.0
19432878262143,-0.28235307,8.863015,4.359723,0.0,0.0,0.0
19432880641361,-0.29192436,8.848659,4.359723,0.0,0.0,0.0
19432883020580,-0.2727818,8.867801,4.3645086,0.0,0.0,0.0
19432885399799,-0.2536392,8.85823,4.3645086,0.0,0.0,0.0
19432887779018,-0.21535404,8.843872,4.359723,0.0,0.0,0.0
19432890158236,-0.18185452,8.843872,4.354937,0.0,0.0,0.0
19432892537507,-0.15792629,8.829515,4.3405805,0.0,0.0,0.0
19432894916726,-0.16271193,8.810373,4.3357944,0.0,0.0,0.0
19432897295945,-0.15314065,8.819944,4.3405805,0.0,0.0,0.0
19432899675164,-0.12921242,8.805588,4.3501515,0.0,0.0,0.0
19432902054382,-0.09092726,8.815159,4.354937,0.0,0.0,0.0
19432904433601,-0.076570325,8.805588,4.3501515,0.0,0.0,0.0
19432906812820,-0.062213387,8.829515,4.354937,0.0,0.0,0.0
19432909192039,-0.05742774,8.829515,4.3405805,0.0,0.0,0.0
19432911571309,-0.0526421,8.829515,4.331009,0.0,0.0,0.0
19432913950528,-0.05742774,8.843872,4.345366,0.0,0.0,0.0
19432916329747,-0.062213387,8.819944,4.345366,0.0,0.0,0.0
19432918708966,-0.076570325,8.829515,4.331009,0.0,0.0,0.0
19432921088184,-0.09092726,8.839087,4.3405805,0.0,0.0,0.0
19432923467403,-0.11485548,8.848659,4.3357944,0.0,0.0,0.0
19432925846622,-0.13878371,8.85823,4.3262234,0.0,0.0,0.0
19432928225841,-0.17228323,8.877372,4.331009,0.0,0.0,0.0
19432930605059,-0.17706887,8.839087,4.3357944,0.0,0.0,0.0
19432932984330,-0.19621146,8.863015,4.345366,0.0,0.0,0.0
19432935363549,-0.2105684,8.85823,4.331009,0.0,0.0,0.0
19432937742768,-0.22971097,8.85823,4.3262234,0.0,0.0,0.0
19432940121986,-0.23449662,8.877372,4.331009,0.0,0.0,0.0
19432942501205,-0.2440679,8.886943,4.3405805,0.0,0.0,0.0
19432944880424,-0.21535404,8.886943,4.3262234,0.0,0.0,0.0
19432947259695,-0.2440679,8.896515,4.321438,0.0,0.0,0.0
19432949638914,-0.21535404,8.891729,4.3262234,0.0,0.0,0.0
19432952018132,-0.20578274,8.896515,4.321438,0.0,0.0,0.0
19432954397351,-0.20578274,8.891729,4.3405805,0.0,0.0,0.0
19432956776570,-0.19142582,8.877372,4.345366,0.0,0.0,0.0
19432959155789,-0.17706887,8.867801,4.331009,0.0,0.0,0.0
19432961535007,-0.18185452,8.882157,4.3405805,0.0,0.0,0.0
19432963914226,-0.18185452,8.877372,4.331009,0.0,0.0,0.0
19432966293497,-0.19142582,8.9013,4.3357944,0.0,0.0,0.0
19432968672716,-0.20578274,8.891729,4.3405805,0.0,0.0,0.0
19432971051934,-0.2009971,8.882157,4.3501515,0.0,0.0,0.0
19432973431153,-0.21535404,8.872586,4.3501515,0.0,0.0,0.0
19432975810372,-0.23449662,8.886943,4.359723,0.0,0.0,0.0
19432978189591,-0.2440679,8.915657,4.354937,0.0,0.0,0.0
19432980568809,-0.2440679,8.9108715,4.359723,0.0,0.0,0.0
19432982948028,-0.26799613,8.9348,4.3788652,0.0,0.0,0.0
19432985327299,-0.26799613,8.9108715,4.3788652,0.0,0.0,0.0
19432987706518,-0.2632105,8.896515,4.3836513,0.0,0.0,0.0
19432990085736,-0.2536392,8.882157,4.388437,0.0,0.0,0.0
19432992464955,-0.23928227,8.872586,4.402794,0.0,0.0,0.0
19432994844174,-0.23449662,8.872586,4.3836513,0.0,0.0,0.0
19432997223393,-0.22492532,8.877372,4.388437,0.0,0.0,0.0
19432999602611,-0.21535404,8.872586,4.388437,0.0,0.0,0.0
19433001981882,-0.18185452,8.839087,4.369294,0.0,0.0,0.0
19433004361101,-0.148355,8.843872,4.3740797,0.0,0.0,0.0
19433006740320,-0.13878371,8.839087,4.3645086,0.0,0.0,0.0
19433009119539,-0.09571291,8.848659,4.359723,0.0,0.0,0.0
19433011498757,-0.09571291,8.839087,4.3740797,0.0,0.0,0.0
19433013877976,-0.086141616,8.843872,4.3740797,0.0,0.0,0.0
19433016257195,-0.076570325,8.834301,4.3501515,0.0,0.0,0.0
19433018636414,-0.07178468,8.819944,4.331009,0.0,0.0,0.0
19433021015632,-0.11006984,8.843872,4.345366,0.0,0.0,0.0
19433023394903,-0.1052842,8.829515,4.3357944,0.0,0.0,0.0
19433025774122,-0.11964113,8.829515,4.3357944,0.0,0.0,0.0
19433028153341,-0.148355,8.85823,4.3262234,0.0,0.0,0.0
19433030532559,-0.16271193,8.863015,4.3118663,0.0,0.0,0.0
19433032911778,-0.16749759,8.863015,4.287938,0.0,0.0,0.0
19433035290997,-0.20578274,8.863015,4.273581,0.0,0.0,0.0
19433037670216,-0.21535404,8.872586,4.2831526,0.0,0.0,0.0
19433040049486,-0.23928227,8.853444,4.2687955,0.0,0.0,0.0
19433042428705,-0.25842485,8.853444,4.2975097,0.0,0.0,0.0
19433044807924,-0.27756742,8.853444,4.321438,0.0,0.0,0.0
19433047187143,-0.26799613,8.834301,4.316652,0.0,0.0,0.0
19433049566361,-0.27756742,8.834301,4.321438,0.0,0.0,0.0
19433051945580,-0.26799613,8.839087,4.3501515,0.0,0.0,0.0
19433054324799,-0.29192436,8.853444,4.3501515,0.0,0.0,0.0
19433056704018,-0.27756742,8.848659,4.3357944,0.0,0.0,0.0
19433059083289,-0.2727818,8.853444,4.369294,0.0,0.0,0.0
19433061462507,-0.23449662,8.85823,4.3645086,0.0,0.0,0.0
19433063841726,-0.2105684,8.882157,4.3645086,0.0,0.0,0.0
19433066220945,-0.23449662,8.886943,4.354937,0.0,0.0,0.0
19433068600164,-0.22971097,8.896515,4.354937,0.0,0.0,0.0
19433070979382,-0.2105684,8.906086,4.3501515,0.0,0.0,0.0
19433073358601,-0.21535404,8.896515,4.3405805,0.0,0.0,0.0
19433075737820,-0.22013968,8.882157,4.354937,0.0,0.0,0.0
19433078117091,-0.22492532,8.9013,4.369294,0.0,0.0,0.0
19433080496309,-0.22013968,8.9108715,4.3740797,0.0,0.0,0.0
19433082875528,-0.2440679,8.9013,4.369294,0.0,0.0,0.0
19433085254695,-0.2536392,8.882157,4.3788652,0.0,0.0,0.0
19433087633966,-0.2632105,8.886943,4.388437,0.0,0.0,0.0
19433090013184,-0.28235307,8.85823,4.402794,0.0,0.0,0.0
19433092392403,-0.27756742,8.853444,4.4075794,0.0,0.0,0.0
19433094771518,-0.29192436,8.863015,4.402794,0.0,0.0,0.0
19433097150893,-0.28713873,8.843872,4.412365,0.0,0.0,0.0
19433099530111,-0.30149564,8.834301,4.3740797,0.0,0.0,0.0
19433101909330,-0.29671,8.863015,4.3645086,0.0,0.0,0.0
19433104288549,-0.28713873,8.863015,4.369294,0.0,0.0,0.0
19433106667768,-0.27756742,8.85823,4.3645086,0.0,0.0,0.0
19433109046986,-0.26799613,8.867801,4.359723,0.0,0.0,0.0
19433111426205,-0.2727818,8.863015,4.354937,0.0,0.0,0.0
19433113805476,-0.26799613,8.839087,4.3357944,0.0,0.0,0.0
19433116184695,-0.29671,8.843872,4.331009,0.0,0.0,0.0
19433118563914,-0.31106696,8.839087,4.3357944,0.0,0.0,0.0
19433120943080,-0.3062813,8.819944,4.321438,0.0,0.0,0.0
19433123322351,-0.3062813,8.867801,4.321438,0.0,0.0,0.0
19433125701570,-0.31585258,8.867801,4.316652,0.0,0.0,0.0
19433128080789,-0.35413775,8.882157,4.302295,0.0,0.0,0.0
19433130460007,-0.35413775,8.872586,4.316652,0.0,0.0,0.0
19433132839226,-0.35413775,8.891729,4.287938,0.0,0.0,0.0
19433135218445,-0.36370903,8.867801,4.2831526,0.0,0.0,0.0
19433137597716,-0.3924229,8.843872,4.278367,0.0,0.0,0.0
19433139976934,-0.39720857,8.872586,4.287938,0.0,0.0,0.0
19433142356153,-0.3924229,8.872586,4.287938,0.0,0.0,0.0
19433144735372,-0.4211368,8.872586,4.2927237,0.0,0.0,0.0
19433147114591,-0.43070808,8.85823,4.2927237,0.0,0.0,0.0
19433149493809,-0.44985065,8.853444,4.302295,0.0,0.0,0.0
19433151873028,-0.44506502,8.85823,4.302295,0.0,0.0,0.0
19433154252299,-0.44506502,8.843872,4.287938,0.0,0.0,0.0
19433156631518,-0.43070808,8.839087,4.2975097,0.0,0.0,0.0
19433159010736,-0.43070808,8.85823,4.3262234,0.0,0.0,0.0
19433161389955,-0.40677986,8.853444,4.354937,0.0,0.0,0.0
19433163769174,-0.4019942,8.85823,4.354937,0.0,0.0,0.0
19433166148393,-0.40677986,8.863015,4.354937,0.0,0.0,0.0
19433168527611,-0.37328035,8.834301,4.359723,0.0,0.0,0.0
19433170906830,-0.35413775,8.839087,4.359723,0.0,0.0,0.0
19433173286101,-0.32063824,8.829515,4.3501515,0.0,0.0,0.0
19433175665320,-0.29192436,8.819944,4.345366,0.0,0.0,0.0
19433178044539,-0.28235307,8.848659,4.369294,0.0,0.0,0.0
19433180423757,-0.2632105,8.867801,4.3788652,0.0,0.0,0.0
19433182802976,-0.23928227,8.839087,4.369294,0.0,0.0,0.0
19433185182195,-0.20578274,8.839087,4.3501515,0.0,0.0,0.0
19433187561414,-0.21535404,8.853444,4.3501515,0.0,0.0,0.0
19433189940684,-0.20578274,8.886943,4.354937,0.0,0.0,0.0
19433192319903,-0.20578274,8.867801,4.359723,0.0,0.0,0.0
19433194699122,-0.22013968,8.848659,4.3645086,0.0,0.0,0.0
19433197078341,-0.22492532,8.848659,4.3788652,0.0,0.0,0.0
19433199457507,-0.2440679,8.886943,4.3788652,0.0,0.0,0.0
19433201836778,-0.2440679,8.882157,4.3836513,0.0,0.0,0.0
19433204215997,-0.26799613,8.886943,4.3740797,0.0,0.0,0.0
19433206595216,-0.3062813,8.882157,4.3788652,0.0,0.0,0.0
19433208974486,-0.32063824,8.863015,4.3788652,0.0,0.0,0.0
19433211353705,-0.3397808,8.863015,4.398008,0.0,0.0,0.0
19433213732924,-0.3589234,8.85823,4.4171505,0.0,0.0,0.0
19433216112143,-0.37806597,8.85823,4.3932223,0.0,0.0,0.0
19433218491361,-0.38285163,8.863015,4.3836513,0.0,0.0,0.0
19433220870580,-0.3684947,8.877372,4.3836513,0.0,0.0,0.0
19433223249799,-0.33499518,8.891729,4.369294,0.0,0.0,0.0
19433225628966,-0.33499518,8.891729,4.3405805,0.0,0.0,0.0
19433228008236,-0.29192436,8.9013,4.3357944,0.0,0.0,0.0
19433230387507,-0.2536392,8.906086,4.3357944,0.0,0.0,0.0
19433232766726,-0.2105684,8.886943,4.345366,0.0,0.0,0.0
19433235145893,-0.18664017,8.886943,4.3262234,0.0,0.0,0.0
19433237525164,-0.16271193,8.886943,4.3357944,0.0,0.0,0.0
19433239904382,-0.1052842,8.882157,4.3405805,0.0,0.0,0.0
19433242283601,-0.1052842,8.896515,4.3357944,0.0,0.0,0.0
19433244662820,-0.076570325,8.886943,4.3357944,0.0,0.0,0.0
19433247041986,-0.047856454,8.867801,4.321438,0.0,0.0,0.0
19433249421309,-0.043070808,8.867801,4.331009,0.0,0.0,0.0
19433251800528,-0.062213387,8.896515,4.331009,0.0,0.0,0.0
19433254179747,-0.0526421,8.882157,4.331009,0.0,0.0,0.0
19433256558966,-0.09571291,8.867801,4.3405805,0.0,0.0,0.0
19433258938184,-0.13399807,8.85823,4.3357944,0.0,0.0,0.0
19433261317403,-0.18185452,8.872586,4.3262234,0.0,0.0,0.0
19433263696622,-0.22492532,8.882157,4.316652,0.0,0.0,0.0
19433266075789,-0.24885355,8.886943,4.3118663,0.0,0.0,0.0
19433268455111,-0.27756742,8.872586,4.3070807,0.0,0.0,0.0
19433270834330,-0.32063824,8.863015,4.302295,0.0,0.0,0.0
19433273213549,-0.34456646,8.85823,4.3070807,0.0,0.0,0.0
19433275592768,-0.36370903,8.863015,4.3070807,0.0,0.0,0.0
19433277971986,-0.37328035,8.886943,4.3118663,0.0,0.0,0.0
19433280351205,-0.37328035,8.877372,4.3118663,0.0,0.0,0.0
19433282730424,-0.37806597,8.882157,4.3118663,0.0,0.0,0.0
19433285109643,-0.33020952,8.891729,4.3262234,0.0,0.0,0.0
19433287488914,-0.31585258,8.891729,4.3405805,0.0,0.0,0.0
19433289868132,-0.26799613,8.891729,4.345366,0.0,0.0,0.0
19433292247351,-0.22492532,8.853444,4.345366,0.0,0.0,0.0
19433294626570,-0.19142582,8.85823,4.345366,0.0,0.0,0.0
19433297005789,-0.19142582,8.863015,4.3501515,0.0,0.0,0.0
19433299385007,-0.148355,8.839087,4.3405805,0.0,0.0,0.0
19433301764226,-0.13878371,8.839087,4.3357944,0.0,0.0,0.0
19433304143445,-0.11964113,8.853444,4.3357944,0.0,0.0,0.0
19433306522716,-0.10049855,8.85823,4.354937,0.0,0.0,0.0
19433308901934,-0.10049855,8.863015,4.3645086,0.0,0.0,0.0
19433311281153,-0.09092726,8.848659,4.3645086,0.0,0.0,0.0
19433313660372,-0.11006984,8.867801,4.359723,0.0,0.0,0.0
19433316039591,-0.16749759,8.85823,4.359723,0.0,0.0,0.0
19433318418809,-0.18664017,8.863015,4.3740797,0.0,0.0,0.0
19433320798028,-0.2009971,8.85823,4.369294,0.0,0.0,0.0
19433323177247,-0.21535404,8.839087,4.369294,0.0,0.0,0.0
19433325556466,-0.2727818,8.834301,4.359723,0.0,0.0,0.0
19433327935736,-0.28713873,8.867801,4.3788652,0.0,0.0,0.0
19433330314955,-0.32542387,8.9013,4.3788652,0.0,0.0,0.0
19433332694174,-0.36370903,8.882157,4.3740797,0.0,0.0,0.0
19433335073341,-0.4019942,8.85823,4.369294,0.0,0.0,0.0
19433337452611,-0.38763726,8.853444,4.3645086,0.0,0.0,0.0
19433339831830,-0.38285163,8.863015,4.3788652,0.0,0.0,0.0
19433342211049,-0.39720857,8.863015,4.359723,0.0,0.0,0.0
19433344590268,-0.37328035,8.863015,4.359723,0.0,0.0,0.0
19433346969539,-0.37328035,8.853444,4.369294,0.0,0.0,0.0
19433349348757,-0.37328035,8.863015,4.3501515,0.0,0.0,0.0
19433351727976,-0.3684947,8.867801,4.3405805,0.0,0.0,0.0
19433354107195,-0.35413775,8.872586,4.331009,0.0,0.0,0.0
19433356486414,-0.3062813,8.863015,4.3357944,0.0,0.0,0.0
19433358865580,-0.28713873,8.85823,4.331009,0.0,0.0,0.0
19433361244851,-0.2727818,8.877372,4.3405805,0.0,0.0,0.0
19433363624070,-0.26799613,8.867801,4.345366,0.0,0.0,0.0
19433366003289,-0.23928227,8.848659,4.331009,0.0,0.0,0.0
19433368382559,-0.24885355,8.863015,4.3405805,0.0,0.0,0.0
19433370761778,-0.24885355,8.882157,4.321438,0.0,0.0,0.0
19433373140997,-0.26799613,8.882157,4.331009,0.0,0.0,0.0
19433375520216,-0.28235307,8.882157,4.3405805,0.0,0.0,0.0
19433377899434,-0.29671,8.872586,4.354937,0.0,0.0,0.0
19433380278653,-0.28713873,8.872586,4.359723,0.0,0.0,0.0
19433382657872,-0.30149564,8.848659,4.3357944,0.0,0.0,0.0
19433385037091,-0.29671,8.834301,4.316652,0.0,0.0,0.0
19433387416361,-0.3062813,8.85823,4.3262234,0.0,0.0,0.0
19433389795580,-0.33499518,8.843872,4.316652,0.0,0.0,0.0
19433392174799,-0.33020952,8.853444,4.3262234,0.0,0.0,0.0
19433394554018,-0.30149564,8.867801,4.3405805,0.0,0.0,0.0
19433396933236,-0.27756742,8.886943,4.3501515,0.0,0.0,0.0
19433399312455,-0.28235307,8.85823,4.3405805,0.0,0.0,0.0
19433401691674,-0.2632105,8.867801,4.345366,0.0,0.0,0.0
19433404070893,-0.2632105,8.877372,4.354937,0.0,0.0,0.0
19433406450164,-0.25842485,8.85823,4.3501515,0.0,0.0,0.0
19433408829330,-0.23449662,8.843872,4.345366,0.0,0.0,0.0
19433411208601,-0.22971097,8.85823,4.3501515,0.0,0.0,0.0
19433413587820,-0.22971097,8.877372,4.354937,0.0,0.0,0.0
19433415967039,-0.21535404,8.853444,4.359723,0.0,0.0,0.0
19433418346257,-0.22013968,8.85823,4.359723,0.0,0.0,0.0
19433420725476,-0.22492532,8.853444,4.3645086,0.0,0.0,0.0
19433423104695,-0.2009971,8.839087,4.3645086,0.0,0.0,0.0
19433425483914,-0.20578274,8.848659,4.359723,0.0,0.0,0.0
19433427863184,-0.23449662,8.848659,4.3501515,0.0,0.0,0.0
19433430242403,-0.19621146,8.829515,4.3262234,0.0,0.0,0.0
19433432621622,-0.19621146,8.843872,4.3357944,0.0,0.0,0.0
19433435000841,-0.19142582,8.839087,4.345366,0.0,0.0,0.0
19433437380059,-0.19142582,8.848659,4.354937,0.0,0.0,0.0
19433439759278,-0.19621146,8.848659,4.359723,0.0,0.0,0.0
19433442138497,-0.17706887,8.863015,4.369294,0.0,0.0,0.0
19433444517716,-0.18664017,8.853444,4.359723,0.0,0.0,0.0
19433446896986,-0.19142582,8.853444,4.3645086,0.0,0.0,0.0
19433449276205,-0.18185452,8.867801,4.3501515,0.0,0.0,0.0
19433451655424,-0.16749759,8.85823,4.3357944,0.0,0.0,0.0
19433454034643,-0.148355,8.863015,4.3357944,0.0,0.0,0.0
19433456413861,-0.16749759,8.896515,4.3262234,0.0,0.0,0.0
19433458793080,-0.18185452,8.85823,4.316652,0.0,0.0,0.0
19433461172299,-0.16271193,8.848659,4.331009,0.0,0.0,0.0
19433463551518,-0.15314065,8.848659,4.3262234,0.0,0.0,0.0
19433465930736,-0.18664017,8.829515,4.3262234,0.0,0.0,0.0
19433468310007,-0.19142582,8.843872,4.3070807,0.0,0.0,0.0
19433470689226,-0.2105684,8.848659,4.2975097,0.0,0.0,0.0
19433473068445,-0.2105684,8.867801,4.3262234,0.0,0.0,0.0
19433475447664,-0.21535404,8.863015,4.302295,0.0,0.0,0.0
19433477826882,-0.18664017,8.896515,4.3070807,0.0,0.0,0.0
19433480206101,-0.15314065,8.877372,4.2975097,0.0,0.0,0.0
19433482585320,-0.17706887,8.906086,4.302295,0.0,0.0,0.0
19433484964539,-0.18185452,8.906086,4.3118663,0.0,0.0,0.0
19433487343809,-0.17706887,8.915657,4.3262234,0.0,0.0,0.0
19433489723028,-0.16271193,8.920443,4.3357944,0.0,0.0,0.0
19433492102247,-0.148355,8.9013,4.354937,0.0,0.0,0.0
19433494481466,-0.13399807,8.891729,4.345366,0.0,0.0,0.0
19433496860684,-0.11485548,8.896515,4.345366,0.0,0.0,0.0
19433499239903,-0.09092726,8.872586,4.369294,0.0,0.0,0.0
19433501619122,-0.10049855,8.867801,4.354937,0.0,0.0,0.0
19433503998341,-0.10049855,8.867801,4.345366,0.0,0.0,0.0
19433506377559,-0.076570325,8.867801,4.345366,0.0,0.0,0.0
19433508756778,-0.038285162,8.867801,4.354937,0.0,0.0,0.0
19433511136049,-0.047856454,8.85823,4.369294,0.0,0.0,0.0
19433513515268,-0.033499517,8.829515,4.3645086,0.0,0.0,0.0
19433515894486,-0.047856454,8.839087,4.3645086,0.0,0.0,0.0
19433518273653,-0.05742774,8.82473,4.3645086,0.0,0.0,0.0
19433520652924,-0.033499517,8.819944,4.369294,0.0,0.0,0.0
19433523032143,-0.023928227,8.853444,4.3740797,0.0,0.0,0.0
19433525411361,-0.033499517,8.829515,4.369294,0.0,0.0,0.0
19433527790528,-0.062213387,8.848659,4.3645086,0.0,0.0,0.0
19433530169851,-0.09571291,8.848659,4.3501515,0.0,0.0,0.0
19433532549070,-0.09092726,8.85823,4.3405805,0.0,0.0,0.0
19433534928289,-0.086141616,8.863015,4.331009,0.0,0.0,0.0
19433537307507,-0.10049855,8.848659,4.3262234,0.0,0.0,0.0
19433539686726,-0.11485548,8.834301,4.3405805,0.0,0.0,0.0
19433542065945,-0.11964113,8.82473,4.331009,0.0,0.0,0.0
19433544445164,-0.13399807,8.843872,4.345366,0.0,0.0,0.0
19433546824382,-0.148355,8.872586,4.3262234,0.0,0.0,0.0
19433549203653,-0.148355,8.863015,4.3357944,0.0,0.0,0.0
19433551582872,-0.15792629,8.867801,4.3405805,0.0,0.0,0.0
19433553962091,-0.13399807,8.867801,4.3405805,0.0,0.0,0.0
19433556341309,-0.11964113,8.872586,4.3501515,0.0,0.0,0.0
19433558720528,-0.11964113,8.85823,4.3501515,0.0,0.0,0.0
19433561099747,-0.1052842,8.85823,4.3501515,0.0,0.0,0.0
19433563478966,-0.09571291,8.863015,4.354937,0.0,0.0,0.0
19433565858184,-0.08135597,8.843872,4.3645086,0.0,0.0,0.0
19433568237403,-0.08135597,8.853444,4.3740797,0.0,0.0,0.0
19433570616674,-0.05742774,8.848659,4.354937,0.0,0.0,0.0
19433572995893,-0.038285162,8.834301,4.3501515,0.0,0.0,0.0
19433575375111,-0.033499517,8.82473,4.3405805,0.0,0.0,0.0
19433577754278,-0.05742774,8.829515,4.331009,0.0,0.0,0.0
19433580133549,-0.08135597,8.85823,4.331009,0.0,0.0,0.0
19433582512768,-0.09571291,8.872586,4.3405805,0.0,0.0,0.0
19433584891986,-0.1052842,8.882157,4.3405805,0.0,0.0,0.0
19433587271205,-0.148355,8.877372,4.3405805,0.0,0.0,0.0
19433589650424,-0.19621146,8.867801,4.3262234,0.0,0.0,0.0
19433592029695,-0.22971097,8.877372,4.331009,0.0,0.0,0.0
19433594408914,-0.24885355,8.9013,4.316652,0.0,0.0,0.0
19433596788132,-0.28713873,8.891729,4.3070807,0.0,0.0,0.0
19433599167351,-0.32063824,8.915657,4.3070807,0.0,0.0,0.0
19433601546570,-0.35413775,8.930014,4.3118663,0.0,0.0,0.0
19433603925789,-0.36370903,8.915657,4.316652,0.0,0.0,0.0
19433606305007,-0.37328035,8.9013,4.3118663,0.0,0.0,0.0
19433608684226,-0.36370903,8.915657,4.3118663,0.0,0.0,0.0
19433611063445,-0.3684947,8.9108715,4.316652,0.0,0.0,0.0
19433613442716,-0.35413775,8.9013,4.3262234,0.0,0.0,0.0
19433615821934,-0.33499518,8.906086,4.316652,0.0,0.0,0.0
19433618201153,-0.31106696,8.896515,4.3262234,0.0,0.0,0.0
19433620580372,-0.2632105,8.886943,4.3405805,0.0,0.0,0.0
19433622959591,-0.22971097,8.891729,4.345366,0.0,0.0,0.0
19433625338809,-0.19621146,8.891729,4.345366,0.0,0.0,0.0
19433627718028,-0.18185452,8.877372,4.3501515,0.0,0.0,0.0
19433630097247,-0.15314065,8.886943,4.345366,0.0,0.0,0.0
19433632476518,-0.11485548,8.891729,4.354937,0.0,0.0,0.0
19433634855736,-0.09571291,8.886943,4.345366,0.0,0.0,0.0
19433637234903,-0.10049855,8.896515,4.3405805,0.0,0.0,0.0
19433639614174,-0.076570325,8.896515,4.354937,0.0,0.0,0.0
19433641993393,-0.07178468,8.9013,4.369294,0.0,0.0,0.0
19433644372611,-0.06699903,8.930014,4.3645086,0.0,0.0,0.0
19433646751830,-0.0526421,8.915657,4.359723,0.0,0.0,0.0
19433649131049,-0.02871387,8.9108715,4.369294,0.0,0.0,0.0
19433651510268,-0.023928227,8.9108715,4.3836513,0.0,0.0,0.0
19433653889486,-0.023928227,8.906086,4.359723,0.0,0.0,0.0
19433656268757,-0.033499517,8.920443,4.369294,0.0,0.0,0.0
19433658647976,-0.014356935,8.896515,4.3645086,0.0,0.0,0.0
19433661027195,0.019142581,8.915657,4.369294,0.0,0.0,0.0
19433663406414,0.009571291,8.925228,4.354937,0.0,0.0,0.0
19433665785632,0.023928227,8.925228,4.354937,0.0,0.0,0.0
19433668164851,0.038285162,8.9013,4.3405805,0.0,0.0,0.0
19433670544070,0.02871387,8.886943,4.316652,0.0,0.0,0.0
19433672923289,0.0526421,8.882157,4.321438,0.0,0.0,0.0
19433675302559,0.05742774,8.9013,4.3262234,0.0,0.0,0.0
19433677681778,0.05742774,8.886943,4.2975097,0.0,0.0,0.0
19433680060997,0.09092726,8.867801,4.302295,0.0,0.0,0.0
19433682440216,0.08135597,8.834301,4.321438,0.0,0.0,0.0
19433684819434,0.08135597,8.819944,4.3262234,0.0,0.0,0.0
19433687198653,0.09092726,8.819944,4.3501515,0.0,0.0,0.0
19433689577872,0.076570325,8.839087,4.3501515,0.0,0.0,0.0
19433691957039,0.0526421,8.810373,4.3501515,0.0,0.0,0.0
19433694336309,0.0526421,8.79123,4.331009,0.0,0.0,0.0
19433696715528,0.0,8.796016,4.331009,0.0,0.0,0.0
19433699094799,0.0047856453,8.79123,4.331009,0.0,0.0,0.0
19433701474018,-0.0047856453,8.800801,4.345366,0.0,0.0,0.0
19433703853236,-0.023928227,8.810373,4.3405805,0.0,0.0,0.0
19433706232455,-0.009571291,8.810373,4.331009,0.0,0.0,0.0
19433708611674,-0.023928227,8.810373,4.321438,0.0,0.0,0.0
19433710990893,-0.033499517,8.829515,4.3118663,0.0,0.0,0.0
19433713370111,-0.014356935,8.848659,4.302295,0.0,0.0,0.0
19433715749330,0.014356935,8.843872,4.3262234,0.0,0.0,0.0
19433718128549,0.019142581,8.829515,4.321438,0.0,0.0,0.0
19433720507820,0.02871387,8.848659,4.321438,0.0,0.0,0.0
19433722887039,0.047856454,8.843872,4.345366,0.0,0.0,0.0
19433725266257,0.047856454,8.853444,4.3357944,0.0,0.0,0.0
19433727645476,0.02871387,8.82473,4.331009,0.0,0.0,0.0
19433730024695,0.038285162,8.848659,4.3405805,0.0,0.0,0.0
19433732403914,0.02871387,8.863015,4.354937,0.0,0.0,0.0
19433734783132,-0.019142581,8.872586,4.3932223,0.0,0.0,0.0
19433737162351,-0.047856454,8.839087,4.3836513,0.0,0.0,0.0
19433739541570,-0.11006984,8.834301,4.388437,0.0,0.0,0.0
19433741920841,-0.17228323,8.829515,4.388437,0.0,0.0,0.0
19433744300059,-0.23449662,8.863015,4.3932223,0.0,0.0,0.0
19433746679278,-0.29192436,8.882157,4.3932223,0.0,0.0,0.0
19433749058497,-0.3493521,8.891729,4.359723,0.0,0.0,0.0
19433751437716,-0.41156548,8.872586,4.3740797,0.0,0.0,0.0
19433753816934,-0.46899325,8.882157,4.3740797,0.0,0.0,0.0
19433756196153,-0.4881358,8.906086,4.388437,0.0,0.0,0.0
19433758575372,-0.51206404,8.891729,4.3788652,0.0,0.0,0.0
19433760954591,-0.5168497,8.877372,4.3836513,0.0,0.0,0.0
19433763333861,-0.4977071,8.896515,4.388437,0.0,0.0,0.0
19433765713080,-0.45942193,8.9013,4.3740797,0.0,0.0,0.0
19433768092299,-0.41156548,8.891729,4.359723,0.0,0.0,0.0
19433770471518,-0.3493521,8.882157,4.354937,0.0,0.0,0.0
19433772850736,-0.2727818,8.877372,4.359723,0.0,0.0,0.0
19433775229955,-0.19142582,8.886943,4.3501515,0.0,0.0,0.0
19433777609174,-0.10049855,8.886943,4.3357944,0.0,0.0,0.0
19433779988393,0.0,8.882157,4.345366,0.0,0.0,0.0
19433782367611,0.076570325,8.872586,4.321438,0.0,0.0,0.0
19433784746882,0.124426775,8.877372,4.3118663,0.0,0.0,0.0
19433787126101,0.17706887,8.906086,4.2975097,0.0,0.0,0.0
19433789505320,0.22013968,8.9108715,4.2927237,0.0,0.0,0.0
19433791884539,0.23449662,8.877372,4.2975097,0.0,0.0,0.0
19433794263757,0.20578274,8.906086,4.2927237,0.0,0.0,0.0
19433796642976,0.13399807,8.896515,4.302295,0.0,0.0,0.0
19433799022143,0.086141616,8.877372,4.2927237,0.0,0.0,0.0
19433801401414,0.009571291,8.882157,4.316652,0.0,0.0,0.0
19433803780632,-0.05742774,8.872586,4.331009,0.0,0.0,0.0
19433806159851,-0.15314065,8.867801,4.345366,0.0,0.0,0.0
19433808539122,-0.24885355,8.85823,4.3501515,0.0,0.0,0.0
19433810918341,-0.29671,8.848659,4.3645086,0.0,0.0,0.0
19433813297559,-0.3589234,8.85823,4.3932223,0.0,0.0,0.0
19433815676778,-0.41156548,8.891729,4.4075794,0.0,0.0,0.0
19433818055997,-0.4354937,8.872586,4.4171505,0.0,0.0,0.0
19433820435216,-0.42592242,8.877372,4.4075794,0.0,0.0,0.0
19433822814434,-0.40677986,8.877372,4.4075794,0.0,0.0,0.0
19433825193653,-0.36370903,8.867801,4.3932223,0.0,0.0,0.0
19433827572924,-0.29192436,8.877372,4.3788652,0.0,0.0,0.0
19433829952091,-0.19621146,8.930014,4.3836513,0.0,0.0,0.0
19433832331361,-0.09571291,8.9108715,4.359723,0.0,0.0,0.0
19433834710580,-0.014356935,8.891729,4.354937,0.0,0.0,0.0
19433837089799,0.08135597,8.882157,4.3501515,0.0,0.0,0.0
19433839469018,0.16271193,8.9013,4.321438,0.0,0.0,0.0
19433841848236,0.27756742,8.872586,4.3262234,0.0,0.0,0.0
19433844227455,0.33499518,8.877372,4.3357944,0.0,0.0,0.0
19433846606674,0.3684947,8.872586,4.345366,0.0,0.0,0.0
19433848985893,0.38763726,8.85823,4.3357944,0.0,0.0,0.0
19433851365164,0.3924229,8.848659,4.3357944,0.0,0.0,0.0
19433853744382,0.3924229,8.853444,4.3405805,0.0,0.0,0.0
19433856123601,0.33020952,8.834301,4.345366,0.0,0.0,0.0
19433858502820,0.2440679,8.839087,4.3501515,0.0,0.0,0.0
19433860882039,0.15314065,8.839087,4.345366,0.0,0.0,0.0
19433863261257,0.033499517,8.872586,4.3501515,0.0,0.0,0.0
19433865640476,-0.05742774,8.843872,4.345366,0.0,0.0,0.0
19433868019695,-0.15314065,8.85823,4.331009,0.0,0.0,0.0
19433870398914,-0.25842485,8.872586,4.3405805,0.0,0.0,0.0
19433872778132,-0.3397808,8.891729,4.331009,0.0,0.0,0.0
19433875157403,-0.39720857,8.886943,4.354937,0.0,0.0,0.0
19433877536622,-0.42592242,8.891729,4.359723,0.0,0.0,0.0
19433879915841,-0.44985065,8.882157,4.354937,0.0,0.0,0.0
19433882295059,-0.44027936,8.896515,4.359723,0.0,0.0,0.0
19433884674278,-0.4211368,8.9013,4.3405805,0.0,0.0,0.0
19433887053497,-0.37806597,8.9013,4.3405805,0.0,0.0,0.0
19433889432716,-0.31106696,8.867801,4.3357944,0.0,0.0,0.0
19433891811934,-0.22971097,8.882157,4.331009,0.0,0.0,0.0
19433894191153,-0.13878371,8.877372,4.321438,0.0,0.0,0.0
19433896570424,-0.0526421,8.853444,4.316652,0.0,0.0,0.0
19433898949643,0.02871387,8.85823,4.3262234,0.0,0.0,0.0
19433901328861,0.09571291,8.843872,4.3262234,0.0,0.0,0.0
19433903708080,0.18185452,8.829515,4.3070807,0.0,0.0,0.0
19433906087299,0.2105684,8.843872,4.302295,0.0,0.0,0.0
19433908466518,0.2440679,8.863015,4.302295,0.0,0.0,0.0
19433910845736,0.2440679,8.863015,4.302295,0.0,0.0,0.0
19433913224955,0.22971097,8.839087,4.3118663,0.0,0.0,0.0
19433915604174,0.19621146,8.82473,4.302295,0.0,0.0,0.0
19433917983393,0.16271193,8.815159,4.2831526,0.0,0.0,0.0
19433920362664,0.086141616,8.810373,4.2975097,0.0,0.0,0.0
19433922741882,0.033499517,8.829515,4.278367,0.0,0.0,0.0
19433925121101,-0.038285162,8.843872,4.278367,0.0,0.0,0.0
19433927500320,-0.11964113,8.843872,4.287938,0.0,0.0,0.0
19433929879539,-0.2009971,8.839087,4.316652,0.0,0.0,0.0
19433932258757,-0.2632105,8.872586,4.3262234,0.0,0.0,0.0
19433934637976,-0.33020952,8.886943,4.3262234,0.0,0.0,0.0
19433937017195,-0.3684947,8.906086,4.3405805,0.0,0.0,0.0
19433939396414,-0.39720857,8.920443,4.3262234,0.0,0.0,0.0
19433941775684,-0.40677986,8.920443,4.302295,0.0,0.0,0.0
19433944154903,-0.39720857,8.939586,4.3118663,0.0,0.0,0.0
19433946534122,-0.33499518,8.925228,4.2975097,0.0,0.0,0.0
19433948913341,-0.28235307,8.915657,4.3070807,0.0,0.0,0.0
19433951292559,-0.22971097,8.915657,4.3070807,0.0,0.0,0.0
19433953671778,-0.18664017,8.915657,4.316652,0.0,0.0,0.0
19433956050997,-0.12921242,8.896515,4.3501515,0.0,0.0,0.0
19433958430216,-0.06699903,8.9108715,4.3501515,0.0,0.0,0.0
19433960809434,0.023928227,8.9013,4.345366,0.0,0.0,0.0
19433963188653,0.086141616,8.886943,4.3357944,0.0,0.0,0.0
19433965567924,0.13399807,8.891729,4.3501515,0.0,0.0,0.0
19433967947143,0.20578274,8.896515,4.3645086,0.0,0.0,0.0
19433970326361,0.23449662,8.906086,4.398008,0.0,0.0,0.0
19433972705580,0.23449662,8.882157,4.3932223,0.0,0.0,0.0
19433975084799,0.23449662,8.867801,4.3836513,0.0,0.0,0.0
19433977464018,0.18664017,8.85823,4.388437,0.0,0.0,0.0
19433979843236,0.15792629,8.891729,4.402794,0.0,0.0,0.0
19433982222455,0.11006984,8.891729,4.412365,0.0,0.0,0.0
19433984601674,0.062213387,8.891729,4.4171505,0.0,0.0,0.0
19433986980945,0.0,8.886943,4.421936,0.0,0.0,0.0
19433989360164,-0.0526421,8.906086,4.421936,0.0,0.0,0.0
19433991739382,-0.09092726,8.896515,4.412365,0.0,0.0,0.0
19433994118601,-0.148355,8.877372,4.426722,0.0,0.0,0.0
19433996497820,-0.16271193,8.882157,4.3932223,0.0,0.0,0.0
19433998877039,-0.18185452,8.85823,4.388437,0.0,0.0,0.0
19434001256257,-0.18664017,8.85823,4.4075794,0.0,0.0,0.0
19434003635476,-0.15314065,8.843872,4.4075794,0.0,0.0,0.0
19434006014695,-0.11964113,8.805588,4.412365,0.0,0.0,0.0
19434008393914,-0.086141616,8.796016,4.412365,0.0,0.0,0.0
19434010773184,-0.023928227,8.781659,4.3836513,0.0,0.0,0.0
19434013152403,0.05742774,8.781659,4.3836513,0.0,0.0,0.0
19434015531622,0.1052842,8.815159,4.3740797,0.0,0.0,0.0
19434017910841,0.18664017,8.810373,4.3836513,0.0,0.0,0.0
19434020290059,0.29192436,8.829515,4.388437,0.0,0.0,0.0
19434022669278,0.35413775,8.829515,4.3740797,0.0,0.0,0.0
19434025048497,0.38763726,8.82473,4.3405805,0.0,0.0,0.0
19434027427716,0.41635114,8.82473,4.3262234,0.0,0.0,0.0
19434029806882,0.44985065,8.848659,4.3357944,0.0,0.0,0.0
19434032186153,0.4546363,8.853444,4.316652,0.0,0.0,0.0
19434034565372,0.43070808,8.853444,4.316652,0.0,0.0,0.0
19434036944643,0.3924229,8.829515,4.287938,0.0,0.0,0.0
19434039323861,0.36370903,8.834301,4.2975097,0.0,0.0,0.0
19434041703080,0.32063824,8.829515,4.2927237,0.0,0.0,0.0
19434044082299,0.26799613,8.829515,4.2975097,0.0,0.0,0.0
19434046461518,0.17706887,8.805588,4.3118663,0.0,0.0,0.0
19434048840736,0.11485548,8.82473,4.3118663,0.0,0.0,0.0
19434051219955,0.02871387,8.805588,4.316652,0.0,0.0,0.0
19434053599174,-0.047856454,8.810373,4.3070807,0.0,0.0,0.0
19434055978393,-0.08135597,8.829515,4.3118663,0.0,0.0,0.0
19434058357611,-0.124426775,8.82473,4.302295,0.0,0.0,0.0
19434060736882,-0.18185452,8.848659,4.302295,0.0,0.0,0.0
19434063116049,-0.21535404,8.843872,4.278367,0.0,0.0,0.0
