t_ns,ax,ay,az,accuracy
29751599285864,-0.4354937,9.135797,3.8237305,3
29751601664927,-0.37806597,9.145369,3.8141594,3
29751604043833,-0.33499518,9.145369,3.7615173,3
29751606422739,-0.28713873,9.145369,3.7184465,3
29751608801594,-0.24885355,9.169296,3.6658044,3
29751611180500,-0.18185452,9.174082,3.6658044,3
29751613559354,-0.19142582,9.164511,3.6897326,3
29751615938260,-0.14356937,9.174082,3.7184465,3
29751618317166,-0.16271193,9.164511,3.7184465,3
29751620696073,-0.16271193,9.202796,3.7040894,3
29751623074979,-0.148355,9.217153,3.6801612,3
29751625453833,-0.18664017,9.2075815,3.6466618,3
29751627832739,-0.23449662,9.193225,3.6658044,3
29751630211646,-0.28235307,9.193225,3.6849468,3
29751632590552,-0.31585258,9.183653,3.7040894,3
29751634969406,-0.3589234,9.169296,3.7184465,3
29751637348312,-0.38285163,9.178867,3.7184465,3
29751639727219,-0.41635114,9.188439,3.7040894,3
29751642106125,-0.44985065,9.178867,3.694518,3
29751644484927,-0.42592242,9.159725,3.6801612,3
29751646863885,-0.41156548,9.174082,3.7040894,3
29751649242791,-0.39720857,9.159725,3.7088752,3
29751651621698,-0.3589234,9.164511,3.6993039,3
29751654000552,-0.28235307,9.174082,3.6753755,3
29751656379458,-0.22492532,9.164511,3.641876,3
29751658758364,-0.19142582,9.169296,3.6370904,3
29751661137271,-0.14356937,9.174082,3.6514473,3
29751663516125,-0.10049855,9.169296,3.6658044,3
29751665895031,-0.086141616,9.135797,3.6897326,3
29751668273937,-0.038285162,9.159725,3.6801612,3
29751670652844,-0.043070808,9.164511,3.67059,3
29751673031698,-0.038285162,9.169296,3.6610186,3
29751675410604,-0.07178468,9.159725,3.6514473,3
29751677789510,-0.09092726,9.135797,3.6610186,3
29751680168364,-0.148355,9.131011,3.6897326,3
29751682547271,-0.17228323,9.150154,3.723232,3
29751684926177,-0.19621146,9.126225,3.7423747,3
29751687305083,-0.25842485,9.126225,3.723232,3
29751689683937,-0.29192436,9.135797,3.7184465,3
29751692062844,-0.33499518,9.126225,3.7088752,3
29751694441750,-0.3924229,9.116654,3.7280176,3
29751696820656,-0.4211368,9.126225,3.7710886,3
29751699199510,-0.44506502,9.126225,3.790231,3
29751701578416,-0.4546363,9.107083,3.7854455,3
29751703957323,-0.47377887,9.083155,3.7758741,3
29751706336229,-0.47377887,9.078369,3.7758741,3
29751708715083,-0.43070808,9.083155,3.751946,3
29751711093989,-0.38763726,9.064013,3.737589,3
29751713472896,-0.3684947,9.092726,3.7663028,3
29751715851802,-0.32063824,9.107083,3.7663028,3
29751718230656,-0.27756742,9.092726,3.7710886,3
29751720609510,-0.23449662,9.097511,3.7663028,3
29751722988469,-0.19621146,9.097511,3.7328033,3
29751725367375,-0.15314065,9.102298,3.7136607,3
29751727746229,-0.11964113,9.116654,3.7136607,3
29751730125083,-0.10049855,9.131011,3.723232,3
29751732504041,-0.05742774,9.145369,3.7423747,3
29751734882948,-0.076570325,9.131011,3.751946,3
29751737261802,-0.086141616,9.135797,3.751946,3
29751739640708,-0.11485548,9.135797,3.7567315,3
29751742019614,-0.124426775,9.145369,3.751946,3
29751744398521,-0.12921242,9.150154,3.7758741,3
29751746777375,-0.148355,9.126225,3.7663028,3
29751749156281,-0.16271193,9.111869,3.7854455,3
29751751535187,-0.2009971,9.116654,3.804588,3
29751753914094,-0.22013968,9.135797,3.7998023,3
29751756292948,-0.22492532,9.116654,3.7663028,3
29751758671854,-0.2009971,9.12144,3.7615173,3
29751761050760,-0.2009971,9.107083,3.7663028,3
29751763429666,-0.20578274,9.111869,3.7471602,3
29751765808521,-0.19621146,9.12144,3.7710886,3
29751768187427,-0.17228323,9.111869,3.790231,3
29751770566333,-0.15792629,9.102298,3.7663028,3
29751772945187,-0.13399807,9.116654,3.7806597,3
29751775324094,-0.11006984,9.097511,3.7806597,3
29751777702948,-0.07178468,9.102298,3.7567315,3
29751780081906,-0.047856454,9.116654,3.7710886,3
29751782460760,-0.038285162,9.102298,3.7854455,3
29751784839666,0.009571291,9.131011,3.7758741,3
29751787218573,0.0047856453,9.12144,3.7806597,3
29751789597479,0.02871387,9.140582,3.7710886,3
29751791976333,0.023928227,9.135797,3.7710886,3
29751794355239,0.047856454,9.107083,3.7854455,3
29751796734146,0.02871387,9.131011,3.7998023,3
29751799113052,0.014356935,9.126225,3.7950168,3
29751801491906,-0.009571291,9.116654,3.790231,3
29751803870812,-0.0047856453,9.135797,3.7950168,3
29751806249719,-0.038285162,9.131011,3.7663028,3
29751808628625,-0.07178468,9.131011,3.737589,3
29751811007479,-0.1052842,9.145369,3.7423747,3
29751813386385,-0.11006984,9.140582,3.751946,3
29751815765291,-0.11964113,9.12144,3.751946,3
29751818144198,-0.14356937,9.116654,3.737589,3
29751820523052,-0.16749759,9.126225,3.723232,3
29751822901958,-0.17228323,9.111869,3.737589,3
29751825280864,-0.19142582,9.12144,3.7471602,3
29751827659771,-0.22013968,9.12144,3.723232,3
29751830038625,-0.2105684,9.107083,3.7280176,3
29751832417531,-0.19142582,9.111869,3.7567315,3
29751834796437,-0.20578274,9.102298,3.7328033,3
29751837175344,-0.19621146,9.131011,3.7423747,3
29751839554198,-0.16749759,9.102298,3.7328033,3
29751841933104,-0.15314065,9.107083,3.7136607,3
29751844312010,-0.13399807,9.12144,3.7184465,3
29751846690864,-0.124426775,9.126225,3.694518,3
29751849069771,-0.11485548,9.145369,3.6849468,3
29751851448677,-0.10049855,9.126225,3.7040894,3
29751853827583,-0.1052842,9.131011,3.6849468,3
29751856206489,-0.086141616,9.150154,3.7088752,3
29751858585344,-0.06699903,9.150154,3.6993039,3
29751860964250,-0.06699903,9.140582,3.6849468,3
29751863343156,-0.08135597,9.15494,3.6897326,3
29751865722062,-0.08135597,9.169296,3.6849468,3
29751868100916,-0.11485548,9.150154,3.694518,3
29751870479823,-0.124426775,9.15494,3.6897326,3
29751872858729,-0.124426775,9.150154,3.7040894,3
29751875237635,-0.14356937,9.15494,3.7040894,3
29751877616489,-0.17228323,9.164511,3.6897326,3
29751879995396,-0.14356937,9.164511,3.694518,3
29751882374302,-0.17228323,9.164511,3.694518,3
29751884753156,-0.15314065,9.164511,3.6801612,3
29751887132062,-0.148355,9.159725,3.6658044,3
29751889510969,-0.14356937,9.15494,3.6658044,3
29751891889875,-0.14356937,9.174082,3.6610186,3
29751894268729,-0.13399807,9.159725,3.656233,3
29751896647635,-0.11006984,9.15494,3.6658044,3
29751899026541,-0.11964113,9.159725,3.6753755,3
29751901405448,-0.08135597,9.188439,3.6514473,3
29751903784302,-0.07178468,9.174082,3.6466618,3
29751906163208,-0.0526421,9.174082,3.6466618,3
29751908542114,-0.023928227,9.183653,3.6370904,3
29751910921021,-0.0047856453,9.169296,3.6370904,3
29751913299875,0.014356935,9.188439,3.641876,3
29751915678781,0.0047856453,9.178867,3.6323047,3
29751918057687,0.0047856453,9.178867,3.641876,3
29751920436541,-0.014356935,9.174082,3.6370904,3
29751922815448,-0.047856454,9.174082,3.6370904,3
29751925194354,-0.07178468,9.178867,3.6323047,3
29751927573260,-0.09092726,9.202796,3.6227336,3
29751929952166,-0.13399807,9.212367,3.6323047,3
29751932331021,-0.18185452,9.202796,3.6370904,3
29751934709927,-0.2536392,9.183653,3.6370904,3
29751937088833,-0.29671,9.183653,3.6370904,3
29751939467739,-0.32063824,9.183653,3.6466618,3
29751941846594,-0.3684947,9.202796,3.6514473,3
29751944225500,-0.41156548,9.188439,3.6610186,3
29751946604406,-0.45942193,9.193225,3.67059,3
29751948983312,-0.47856453,9.2075815,3.6849468,3
29751951362166,-0.4833502,9.169296,3.6801612,3
29751953741073,-0.4833502,9.188439,3.6801612,3
29751956119979,-0.4881358,9.202796,3.6849468,3
29751958498885,-0.49292147,9.174082,3.6801612,3
29751960877739,-0.4833502,9.169296,3.67059,3
29751963256646,-0.45942193,9.169296,3.6993039,3
29751965635552,-0.40677986,9.164511,3.7040894,3
29751968014458,-0.40677986,9.15494,3.694518,3
29751970393312,-0.38285163,9.145369,3.7040894,3
29751972772219,-0.3493521,9.140582,3.7088752,3
29751975151125,-0.31106696,9.135797,3.7184465,3
29751977530031,-0.30149564,9.12144,3.7136607,3
29751979908885,-0.3062813,9.131011,3.737589,3
29751982287791,-0.32063824,9.126225,3.7328033,3
29751984666698,-0.3062813,9.135797,3.7423747,3
29751987045604,-0.29192436,9.12144,3.7567315,3
29751989424458,-0.28713873,9.15494,3.7854455,3
29751991803364,-0.32063824,9.164511,3.7854455,3
29751994182271,-0.3397808,9.140582,3.7950168,3
29751996561177,-0.35413775,9.12144,3.7854455,3
29751998940031,-0.37328035,9.116654,3.7950168,3
29752001318937,-0.3684947,9.12144,3.7998023,3
29752003697844,-0.33020952,9.097511,3.8093736,3
29752006076750,-0.37328035,9.092726,3.8141594,3
29752008455604,-0.3924229,9.078369,3.8285162,3
29752010834510,-0.38285163,9.083155,3.8380876,3
29752013213416,-0.33499518,9.078369,3.8620157,3
29752015592271,-0.32063824,9.078369,3.8380876,3
29752017971177,-0.28235307,9.08794,3.8476589,3
29752020350083,-0.2536392,9.097511,3.842873,3
29752022728989,-0.23449662,9.059227,3.8572302,3
29752025107896,-0.22971097,9.068798,3.8668015,3
29752027486750,-0.19142582,9.0544405,3.8763726,3
29752029865656,-0.16749759,9.064013,3.871587,3
29752032244562,-0.17706887,9.049655,3.8620157,3
29752034623469,-0.15314065,9.064013,3.8763726,3
29752037002323,-0.13399807,9.068798,3.900301,3
29752039381229,-0.11006984,9.08794,3.9146578,3
29752041760135,-0.11964113,9.0544405,3.9242291,3
29752044139041,-0.124426775,9.049655,3.9290147,3
29752046517896,-0.124426775,9.049655,3.9338005,3
29752048896802,-0.148355,9.059227,3.9290147,3
29752051275708,-0.15792629,9.049655,3.9577286,3
29752053654614,-0.15792629,9.064013,3.9577286,3
29752056033469,-0.148355,9.059227,3.9481573,3
29752058412375,-0.12921242,9.044869,3.9577286,3
29752060791281,-0.13878371,9.044869,3.9625144,3
29752063170135,-0.11485548,9.0544405,3.9720855,3
29752065548989,-0.11006984,9.0544405,3.9768713,3
29752067927948,-0.06699903,9.0544405,4.0007997,3
29752070306854,-0.06699903,9.040084,4.0103707,3
29752072685760,-0.062213387,9.030513,3.9960139,3
29752075064614,-0.02871387,9.035298,3.9673,3
29752077443521,-0.0526421,9.040084,3.9768713,3
29752079822427,-0.047856454,9.035298,3.9768713,3
29752082201333,-0.043070808,9.044869,3.991228,3
29752084580187,-0.014356935,9.025727,3.9864426,3
29752086959094,-0.014356935,9.025727,3.9720855,3
29752089338000,-0.019142581,9.035298,3.9625144,3
29752091716854,-0.023928227,9.025727,3.9625144,3
29752094095760,-0.043070808,9.035298,3.9338005,3
29752096474666,-0.023928227,9.044869,3.900301,3
29752098853573,-0.038285162,9.040084,3.900301,3
29752101232479,-0.047856454,9.064013,3.8907297,3
29752103611333,-0.047856454,9.073584,3.8811584,3
29752105990239,-0.06699903,9.059227,3.8476589,3
29752108369146,-0.06699903,9.078369,3.8380876,3
29752110748052,-0.038285162,9.092726,3.8285162,3
29752113126906,-0.062213387,9.12144,3.8141594,3
29752115505812,-0.05742774,9.140582,3.804588,3
29752117884666,-0.038285162,9.135797,3.8141594,3
29752120263573,-0.014356935,9.116654,3.8141594,3
29752122642479,-0.014356935,9.097511,3.7950168,3
29752125021385,-0.02871387,9.102298,3.7950168,3
29752127400291,-0.038285162,9.092726,3.7998023,3
29752129779146,-0.05742774,9.092726,3.7950168,3
29752132158052,-0.086141616,9.107083,3.8141594,3
29752134536958,-0.10049855,9.111869,3.8333018,3
29752136915864,-0.11485548,9.08794,3.818945,3
29752139294771,-0.11485548,9.107083,3.7998023,3
29752141673625,-0.12921242,9.102298,3.7758741,3
29752144052531,-0.13878371,9.107083,3.751946,3
29752146431437,-0.17228323,9.107083,3.7280176,3
29752148810344,-0.2009971,9.12144,3.7136607,3
29752151189198,-0.21535404,9.131011,3.694518,3
29752153568104,-0.22013968,9.135797,3.6801612,3
29752155947010,-0.2440679,9.131011,3.6610186,3
29752158325916,-0.2727818,9.15494,3.6610186,3
29752160704771,-0.2632105,9.178867,3.6514473,3
29752163083677,-0.26799613,9.169296,3.6658044,3
29752165462583,-0.30149564,9.188439,3.656233,3
29752167841489,-0.32542387,9.183653,3.6753755,3
29752170220344,-0.3062813,9.183653,3.6993039,3
29752172599250,-0.32542387,9.183653,3.694518,3
29752174978156,-0.29192436,9.164511,3.6993039,3
29752177357062,-0.26799613,9.174082,3.6897326,3
29752179735916,-0.25842485,9.174082,3.694518,3
29752182114823,-0.22492532,9.178867,3.6801612,3
29752184493729,-0.22013968,9.169296,3.6753755,3
29752186872635,-0.21535404,9.188439,3.67059,3
29752189251489,-0.21535404,9.183653,3.641876,3
29752191630396,-0.2009971,9.202796,3.6083765,3
29752194009302,-0.19621146,9.2075815,3.574877,3
29752196388156,-0.2105684,9.212367,3.574877,3
29752198767062,-0.21535404,9.183653,3.5796626,3
29752201145969,-0.22013968,9.159725,3.5892339,3
29752203524875,-0.2009971,9.183653,3.5940197,3
29752205903781,-0.2105684,9.178867,3.603591,3
29752208282635,-0.24885355,9.174082,3.5892339,3
29752210661541,-0.2536392,9.150154,3.5892339,3
29752213040448,-0.27756742,9.15494,3.5892339,3
29752215419354,-0.2632105,9.183653,3.5844483,3
29752217798208,-0.26799613,9.193225,3.6227336,3
29752220177114,-0.2632105,9.19801,3.6370904,3
29752222556021,-0.2536392,9.2075815,3.641876,3
29752224934927,-0.2440679,9.178867,3.6514473,3
29752227313781,-0.20578274,9.178867,3.6514473,3
29752229692687,-0.19142582,9.164511,3.6466618,3
29752232071594,-0.19621146,9.174082,3.6801612,3
29752234450500,-0.17228323,9.169296,3.7136607,3
29752236829354,-0.19621146,9.174082,3.7328033,3
29752239208260,-0.19621146,9.174082,3.7328033,3
29752241587166,-0.2009971,9.164511,3.7423747,3
29752243966073,-0.22492532,9.145369,3.7471602,3
29752246344927,-0.22013968,9.145369,3.7280176,3
29752248723833,-0.23928227,9.159725,3.694518,3
29752251102739,-0.23449662,9.15494,3.694518,3
29752253481646,-0.21535404,9.150154,3.6897326,3
29752255860500,-0.23928227,9.174082,3.6753755,3
29752258239406,-0.24885355,9.174082,3.694518,3
29752260618312,-0.2536392,9.174082,3.6658044,3
29752262997219,-0.24885355,9.193225,3.6801612,3
29752265376073,-0.2440679,9.183653,3.656233,3
29752267754979,-0.23449662,9.164511,3.6514473,3
29752270133885,-0.22013968,9.15494,3.694518,3
29752272512791,-0.20578274,9.135797,3.7280176,3
29752274891646,-0.2009971,9.102298,3.723232,3
29752277270552,-0.16749759,9.08794,3.7088752,3
29752279649406,-0.15314065,9.102298,3.7040894,3
29752282028364,-0.11485548,9.073584,3.6801612,3
29752284407219,-0.09092726,9.064013,3.6897326,3
29752286786125,-0.076570325,9.059227,3.7040894,3
29752289165031,-0.076570325,9.097511,3.737589,3
29752291543885,-0.05742774,9.059227,3.7471602,3
29752293922791,-0.05742774,9.083155,3.7663028,3
29752296301698,-0.06699903,9.107083,3.7758741,3
29752298680604,-0.1052842,9.111869,3.7758741,3
29752301059510,-0.148355,9.102298,3.7567315,3
29752303438364,-0.19621146,9.12144,3.7806597,3
29752305817271,-0.21535404,9.140582,3.8093736,3
29752308196177,-0.26799613,9.131011,3.818945,3
29752310575083,-0.34456646,9.116654,3.804588,3
29752312953937,-0.38763726,9.126225,3.7950168,3
29752315332844,-0.35413775,9.116654,3.790231,3
29752317711750,-0.34456646,9.12144,3.804588,3
29752320090656,-0.3397808,9.107083,3.8333018,3
29752322469562,-0.29192436,9.135797,3.8572302,3
29752324848416,-0.2105684,9.126225,3.8285162,3
29752327227323,-0.12921242,9.12144,3.8285162,3
29752329606177,-0.038285162,9.08794,3.8093736,3
29752331985083,0.02871387,9.083155,3.8237305,3
29752334363989,0.076570325,9.078369,3.8237305,3
29752336742896,0.1052842,9.073584,3.842873,3
29752339121802,0.13399807,9.068798,3.8285162,3
29752341500656,0.11485548,9.064013,3.8285162,3
29752343879562,0.11006984,9.0544405,3.8141594,3
29752346258469,0.076570325,9.083155,3.818945,3
29752348637375,0.023928227,9.049655,3.8141594,3
29752351016281,-0.033499517,9.092726,3.8141594,3
29752353395135,-0.09092726,9.059227,3.7950168,3
29752355774041,-0.148355,9.083155,3.7950168,3
29752358152948,-0.2105684,9.092726,3.8141594,3
29752360531854,-0.26799613,9.08794,3.8524444,3
29752362910708,-0.29192436,9.064013,3.8572302,3
29752365289614,-0.3493521,9.073584,3.8524444,3
29752367668521,-0.36370903,9.08794,3.842873,3
29752370047427,-0.37328035,9.097511,3.8333018,3
29752372426281,-0.35413775,9.064013,3.8093736,3
29752374805187,-0.32542387,9.083155,3.7950168,3
29752377184094,-0.27756742,9.083155,3.804588,3
29752379563000,-0.22971097,9.025727,3.818945,3
29752381941854,-0.17228323,8.886943,3.7040894,3
29752384320760,-0.124426775,8.647661,3.507878,3
29752386699666,-0.023928227,8.595019,3.3834512,3
29752389078573,0.11485548,8.7577305,3.2303107,3
29752391457427,0.033499517,9.01137,3.211168,3
29752393836333,0.13878371,9.092726,3.574877,3
29752396215239,0.21535404,9.150154,4.072584,3
29752398594146,0.1052842,8.891729,4.106084,3
29752400973000,0.148355,9.126225,3.885944,3
29752403351906,0.14356937,10.030712,3.9098723,3
29752405730812,-0.07178468,10.049855,4.3118663,3
29752408109719,0.076570325,9.60479,4.6755753,3
29752410488573,0.05742774,9.853643,4.7138605,3
29752412867479,0.076570325,9.820144,4.125226,3
29752415246385,0.13399807,9.403793,3.1202407,3
29752417625291,0.17706887,9.5760765,2.7565317,3
29752420004146,0.19621146,9.590433,3.2207394,3
29752422383052,0.13399807,9.083155,4.063013,3
29752424761958,0.0047856453,8.796016,4.7569313,3
29752427140864,0.009571291,8.863015,4.6564326,3
29752429519719,0.023928227,8.7673025,3.7136607,3
29752431898625,-0.10049855,8.79123,2.8283165,3
29752434277531,-0.22971097,8.906086,2.5794628,3
29752436656437,-0.4546363,8.839087,3.0675986,3
29752439035291,-0.6987042,8.566305,3.938586,3
29752441414198,-0.80877405,8.547162,4.4745784,3
29752443793104,-0.9667004,8.752945,4.369294,3
29752446172010,-1.0480564,8.848659,3.7567315,3
29752448550916,-1.0049855,8.930014,3.2303107,3
29752450929771,-0.9523434,9.016156,3.1202407,3
29752453308677,-0.89013004,9.01137,3.4839497,3
29752455687583,-0.7082755,8.939586,3.9577286,3
29752458066489,-0.56470615,9.016156,4.3405805,3
29752460445344,-0.28235307,9.025727,4.2927237,3
29752462824250,-0.023928227,9.030513,3.9960139,3
29752465203156,0.25842485,9.092726,3.5796626,3
29752467582062,0.45942193,9.183653,3.3260236,3
29752469960916,0.63170516,9.188439,3.3786657,3
29752472339823,0.7704889,9.188439,3.694518,3
29752474718729,0.8422736,9.2075815,4.048656,3
29752477097635,0.85184485,9.226724,4.220939,3
29752479476489,0.8327023,9.241081,4.0869412,3
29752481855396,0.7322037,9.260223,3.804588,3
29752484234302,0.59342,9.327223,3.603591,3
29752486613208,0.42592242,9.360723,3.5940197,3
29752488992062,0.17706887,9.327223,3.7710886,3
29752491370969,-0.1052842,9.2793665,3.9960139,3
29752493749875,-0.35413775,9.250652,4.173083,3
29752496128781,-0.5838487,9.226724,4.0773697,3
29752498507635,-0.83748794,9.255438,3.8476589,3
29752500886541,-0.9762716,9.212367,3.6466618,3
29752503265448,-1.119841,9.193225,3.6275191,3
29752505644354,-1.1772687,9.150154,3.751946,3
29752508023260,-1.1533405,9.083155,3.9290147,3
29752510402114,-1.105484,9.0544405,3.9768713,3
29752512781021,-1.0480564,9.059227,3.9146578,3
29752515159927,-0.8757731,9.0544405,3.7710886,3
29752517538833,-0.6939186,9.044869,3.6275191,3
29752519917687,-0.46899325,9.044869,3.5940197,3
29752522296594,-0.26799613,9.025727,3.6801612,3
29752524675500,-0.09092726,9.001799,3.8141594,3
29752527054406,0.1052842,8.968299,3.9050865,3
29752529433260,0.28235307,8.987442,3.9050865,3
29752531812166,0.38763726,8.9826565,3.8141594,3
29752534191073,0.44985065,9.030513,3.7328033,3
29752536569979,0.49292147,9.0544405,3.6801612,3
29752538948833,0.4833502,9.0544405,3.7328033,3
29752541327739,0.44506502,9.068798,3.818945,3
29752543706646,0.3493521,9.068798,3.9146578,3
29752546085552,0.2105684,9.083155,3.9146578,3
29752548464406,0.07178468,9.126225,3.842873,3
29752550843312,-0.062213387,9.183653,3.737589,3
29752553222219,-0.21535404,9.188439,3.6753755,3
29752555601125,-0.35413775,9.212367,3.7136607,3
29752557979979,-0.45942193,9.193225,3.7950168,3
29752560358885,-0.5838487,9.193225,3.9050865,3
29752562737791,-0.6556334,9.188439,3.9625144,3
29752565116698,-0.67477596,9.178867,3.885944,3
29752567495552,-0.6795616,9.188439,3.751946,3
29752569874458,-0.66041905,9.217153,3.694518,3
29752572253364,-0.57906306,9.159725,3.694518,3
29752574632271,-0.4977071,9.140582,3.7758741,3
29752577011177,-0.3924229,9.107083,3.8811584,3
29752579390031,-0.28713873,9.083155,3.9481573,3
29752581768885,-0.17228323,9.068798,3.9194436,3
29752584147844,-0.062213387,9.073584,3.818945,3
29752586526698,0.019142581,9.083155,3.7136607,3
29752588905604,0.09092726,9.083155,3.6610186,3
29752591284510,0.1052842,9.073584,3.6993039,3
29752593663416,0.0526421,9.025727,3.751946,3
29752596042323,-0.014356935,8.992228,3.818945,3
29752598421177,-0.11964113,9.030513,3.8668015,3
29752600800083,-0.2632105,9.0544405,3.790231,3
29752603178989,-0.4354937,9.064013,3.6275191,3
29752605557896,-0.57906306,9.044869,3.507878,3
29752607936750,-0.7704889,9.083155,3.5605202,3
29752610315656,-0.94277215,9.131011,3.6275191,3
29752612694562,-1.0576276,9.140582,3.6801612,3
29752615073469,-1.119841,9.102298,3.641876,3
29752617452323,-1.1772687,9.068798,3.603591,3
29752619831229,-1.1485549,9.092726,3.641876,3
29752622210135,-1.0959128,9.107083,3.723232,3
29752624589041,-0.971486,9.102298,3.723232,3
29752626967896,-0.83748794,9.107083,3.6323047,3
29752629346802,-0.6843473,9.12144,3.455236,3
29752631725708,-0.5072784,9.159725,3.3116665,3
29752634104614,-0.33499518,9.131011,3.2398818,3
29752636483521,-0.16271193,9.083155,3.3164523,3
29752638862375,-0.047856454,9.08794,3.4360933,3
29752641241281,0.05742774,9.135797,3.4648073,3
29752643620187,0.16271193,9.164511,3.3212378,3
29752645999094,0.22971097,9.221938,3.1058838,3
29752648377948,0.26799613,9.269794,3.0005996,3
29752650756854,0.2105684,9.269794,3.0532417,3
29752653135760,0.14356937,9.293723,3.2925239,3
29752655514666,0.02871387,9.317652,3.493521,3
29752657893521,-0.033499517,9.399008,3.5940197,3
29752660272427,-0.15314065,9.379865,3.4983068,3
29752662651333,-0.22492532,9.413364,3.5030923,3
29752665030239,-0.26799613,9.432507,3.574877,3
29752667409094,-0.34456646,9.432507,3.7663028,3
29752669788000,-0.37806597,9.437292,4.034299,3
29752672166906,-0.3589234,9.442079,4.125226,3
29752674545812,-0.3397808,9.489935,4.0151563,3
29752676924666,-0.28713873,9.470792,3.842873,3
29752679303573,-0.15792629,9.442079,3.7806597,3
29752681682479,-0.06699903,9.408579,3.842873,3
29752684061385,-0.014356935,9.456435,4.101298,3
29752686440239,0.124426775,9.2793665,4.1874394,3
29752688819146,0.19621146,9.241081,4.3070807,3
29752691198052,0.34456646,9.150154,4.3357944,3
29752693576958,0.44027936,9.064013,4.2687955,3
29752695955864,0.5168497,8.963513,3.938586,3
29752698334719,0.51206404,8.958728,3.656233,3
29752700713625,0.4881358,8.886943,3.790231,3
29752703092531,0.3924229,8.786445,4.2975097,3
29752705471437,0.2632105,8.786445,4.699504,3
29752707850291,0.15314065,8.748159,4.5798626,3
29752710229198,0.043070808,8.681161,4.115655,3
29752712608052,-0.086141616,8.671589,3.7950168,3
29752714987010,-0.2536392,8.700303,3.8955152,3
29752717365864,-0.3684947,8.652447,4.2017965,3
29752719744771,-0.5072784,8.599805,4.465007,3
29752722123677,-0.6364908,8.71466,4.4315076,3
29752724502583,-0.6843473,8.843872,3.9625144,3
29752726881437,-0.72741807,8.953942,3.3930225,3
29752729260344,-0.70348984,9.040084,3.0867412,3
29752731639250,-0.7465607,9.12144,3.0867412,3
29752734018156,-0.76570326,9.08794,3.2733815,3
29752736397062,-0.7322037,9.068798,3.4456646,3
29752738775916,-0.7752745,9.102298,3.522235,3
29752741154823,-0.7800602,9.102298,3.4695928,3
29752743533729,-0.80877405,9.12144,3.3260236,3
29752745912635,-0.83748794,9.2075815,3.2590244,3
29752748291489,-0.89013004,9.284152,3.2973096,3
29752750670396,-0.93320084,9.30808,3.426522,3
29752753049302,-0.971486,9.365508,3.5892339,3
29752755428208,-0.9619147,9.413364,3.7184465,3
29752757807062,-0.8997013,9.394221,3.723232,3
29752760185969,-0.8805587,9.403793,3.6610186,3
29752762564875,-0.79920274,9.442079,3.6227336,3
29752764943781,-0.72741807,9.41815,3.694518,3
29752767322635,-0.64606214,9.293723,3.8572302,3
29752769701541,-0.5455636,9.212367,3.9816568,3
29752772080448,-0.44985065,9.2075815,4.063013,3
29752774459354,-0.33499518,9.135797,4.072584,3
29752776838260,-0.19621146,9.025727,3.9577286,3
29752779217114,-0.09571291,9.025727,3.7854455,3
29752781596021,0.062213387,9.073584,3.723232,3
29752783974927,0.18664017,9.006584,3.737589,3
29752786353781,0.2440679,8.949157,3.7950168,3
29752788732687,0.3493521,8.963513,3.8668015,3
29752791111594,0.44985065,8.939586,3.8763726,3
29752793490500,0.47377887,8.915657,3.9050865,3
29752795869406,0.47856453,8.891729,3.9816568,3
29752798248260,0.44985065,8.891729,4.072584,3
29752800627166,0.3493521,8.848659,4.048656,3
29752803006073,0.22492532,8.920443,3.900301,3
29752805384979,0.062213387,9.016156,3.7328033,3
29752807763833,-0.09092726,9.078369,3.6753755,3
29752810142739,-0.2536392,9.140582,3.6610186,3
29752812521646,-0.44506502,9.260223,3.7088752,3
29752814900552,-0.5838487,9.265009,3.6993039,3
29752817279458,-0.6939186,9.288938,3.6083765,3
29752819658312,-0.79920274,9.375079,3.603591,3
29752822037219,-0.8422736,9.346365,3.7136607,3
29752824416125,-0.83748794,9.288938,3.8285162,3
29752826795031,-0.80877405,9.284152,3.8476589,3
29752829173885,-0.72741807,9.332008,3.7710886,3
29752831552791,-0.59342,9.322437,3.6801612,3
29752833931698,-0.44506502,9.241081,3.5413775,3
29752836310604,-0.29671,9.317652,3.4887354,3
29752838689458,-0.14356937,9.322437,3.6131623,3
29752841068364,0.014356935,9.140582,3.804588,3
29752843447271,0.09092726,9.073584,4.034299,3
29752845826177,0.19621146,9.030513,4.048656,3
29752848205031,0.28713873,8.9826565,3.8380876,3
29752850583937,0.28713873,9.006584,3.5365918,3
29752852962844,0.23449662,9.083155,3.426522,3
29752855341750,0.19621146,9.040084,3.5557344,3
29752857720656,0.07178468,8.973084,3.885944,3
29752860099510,-0.06699903,8.958728,4.182654,3
29752862478416,-0.22971097,8.949157,4.1204405,3
29752864857323,-0.38285163,8.9826565,3.7806597,3
29752867236229,-0.49292147,9.068798,3.4743786,3
29752869615083,-0.6843473,9.111869,3.5892339,3
29752871993989,-0.8279166,9.025727,3.9720855,3
29752874372896,-0.89491564,9.006584,4.1491547,3
29752876751802,-1.0289137,9.159725,4.0151563,3
29752879130656,-0.9954142,9.250652,3.641876,3
29752881509562,-0.9906286,9.288938,3.5318062,3
29752883888469,-0.8997013,9.260223,3.641876,3
29752886267375,-0.8470592,9.226724,3.7328033,3
29752888646229,-0.74177504,9.226724,3.7710886,3
29752891025135,-0.5982057,9.23151,3.9290147,3
29752893404041,-0.41156548,9.183653,4.139583,3
29752895782948,-0.2632105,9.078369,4.0390844,3
29752898161854,-0.148355,9.164511,3.723232,3
29752900540708,0.0526421,9.217153,3.603591,3
29752902919614,0.17228323,9.08794,3.8380876,3
29752905298521,0.17228323,8.9348,3.9673,3
29752907677427,0.19142582,9.025727,3.9146578,3
29752910056281,0.2009971,9.0544405,3.8380876,3
29752912435187,0.17228323,8.930014,3.8285162,3
29752914814094,-0.019142581,8.992228,3.8620157,3
29752917193000,-0.10049855,9.135797,3.7615173,3
29752919571854,-0.2009971,9.126225,3.4791641,3
29752921950760,-0.3493521,9.102298,3.2733815,3
29752924329666,-0.5312066,9.140582,3.4743786,3
29752926708573,-0.6029913,9.049655,3.9242291,3
29752929087479,-0.6987042,8.9826565,4.1874394,3
29752931466333,-0.76570326,9.078369,3.9960139,3
29752933845239,-0.7369894,9.15494,3.455236,3
29752936224146,-0.6939186,9.19801,3.1106694,3
29752938603052,-0.6364908,9.250652,3.1872396,3
29752940981854,-0.61734825,9.245867,3.7136607,3
29752943360812,-0.4977071,9.116654,4.2257247,3
29752945739719,-0.3684947,9.073584,4.287938,3
29752948118625,-0.22971097,9.193225,3.9194436,3
29752950497531,-0.09571291,9.212367,3.3930225,3
29752952876385,0.038285162,9.217153,3.1345978,3
29752955255291,0.13878371,9.284152,3.3020952,3
29752957634198,0.18664017,9.221938,3.6753755,3
29752960013104,0.2009971,9.059227,3.991228,3
29752962391958,0.18664017,9.040084,4.058227,3
29752964770864,0.14356937,9.08794,3.8811584,3
29752967149771,0.086141616,9.030513,3.5605202,3
29752969528677,0.014356935,9.092726,3.3403804,3
29752971907531,-0.07178468,9.164511,3.4217365,3
29752974286437,-0.18185452,9.08794,3.7040894,3
29752976665344,-0.33020952,9.01137,4.0103707,3
29752979044250,-0.4642076,9.030513,4.101298,3
29752981423104,-0.5694918,9.059227,3.9433718,3
29752983801958,-0.61734825,9.049655,3.6275191,3
29752986180916,-0.6891329,9.111869,3.4217365,3
29752988559823,-0.7465607,9.145369,3.455236,3
29752990938729,-0.7322037,9.116654,3.751946,3
29752993317583,-0.7609176,9.107083,4.0390844,3
29752995696489,-0.7369894,9.140582,4.1778684,3
29752998075396,-0.6269195,9.126225,4.106084,3
29753000454302,-0.5168497,9.193225,3.8285162,3
29753002833156,-0.43070808,9.260223,3.5988052,3
29753005212010,-0.31106696,9.221938,3.5796626,3
29753007590969,-0.2009971,9.183653,3.7423747,3
29753009969875,-0.17228323,9.159725,3.9960139,3
29753012348729,-0.06699903,9.064013,3.9864426,3
29753014727635,-0.05742774,9.059227,3.8524444,3
29753017106541,0.062213387,9.116654,3.6849468,3
29753019485448,0.019142581,9.131011,3.6370904,3
29753021864354,0.02871387,9.073584,3.7136607,3
29753024243208,0.009571291,9.0544405,3.9050865,3
29753026622114,0.0047856453,9.044869,4.0007997,3
29753029001021,-0.1052842,9.083155,3.9481573,3
29753031379927,-0.148355,9.068798,3.751946,3
29753033758781,-0.19142582,9.083155,3.5653057,3
29753036137687,-0.30149564,9.202796,3.5174494,3
29753038516594,-0.37328035,9.164511,3.5509489,3
29753040895500,-0.47377887,9.044869,3.5509489,3
29753043274354,-0.5599205,9.131011,3.694518,3
29753045653260,-0.5072784,9.159725,3.7758741,3
29753048032114,-0.55513483,9.159725,3.8763726,3
29753050411073,-0.4833502,9.092726,3.900301,3
29753052789927,-0.42592242,9.178867,3.9242291,3
29753055168833,-0.35413775,9.15494,3.8093736,3
29753057547739,-0.36370903,9.135797,3.7040894,3
29753059926646,-0.22971097,9.131011,3.6370904,3
29753062305552,-0.19142582,9.150154,3.6610186,3
29753064684406,-0.20578274,9.092726,3.723232,3
29753067063312,-0.2009971,9.08794,3.7998023,3
29753069442219,-0.17706887,9.107083,3.751946,3
29753071821125,-0.2105684,9.097511,3.6323047,3
29753074200031,-0.2440679,9.174082,3.5940197,3
29753076578885,-0.30149564,9.217153,3.5557344,3
29753078957791,-0.34456646,9.135797,3.3643086,3
29753081336698,-0.4642076,9.169296,3.4313076,3
29753083715604,-0.41156548,9.159725,3.5844483,3
29753086094458,-0.55513483,9.174082,3.8955152,3
29753088473364,-0.53599226,9.049655,4.1491547,3
29753090852271,-0.526421,9.092726,4.3118663,3
29753093231177,-0.5312066,9.049655,4.0869412,3
29753095610031,-0.5168497,9.08794,3.8285162,3
29753097988937,-0.38285163,9.107083,3.6227336,3
29753100367844,-0.4019942,9.150154,3.641876,3
29753102746750,-0.37328035,9.097511,3.7806597,3
29753105125656,-0.30149564,9.0544405,3.9816568,3
29753107504510,-0.2536392,9.073584,3.9720855,3
29753109883416,-0.16749759,9.102298,3.8093736,3
29753112262323,-0.11964113,9.116654,3.5940197,3
29753114641229,-0.076570325,9.159725,3.4791641,3
29753117020083,-0.0526421,9.178867,3.4887354,3
29753119398989,-0.033499517,9.193225,3.6466618,3
29753121777896,-0.038285162,9.12144,3.7950168,3
29753124156802,-0.07178468,9.135797,3.8668015,3
29753126535708,-0.10049855,9.15494,3.8141594,3
29753128914562,-0.15792629,9.126225,3.7328033,3
29753131293469,-0.2440679,9.140582,3.6323047,3
29753133672375,-0.34456646,9.140582,3.656233,3
29753136051281,-0.4019942,9.12144,3.723232,3
29753138430135,-0.55034924,9.12144,3.7854455,3
29753140809041,-0.61734825,9.126225,3.7806597,3
29753143187948,-0.67477596,9.174082,3.7040894,3
29753145566854,-0.7369894,9.164511,3.6083765,3
29753147945708,-0.7848458,9.202796,3.5509489,3
29753150324614,-0.7752745,9.19801,3.5700915,3
29753152703521,-0.7513463,9.174082,3.6658044,3
29753155082375,-0.7369894,9.15494,3.7710886,3
29753157461333,-0.6891329,9.202796,3.8763726,3
29753159840187,-0.49292147,9.102298,3.7040894,3
29753162219094,-0.5024927,9.102298,3.5940197,3
29753164598000,-0.22971097,9.092726,3.5796626,3
29753166976906,-0.15792629,9.083155,3.7663028,3
29753169355760,-0.009571291,9.025727,3.952943,3
29753171734666,0.033499517,8.973084,4.1204405,3
29753174113573,0.17228323,8.987442,4.082155,3
29753176492479,0.17706887,9.035298,3.885944,3
29753178871385,0.22013968,9.068798,3.6610186,3
29753181250239,0.19142582,9.131011,3.574877,3
29753183629146,0.1052842,9.135797,3.641876,3
29753186008052,0.014356935,9.116654,3.8141594,3
29753188386958,-0.05742774,9.131011,3.9625144,3
29753190765812,-0.2009971,9.164511,3.9577286,3
29753193144719,-0.29671,9.183653,3.8572302,3
29753195523625,-0.39720857,9.193225,3.723232,3
29753197902531,-0.44506502,9.19801,3.6753755,3
29753200281385,-0.5455636,9.217153,3.723232,3
29753202660291,-0.5407779,9.178867,3.8524444,3
29753205039198,-0.5838487,9.150154,3.9338005,3
29753207418104,-0.56470615,9.174082,3.9098723,3
29753209797010,-0.5312066,9.169296,3.804588,3
29753212175864,-0.5024927,9.164511,3.6801612,3
29753214554771,-0.4546363,9.159725,3.5940197,3
29753216933677,-0.35413775,9.159725,3.603591,3
29753219312583,-0.30149564,9.126225,3.6610186,3
29753221691437,-0.2440679,9.116654,3.7615173,3
29753224070344,-0.13878371,9.116654,3.7758741,3
29753226449250,-0.09092726,9.140582,3.694518,3
29753228828156,-0.043070808,9.126225,3.6179478,3
29753231207062,-0.009571291,9.131011,3.5988052,3
29753233585916,0.023928227,9.116654,3.6370904,3
29753235964823,0.009571291,9.116654,3.7280176,3
29753238343729,-0.0526421,9.044869,3.7328033,3
29753240722635,-0.08135597,9.131011,3.871587,3
29753243101489,-0.08135597,9.044869,3.7806597,3
29753245480396,-0.15314065,9.135797,3.7567315,3
29753247859302,-0.16271193,9.111869,3.6610186,3
29753250238208,-0.19142582,9.116654,3.6466618,3
29753252617062,-0.22013968,9.131011,3.67059,3
29753254995969,-0.25842485,9.178867,3.7567315,3
29753257374875,-0.22013968,9.145369,3.7471602,3
29753259753781,-0.2632105,9.140582,3.7423747,3
29753262132635,-0.28235307,9.183653,3.7040894,3
29753264511541,-0.2632105,9.178867,3.6993039,3
29753266890448,-0.2440679,9.159725,3.6993039,3
29753269269354,-0.22971097,9.15494,3.7423747,3
29753271648260,-0.18664017,9.150154,3.7758741,3
29753274027166,-0.2105684,9.12144,3.7950168,3
29753276406021,-0.17706887,9.111869,3.7806597,3
29753278784927,-0.18185452,9.107083,3.7615173,3
29753281163833,-0.15314065,9.083155,3.7328033,3
29753283542739,-0.18185452,9.08794,3.7663028,3
29753285921594,-0.2105684,9.083155,3.790231,3
29753288300500,-0.26799613,9.068798,3.7950168,3
29753290679354,-0.30149564,9.08794,3.7950168,3
29753293058312,-0.3589234,9.116654,3.7423747,3
29753295437166,-0.41635114,9.111869,3.723232,3
29753297816073,-0.51206404,9.083155,3.7040894,3
29753300194979,-0.6029913,9.097511,3.737589,3
29753302573885,-0.66999036,9.078369,3.7854455,3
29753304952791,-0.76570326,9.092726,3.8380876,3
29753307331646,-0.82313097,9.097511,3.8476589,3
29753309710552,-0.8662018,9.102298,3.804588,3
29753312089458,-0.9092726,9.116654,3.7615173,3
29753314468364,-0.9236295,9.131011,3.6993039,3
29753316847271,-0.9284152,9.140582,3.6658044,3
29753319226125,-0.90448695,9.145369,3.6801612,3
29753321605031,-0.90448695,9.169296,3.6993039,3
29753323983937,-0.8805587,9.15494,3.6993039,3
29753326362844,-0.83748794,9.174082,3.7136607,3
29753328741698,-0.7609176,9.15494,3.7423747,3
29753331120604,-0.7082755,9.135797,3.7280176,3
29753333499510,-0.63170516,9.102298,3.7423747,3
29753335878416,-0.5455636,9.08794,3.7806597,3
29753338257323,-0.47377887,9.08794,3.8237305,3
29753340636177,-0.4019942,9.078369,3.8237305,3
29753343015083,-0.32542387,9.059227,3.818945,3
29753345393989,-0.28713873,9.078369,3.7806597,3
29753347772896,-0.26799613,9.068798,3.751946,3
29753350151802,-0.23928227,9.078369,3.7663028,3
29753352530656,-0.28235307,9.083155,3.8093736,3
29753354909562,-0.27756742,9.097511,3.8380876,3
29753357288469,-0.3062813,9.059227,3.8524444,3
29753359667375,-0.32063824,9.068798,3.818945,3
29753362046229,-0.36370903,9.097511,3.7950168,3
29753364425135,-0.3924229,9.126225,3.7710886,3
29753366804041,-0.4354937,9.169296,3.7950168,3
29753369182948,-0.47377887,9.150154,3.8237305,3
29753371561802,-0.4977071,9.145369,3.900301,3
29753373940708,-0.51206404,9.164511,3.9242291,3
29753376319614,-0.51206404,9.174082,3.8907297,3
29753378698521,-0.526421,9.183653,3.8333018,3
29753381077427,-0.51206404,9.183653,3.7758741,3
29753383456281,-0.5072784,9.188439,3.7806597,3
29753385835187,-0.47856453,9.12144,3.8285162,3
29753388214041,-0.43070808,9.092726,3.8811584,3
29753390593000,-0.37806597,9.08794,3.8811584,3
29753392971906,-0.36370903,9.097511,3.8285162,3
29753395350760,-0.31585258,9.083155,3.6514473,3
29753397729666,-0.3062813,9.111869,3.5653057,3
29753400108573,-0.24885355,9.092726,3.5509489,3
29753402487479,-0.25842485,9.073584,3.6179478,3
29753404866333,-0.25842485,9.059227,3.67059,3
29753407245239,-0.2536392,9.097511,3.6610186,3
29753409624146,-0.29192436,9.107083,3.5892339,3
29753412003052,-0.27756742,9.131011,3.5365918,3
29753414381906,-0.2727818,9.169296,3.5318062,3
29753416760812,-0.27756742,9.183653,3.6227336,3
29753419139719,-0.31585258,9.15494,3.7567315,3
29753421518625,-0.33020952,9.12144,3.8620157,3
29753423897531,-0.3397808,9.145369,3.8668015,3
29753426276385,-0.3589234,9.140582,3.804588,3
29753428655291,-0.38285163,9.140582,3.737589,3
29753431034198,-0.38763726,9.135797,3.7136607,3
29753433413104,-0.3924229,9.145369,3.7615173,3
29753435791958,-0.39720857,9.126225,3.8285162,3
29753438170864,-0.4019942,9.116654,3.885944,3
29753440549771,-0.41635114,9.111869,3.8811584,3
29753442928677,-0.4211368,9.102298,3.871587,3
29753445307583,-0.43070808,9.092726,3.8237305,3
29753447686437,-0.44027936,9.068798,3.8141594,3
29753450065344,-0.4211368,9.049655,3.8380876,3
29753452444250,-0.4211368,9.0544405,3.8763726,3
29753454823156,-0.42592242,9.044869,3.8811584,3
29753457202062,-0.43070808,9.064013,3.8380876,3
29753459580916,-0.41635114,9.064013,3.7854455,3
29753461959823,-0.41635114,9.078369,3.7423747,3
29753464338729,-0.43070808,9.078369,3.7184465,3
29753466717635,-0.4211368,9.102298,3.7423747,3
29753469096541,-0.4354937,9.078369,3.7758741,3
29753471475396,-0.4546363,9.083155,3.751946,3
29753473854302,-0.4546363,9.116654,3.694518,3
29753476233208,-0.44985065,9.131011,3.6370904,3
29753478612114,-0.45942193,9.140582,3.6083765,3
29753480990969,-0.46899325,9.159725,3.6083765,3
29753483369875,-0.45942193,9.183653,3.6466618,3
29753485748781,-0.47377887,9.169296,3.6466618,3
29753488127687,-0.47377887,9.174082,3.6466618,3
29753490506541,-0.4642076,9.19801,3.6323047,3
29753492885448,-0.4546363,9.221938,3.603591,3
29753495264354,-0.41635114,9.202796,3.603591,3
29753497643260,-0.42592242,9.19801,3.6275191,3
29753500022166,-0.38763726,9.183653,3.6753755,3
29753502401021,-0.38285163,9.174082,3.7040894,3
29753504779927,-0.3924229,9.145369,3.7136607,3
29753507158833,-0.37806597,9.126225,3.6849468,3
29753509537739,-0.37806597,9.126225,3.6658044,3
29753511916646,-0.36370903,9.116654,3.6610186,3
29753514295500,-0.3684947,9.116654,3.6849468,3
29753516674406,-0.4019942,9.08794,3.7088752,3
29753519053312,-0.41635114,9.078369,3.7471602,3
29753521432219,-0.46899325,9.083155,3.7615173,3
29753523811125,-0.49292147,9.068798,3.7758741,3
29753526189979,-0.53599226,9.044869,3.7806597,3
29753528568885,-0.5838487,9.040084,3.7806597,3
29753530947791,-0.6029913,9.040084,3.7854455,3
29753533326698,-0.63170516,9.059227,3.790231,3
29753535705604,-0.6652047,9.083155,3.7950168,3
29753538084458,-0.66999036,9.073584,3.804588,3
29753540463364,-0.6891329,9.083155,3.8141594,3
29753542842271,-0.74177504,9.102298,3.7998023,3
29753545221125,-0.72741807,9.111869,3.8141594,3
29753547600031,-0.7369894,9.116654,3.8524444,3
29753549978937,-0.7178468,9.131011,3.8811584,3
29753552357844,-0.6556334,9.116654,3.885944,3
29753554736750,-0.63170516,9.116654,3.8668015,3
29753557115604,-0.59342,9.140582,3.8237305,3
29753559494510,-0.53599226,9.140582,3.7806597,3
29753561873416,-0.5072784,9.164511,3.7567315,3
29753564252323,-0.44506502,9.193225,3.7471602,3
29753566631229,-0.41156548,9.15494,3.7328033,3
29753569010083,-0.3684947,9.183653,3.7423747,3
29753571388989,-0.31585258,9.183653,3.7471602,3
29753573767844,-0.29192436,9.183653,3.723232,3
29753576146802,-0.24885355,9.159725,3.7423747,3
29753578525708,-0.22013968,9.159725,3.7471602,3
29753580904562,-0.2009971,9.159725,3.751946,3
29753583283469,-0.18185452,9.116654,3.7758741,3
29753585662375,-0.2105684,9.12144,3.7710886,3
29753588041281,-0.20578274,9.116654,3.7950168,3
29753590420187,-0.2105684,9.111869,3.7806597,3
29753592799041,-0.21535404,9.116654,3.737589,3
29753595177948,-0.2440679,9.102298,3.7184465,3
29753597556854,-0.30149564,9.092726,3.737589,3
29753599935760,-0.34456646,9.073584,3.7328033,3
29753602314614,-0.3924229,9.068798,3.7663028,3
29753604693521,-0.45942193,9.044869,3.7663028,3
29753607072427,-0.51206404,9.030513,3.751946,3
29753609451333,-0.5694918,9.0544405,3.7280176,3
29753611830239,-0.6125626,9.073584,3.6993039,3
29753614209094,-0.6412765,9.068798,3.6897326,3
29753616588000,-0.6556334,9.073584,3.7040894,3
29753618966906,-0.6652047,9.049655,3.7184465,3
29753621345812,-0.6412765,9.097511,3.6801612,3
29753623724666,-0.6125626,9.102298,3.6610186,3
29753626103573,-0.5838487,9.140582,3.641876,3
29753628482479,-0.526421,9.159725,3.6323047,3
29753630861385,-0.46899325,9.178867,3.6658044,3
29753633240291,-0.4019942,9.193225,3.6753755,3
29753635619146,-0.35413775,9.193225,3.6897326,3
29753637998052,-0.32063824,9.212367,3.7136607,3
29753640376958,-0.2440679,9.19801,3.7040894,3
29753642755864,-0.2105684,9.193225,3.7088752,3
29753645134771,-0.17706887,9.188439,3.7184465,3
29753647513625,-0.16271193,9.19801,3.7423747,3
29753649892531,-0.15792629,9.159725,3.7471602,3
29753652271437,-0.18185452,9.164511,3.7471602,3
29753654650344,-0.22971097,9.15494,3.7280176,3
29753657029198,-0.2632105,9.15494,3.723232,3
29753659408104,-0.32063824,9.140582,3.7280176,3
29753661787010,-0.38285163,9.116654,3.737589,3
29753664165916,-0.4354937,9.107083,3.7423747,3
29753666544823,-0.51206404,9.092726,3.737589,3
29753668923677,-0.57906306,9.126225,3.7328033,3
29753671302583,-0.5982057,9.150154,3.7280176,3
29753673681489,-0.6412765,9.140582,3.737589,3
29753676060396,-0.65084773,9.111869,3.751946,3
29753678439302,-0.6221339,9.102298,3.7615173,3
29753680818208,-0.6221339,9.097511,3.7615173,3
29753683197062,-0.5886344,9.126225,3.751946,3
29753685575969,-0.53599226,9.126225,3.7088752,3
29753687954875,-0.4881358,9.12144,3.694518,3
29753690333781,-0.44506502,9.140582,3.6897326,3
29753692712583,-0.38285163,9.145369,3.6849468,3
29753695091541,-0.31585258,9.159725,3.6897326,3
29753697470448,-0.2632105,9.15494,3.723232,3
29753699849354,-0.22971097,9.15494,3.7280176,3
29753702228260,-0.21535404,9.150154,3.7471602,3
29753704607114,-0.21535404,9.140582,3.751946,3
29753706985969,-0.22492532,9.140582,3.7567315,3
29753709364927,-0.23928227,9.150154,3.751946,3
29753711743833,-0.26799613,9.135797,3.7663028,3
29753714122687,-0.30149564,9.145369,3.7806597,3
29753716501594,-0.3589234,9.159725,3.7710886,3
29753718880500,-0.4211368,9.140582,3.7710886,3
29753721259406,-0.47377887,9.145369,3.7471602,3
29753723638260,-0.51206404,9.145369,3.7567315,3
29753726017166,-0.5694918,9.12144,3.7615173,3
29753728396073,-0.6029913,9.140582,3.7710886,3
29753730774979,-0.5982057,9.107083,3.7663028,3
29753733153885,-0.6029913,9.097511,3.7615173,3
29753735532791,-0.5838487,9.08794,3.7663028,3
29753737911646,-0.5694918,9.092726,3.7567315,3
29753740290500,-0.5312066,9.092726,3.7806597,3
29753742669458,-0.4977071,9.092726,3.7710886,3
29753745048364,-0.45942193,9.08794,3.7854455,3
29753747427271,-0.37328035,9.092726,3.7854455,3
29753749806125,-0.31106696,9.092726,3.790231,3
29753752185031,-0.2727818,9.111869,3.7615173,3
29753754563937,-0.20578274,9.08794,3.7328033,3
29753756942844,-0.17706887,9.116654,3.737589,3
29753759321750,-0.148355,9.111869,3.7567315,3
29753761700604,-0.11006984,9.135797,3.7567315,3
29753764079510,-0.09092726,9.140582,3.751946,3
29753766458416,-0.08135597,9.131011,3.7136607,3
29753768837323,-0.086141616,9.126225,3.7040894,3
29753771216229,-0.11964113,9.131011,3.694518,3
29753773595083,-0.16271193,9.111869,3.6993039,3
29753775973989,-0.20578274,9.135797,3.7280176,3
29753778352896,-0.23928227,9.159725,3.737589,3
29753780731802,-0.32063824,9.169296,3.7088752,3
29753783110656,-0.33499518,9.159725,3.7136607,3
29753785489562,-0.35413775,9.150154,3.7328033,3
29753787868469,-0.41635114,9.145369,3.7423747,3
29753790247375,-0.46899325,9.135797,3.751946,3
29753792626281,-0.5024927,9.12144,3.751946,3
29753795005135,-0.5694918,9.12144,3.7136607,3
29753797384041,-0.55034924,9.126225,3.7088752,3
29753799762948,-0.5886344,9.116654,3.6849468,3
29753802141854,-0.6125626,9.131011,3.6753755,3
29753804520708,-0.6125626,9.111869,3.6801612,3
29753806899614,-0.6029913,9.116654,3.7040894,3
29753809278521,-0.5982057,9.126225,3.7184465,3
29753811657427,-0.57906306,9.107083,3.737589,3
29753814036333,-0.55034924,9.078369,3.7280176,3
29753816415239,-0.5312066,9.092726,3.7423747,3
29753818794094,-0.4977071,9.107083,3.7471602,3
29753821172948,-0.44506502,9.08794,3.7423747,3
29753823551906,-0.4211368,9.078369,3.7471602,3
29753825930812,-0.4019942,9.083155,3.7423747,3
29753828309666,-0.3684947,9.116654,3.7471602,3
29753830688573,-0.34456646,9.107083,3.7615173,3
29753833067479,-0.33499518,9.111869,3.7710886,3
29753835446385,-0.28713873,9.107083,3.7806597,3
29753837825291,-0.27756742,9.12144,3.7710886,3
29753840204146,-0.3062813,9.126225,3.804588,3
29753842583052,-0.32063824,9.126225,3.790231,3
29753844961958,-0.31585258,9.174082,3.7950168,3
29753847340864,-0.32063824,9.183653,3.7854455,3
29753849719771,-0.32542387,9.178867,3.790231,3
29753852098625,-0.32063824,9.169296,3.7663028,3
29753854477531,-0.3062813,9.178867,3.7615173,3
29753856856437,-0.33499518,9.19801,3.7710886,3
29753859235344,-0.37328035,9.183653,3.7806597,3
29753861614250,-0.38285163,9.183653,3.7950168,3
29753863993104,-0.41635114,9.145369,3.7758741,3
29753866371958,-0.44027936,9.140582,3.7615173,3
29753868750916,-0.44985065,9.145369,3.751946,3
29753871129823,-0.47856453,9.12144,3.751946,3
29753873508729,-0.4833502,9.08794,3.751946,3
29753875887583,-0.49292147,9.08794,3.751946,3
29753878266489,-0.526421,9.08794,3.7423747,3
29753880645396,-0.51206404,9.08794,3.723232,3
29753883024302,-0.5072784,9.083155,3.7328033,3
29753885403208,-0.4546363,9.073584,3.7423747,3
29753887782062,-0.42592242,9.059227,3.6993039,3
29753890160969,-0.38285163,9.078369,3.7088752,3
29753892539875,-0.3493521,9.068798,3.7184465,3
29753894918781,-0.31585258,9.078369,3.723232,3
29753897297687,-0.2632105,9.068798,3.7280176,3
29753899676541,-0.20578274,9.107083,3.7280176,3
29753902055448,-0.18185452,9.097511,3.694518,3
29753904434354,-0.16749759,9.111869,3.6753755,3
29753906813260,-0.148355,9.126225,3.6897326,3
29753909192166,-0.15314065,9.135797,3.694518,3
29753911571021,-0.17228323,9.135797,3.7040894,3
29753913949927,-0.19142582,9.15494,3.723232,3
29753916328833,-0.19142582,9.131011,3.7040894,3
29753918707739,-0.22971097,9.164511,3.7040894,3
29753921086594,-0.27756742,9.174082,3.7280176,3
29753923465500,-0.3397808,9.140582,3.751946,3
29753925844406,-0.41156548,9.150154,3.7710886,3
29753928223312,-0.4642076,9.140582,3.7615173,3
29753930602219,-0.5599205,9.150154,3.751946,3
29753932981125,-0.61734825,9.159725,3.737589,3
29753935359979,-0.6652047,9.183653,3.737589,3
29753937738885,-0.6843473,9.178867,3.7423747,3
29753940117791,-0.6939186,9.150154,3.7806597,3
29753942496698,-0.72263247,9.135797,3.7998023,3
29753944875552,-0.71306115,9.135797,3.8093736,3
29753947254458,-0.67477596,9.131011,3.804588,3
29753949633364,-0.64606214,9.135797,3.8093736,3
29753952012271,-0.57906306,9.12144,3.8093736,3
29753954391177,-0.5312066,9.102298,3.8093736,3
29753956770031,-0.46899325,9.078369,3.8141594,3
29753959148937,-0.3924229,9.049655,3.7663028,3
29753961527844,-0.32063824,9.049655,3.723232,3
29753963906750,-0.27756742,9.073584,3.6610186,3
29753966285656,-0.2105684,9.092726,3.656233,3
29753968664510,-0.18664017,9.08794,3.6897326,3
29753971043416,-0.19142582,9.102298,3.7328033,3
29753973422323,-0.18664017,9.097511,3.7758741,3
29753975801229,-0.2009971,9.107083,3.7615173,3
29753978180135,-0.2440679,9.107083,3.751946,3
29753980558989,-0.2727818,9.102298,3.737589,3
29753982937896,-0.3062813,9.12144,3.7615173,3
29753985316802,-0.36370903,9.140582,3.8093736,3
29753987695708,-0.41156548,9.140582,3.8572302,3
29753990074614,-0.45942193,9.131011,3.8763726,3
29753992453469,-0.4977071,9.140582,3.8763726,3
29753994832375,-0.526421,9.164511,3.8333018,3
29753997211281,-0.526421,9.174082,3.7615173,3
29753999590187,-0.53599226,9.183653,3.723232,3
29754001969094,-0.526421,9.183653,3.7280176,3
29754004347948,-0.5168497,9.188439,3.751946,3
29754006726854,-0.4546363,9.174082,3.751946,3
29754009105760,-0.4211368,9.193225,3.7615173,3
29754011484666,-0.38763726,9.169296,3.7328033,3
29754013863573,-0.30149564,9.169296,3.7136607,3
29754016242375,-0.24885355,9.126225,3.7184465,3
29754018621333,-0.18664017,9.116654,3.7567315,3
29754021000239,-0.13399807,9.102298,3.7998023,3
29754023379146,-0.086141616,9.097511,3.818945,3
29754025758052,-0.07178468,9.08794,3.8141594,3
29754028136906,-0.0526421,9.126225,3.7758741,3
29754030515812,-0.043070808,9.107083,3.7423747,3
29754032894719,-0.06699903,9.08794,3.737589,3
29754035273625,-0.11964113,9.083155,3.751946,3
29754037652531,-0.148355,9.08794,3.7950168,3
29754040031385,-0.22971097,9.092726,3.8093736,3
29754042410291,-0.3062813,9.102298,3.8141594,3
29754044789198,-0.3924229,9.083155,3.804588,3
29754047168104,-0.47377887,9.102298,3.7806597,3
29754049547010,-0.56470615,9.116654,3.7758741,3
29754051925864,-0.6221339,9.111869,3.7950168,3
29754054304771,-0.65084773,9.102298,3.8333018,3
29754056683677,-0.70348984,9.102298,3.8285162,3
29754059062583,-0.71306115,9.116654,3.804588,3
29754061441489,-0.71306115,9.116654,3.7854455,3
29754063820344,-0.70348984,9.12144,3.7567315,3
29754066199250,-0.6843473,9.135797,3.7423747,3
29754068578156,-0.6412765,9.131011,3.751946,3
29754070957062,-0.60777694,9.135797,3.751946,3
29754073335969,-0.5312066,9.15494,3.7328033,3
29754075714823,-0.4833502,9.140582,3.7184465,3
29754078093729,-0.44506502,9.135797,3.7088752,3
29754080472635,-0.39720857,9.135797,3.7136607,3
29754082851541,-0.33020952,9.135797,3.7136607,3
29754085230448,-0.31585258,9.135797,3.723232,3
29754087609302,-0.30149564,9.145369,3.7136607,3
29754089988208,-0.3062813,9.150154,3.7088752,3
29754092367114,-0.31585258,9.15494,3.6849468,3
29754094746021,-0.32542387,9.135797,3.6658044,3
29754097124927,-0.3397808,9.145369,3.6658044,3
29754099503833,-0.35413775,9.15494,3.6658044,3
29754101882687,-0.4019942,9.145369,3.7088752,3
29754104261594,-0.4354937,9.15494,3.7328033,3
29754106640500,-0.46899325,9.135797,3.7328033,3
29754109019406,-0.4977071,9.135797,3.737589,3
29754111398260,-0.5024927,9.097511,3.737589,3
29754113777166,-0.5168497,9.111869,3.7471602,3
29754116156073,-0.52163535,9.111869,3.7758741,3
29754118534979,-0.51206404,9.092726,3.7998023,3
29754120913885,-0.47856453,9.078369,3.7950168,3
29754123292739,-0.44985065,9.08794,3.7854455,3
29754125671646,-0.42592242,9.083155,3.7710886,3
29754128050552,-0.4019942,9.083155,3.737589,3
29754130429458,-0.3589234,9.102298,3.7280176,3
29754132808312,-0.33020952,9.102298,3.7280176,3
29754135187219,-0.33020952,9.102298,3.7280176,3
29754137566125,-0.31106696,9.097511,3.723232,3
29754139945031,-0.3062813,9.116654,3.723232,3
29754142323937,-0.31585258,9.131011,3.7136607,3
29754144702844,-0.35413775,9.145369,3.694518,3
29754147081750,-0.36370903,9.135797,3.694518,3
29754149460604,-0.3684947,9.131011,3.7136607,3
29754151839510,-0.40677986,9.131011,3.7280176,3
29754154218416,-0.41635114,9.145369,3.7280176,3
29754156597323,-0.43070808,9.159725,3.7328033,3
29754158976229,-0.43070808,9.140582,3.7280176,3
29754161355083,-0.4642076,9.140582,3.737589,3
29754163733937,-0.4833502,9.150154,3.737589,3
29754166112896,-0.47856453,9.135797,3.7663028,3
29754168491802,-0.4642076,9.150154,3.7710886,3
29754170870708,-0.47377887,9.140582,3.7663028,3
29754173249562,-0.4546363,9.131011,3.7663028,3
29754175628469,-0.4546363,9.12144,3.7710886,3
29754178007375,-0.41635114,9.116654,3.751946,3
29754180386281,-0.3924229,9.12144,3.7328033,3
29754182765187,-0.3589234,9.097511,3.723232,3
29754185144041,-0.33499518,9.107083,3.737589,3
29754187522948,-0.30149564,9.078369,3.751946,3
29754189901854,-0.32542387,9.068798,3.737589,3
29754192280760,-0.32542387,9.083155,3.7423747,3
29754194659666,-0.31585258,9.083155,3.7567315,3
29754197038521,-0.3493521,9.064013,3.737589,3
29754199417427,-0.38285163,9.08794,3.7280176,3
29754201796333,-0.41635114,9.107083,3.7280176,3
29754204175239,-0.4211368,9.097511,3.7280176,3
29754206554146,-0.44506502,9.107083,3.7136607,3
29754208933052,-0.4833502,9.116654,3.6993039,3
29754211311906,-0.49292147,9.131011,3.7136607,3
29754213690812,-0.5168497,9.150154,3.6993039,3
29754216069719,-0.5312066,9.145369,3.7040894,3
29754218448625,-0.5407779,9.145369,3.6993039,3
29754220827531,-0.55034924,9.150154,3.6658044,3
29754223206385,-0.5694918,9.15494,3.6801612,3
29754225585291,-0.55034924,9.131011,3.7040894,3
29754227964198,-0.5024927,9.183653,3.737589,3
29754230343104,-0.4546363,9.164511,3.723232,3
29754232722010,-0.43070808,9.169296,3.7184465,3
29754235100864,-0.43070808,9.169296,3.694518,3
29754237479771,-0.39720857,9.169296,3.6993039,3
29754239858677,-0.37806597,9.183653,3.6993039,3
29754242237583,-0.3397808,9.15494,3.7184465,3
29754244616489,-0.33499518,9.131011,3.737589,3
29754246995344,-0.31106696,9.12144,3.7423747,3
29754249374250,-0.30149564,9.135797,3.737589,3
29754251753156,-0.28713873,9.12144,3.7423747,3
29754254132062,-0.28235307,9.135797,3.7567315,3
29754256510969,-0.31585258,9.097511,3.7758741,3
29754258889823,-0.32063824,9.08794,3.7615173,3
29754261268729,-0.3493521,9.102298,3.7423747,3
29754263647635,-0.38763726,9.083155,3.7328033,3
29754266026541,-0.42592242,9.078369,3.7088752,3
29754268405448,-0.44985065,9.08794,3.6897326,3
29754270784302,-0.44985065,9.092726,3.6753755,3
29754273163208,-0.47856453,9.107083,3.67059,3
29754275542114,-0.51206404,9.145369,3.6849468,3
29754277921021,-0.51206404,9.159725,3.7280176,3
29754280299927,-0.52163535,9.164511,3.790231,3
29754282678833,-0.4881358,9.15494,3.8524444,3
29754285057687,-0.4881358,9.15494,3.8907297,3
29754287436594,-0.45942193,9.174082,3.9098723,3
29754289815500,-0.41156548,9.15494,3.9290147,3
29754292194406,-0.38763726,9.150154,3.9481573,3
29754294573312,-0.3397808,9.164511,3.9673,3
29754296952166,-0.28713873,9.135797,4.005585,3
29754299331073,-0.23928227,9.12144,4.0151563,3
29754301709979,-0.23928227,9.097511,3.9816568,3
29754304088885,-0.22492532,9.097511,3.9194436,3
29754306467791,-0.20578274,9.078369,3.842873,3
29754308846646,-0.19142582,9.08794,3.737589,3
29754311225552,-0.2009971,9.097511,3.6849468,3
29754313604458,-0.23449662,9.073584,3.6658044,3
29754315983364,-0.2727818,9.083155,3.6323047,3
29754318362271,-0.32063824,9.08794,3.6131623,3
29754320741177,-0.36370903,9.107083,3.6179478,3
29754323120031,-0.39720857,9.107083,3.5940197,3
29754325498937,-0.4546363,9.131011,3.5892339,3
29754327877844,-0.5312066,9.12144,3.603591,3
29754330256750,-0.5886344,9.12144,3.6370904,3
29754332635656,-0.6556334,9.135797,3.6801612,3
29754335014510,-0.7465607,9.174082,3.7040894,3
29754337393416,-0.79441714,9.164511,3.6993039,3
29754339772323,-0.79441714,9.183653,3.6993039,3
29754342151229,-0.7896315,9.193225,3.7040894,3
29754344530135,-0.79441714,9.164511,3.7088752,3
29754346908989,-0.79441714,9.174082,3.737589,3
29754349287896,-0.7609176,9.174082,3.737589,3
29754351666802,-0.72741807,9.15494,3.751946,3
29754354045708,-0.6412765,9.150154,3.7615173,3
29754356424614,-0.59342,9.126225,3.7615173,3
29754358803469,-0.5455636,9.102298,3.7471602,3
29754361182375,-0.4642076,9.097511,3.7471602,3
29754363561281,-0.38763726,9.08794,3.7758741,3
29754365940187,-0.33020952,9.073584,3.7758741,3
29754368319094,-0.28235307,9.078369,3.7806597,3
29754370698000,-0.22013968,9.08794,3.7615173,3
29754373076854,-0.16271193,9.078369,3.7710886,3
29754375455760,-0.15314065,9.064013,3.7567315,3
29754377834666,-0.13878371,9.064013,3.751946,3
29754380213573,-0.1052842,9.049655,3.7615173,3
29754382592479,-0.11964113,9.078369,3.7710886,3
29754384971333,-0.12921242,9.097511,3.7615173,3
29754387350239,-0.13399807,9.107083,3.7806597,3
29754389729146,-0.16749759,9.131011,3.7758741,3
29754392108052,-0.17706887,9.12144,3.7567315,3
29754394486958,-0.21535404,9.12144,3.7710886,3
29754396865812,-0.23449662,9.145369,3.7615173,3
29754399244719,-0.2632105,9.150154,3.7663028,3
29754401623625,-0.30149564,9.174082,3.7806597,3
29754404002531,-0.3493521,9.193225,3.7710886,3
29754406381437,-0.37806597,9.174082,3.7854455,3
29754408760344,-0.4019942,9.150154,3.7710886,3
29754411139198,-0.40677986,9.159725,3.7663028,3
29754413518104,-0.41635114,9.150154,3.751946,3
29754415897010,-0.42592242,9.135797,3.7423747,3
29754418275916,-0.42592242,9.126225,3.7280176,3
29754420654823,-0.41635114,9.097511,3.7471602,3
29754423033677,-0.40677986,9.097511,3.7663028,3
29754425412531,-0.3924229,9.097511,3.7615173,3
29754427791489,-0.37806597,9.078369,3.7758741,3
29754430170396,-0.36370903,9.083155,3.7806597,3
29754432549302,-0.3589234,9.097511,3.7854455,3
29754434928156,-0.3493521,9.102298,3.7998023,3
29754437307062,-0.37806597,9.08794,3.7854455,3
29754439685969,-0.41635114,9.078369,3.7806597,3
29754442064875,-0.42592242,9.097511,3.7567315,3
29754444443781,-0.43070808,9.097511,3.7615173,3
29754446822687,-0.47856453,9.107083,3.7615173,3
29754449201541,-0.4881358,9.08794,3.7663028,3
29754451580448,-0.49292147,9.12144,3.7615173,3
29754453959354,-0.5024927,9.12144,3.7471602,3
29754456338260,-0.4977071,9.131011,3.7136607,3
29754458717166,-0.49292147,9.159725,3.7184465,3
29754461096021,-0.49292147,9.169296,3.7280176,3
29754463474927,-0.47377887,9.145369,3.7471602,3
29754465853833,-0.44506502,9.145369,3.723232,3
29754468232739,-0.44985065,9.131011,3.7136607,3
29754470611646,-0.4354937,9.164511,3.7184465,3
29754472990552,-0.39720857,9.164511,3.7040894,3
29754475369406,-0.36370903,9.145369,3.694518,3
29754477748312,-0.34456646,9.131011,3.6897326,3
29754480127219,-0.33499518,9.140582,3.6849468,3
29754482506125,-0.32063824,9.150154,3.7088752,3
29754484885031,-0.32063824,9.145369,3.7136607,3
29754487263885,-0.32063824,9.15494,3.7088752,3
29754489642791,-0.31106696,9.140582,3.7088752,3
29754492021698,-0.33499518,9.145369,3.723232,3
29754494400604,-0.35413775,9.12144,3.7184465,3
29754496779510,-0.3493521,9.131011,3.7567315,3
29754499158416,-0.37328035,9.140582,3.7806597,3
29754501537271,-0.39720857,9.111869,3.790231,3
29754503916177,-0.41156548,9.092726,3.7663028,3
29754506295083,-0.4354937,9.102298,3.7615173,3
29754508673989,-0.44027936,9.111869,3.7615173,3
29754511052896,-0.44985065,9.097511,3.7758741,3
29754513431750,-0.4642076,9.092726,3.790231,3
29754515810604,-0.47856453,9.111869,3.7854455,3
29754518189562,-0.4881358,9.131011,3.7806597,3
29754520568469,-0.47377887,9.097511,3.7806597,3
29754522947375,-0.44985065,9.097511,3.7758741,3
29754525326229,-0.4211368,9.131011,3.7806597,3
29754527705135,-0.42592242,9.126225,3.7854455,3
29754530084041,-0.3924229,9.12144,3.7950168,3
29754532462948,-0.3924229,9.126225,3.7998023,3
29754534841854,-0.37806597,9.140582,3.7998023,3
29754537220760,-0.36370903,9.140582,3.790231,3
29754539599666,-0.3493521,9.140582,3.804588,3
29754541978521,-0.3589234,9.116654,3.7998023,3
29754544357375,-0.3493521,9.107083,3.790231,3
29754546736333,-0.34456646,9.145369,3.8093736,3
29754549115187,-0.33020952,9.140582,3.7998023,3
29754551494146,-0.3397808,9.145369,3.7758741,3
29754553873000,-0.38285163,9.131011,3.7663028,3
29754556251906,-0.37806597,9.12144,3.7567315,3
29754558630812,-0.41635114,9.116654,3.7615173,3
29754561009719,-0.42592242,9.107083,3.7471602,3
29754563388625,-0.4642076,9.111869,3.7471602,3
29754565767479,-0.5024927,9.102298,3.7184465,3
29754568146385,-0.5455636,9.102298,3.7184465,3
29754570525291,-0.5694918,9.116654,3.6993039,3
29754572904198,-0.5694918,9.116654,3.6753755,3
29754575283104,-0.6029913,9.12144,3.6801612,3
29754577662010,-0.5982057,9.12144,3.6849468,3
29754580040864,-0.5886344,9.131011,3.6897326,3
29754582419771,-0.5982057,9.12144,3.694518,3
29754584798677,-0.5838487,9.131011,3.6897326,3
29754587177583,-0.5694918,9.126225,3.6897326,3
29754589556489,-0.53599226,9.135797,3.7088752,3
29754591935344,-0.5407779,9.111869,3.694518,3
29754594314250,-0.4977071,9.111869,3.7088752,3
29754596693156,-0.4546363,9.140582,3.6993039,3
29754599072062,-0.44027936,9.126225,3.6849468,3
29754601450969,-0.40677986,9.111869,3.6753755,3
29754603829875,-0.4019942,9.131011,3.6801612,3
29754606208729,-0.38285163,9.111869,3.6993039,3
29754608587635,-0.38763726,9.111869,3.7040894,3
29754610966541,-0.41635114,9.107083,3.7088752,3
29754613345448,-0.42592242,9.097511,3.723232,3
29754615724354,-0.4354937,9.097511,3.7088752,3
29754618103260,-0.45942193,9.116654,3.6993039,3
29754620482114,-0.47856453,9.116654,3.7088752,3
29754622861021,-0.51206404,9.102298,3.6897326,3
29754625239927,-0.53599226,9.111869,3.6658044,3
29754627618833,-0.5407779,9.126225,3.6801612,3
29754629997739,-0.5694918,9.116654,3.6801612,3
29754632376594,-0.5599205,9.140582,3.6993039,3
29754634755500,-0.57427746,9.150154,3.7280176,3
29754637134406,-0.5694918,9.145369,3.7471602,3
29754639513312,-0.57906306,9.116654,3.737589,3
29754641892219,-0.5838487,9.12144,3.7423747,3
29754644271125,-0.5455636,9.140582,3.7615173,3
29754646649979,-0.51206404,9.159725,3.7758741,3
29754649028885,-0.49292147,9.135797,3.7758741,3
29754651407791,-0.47377887,9.126225,3.7854455,3
29754653786698,-0.44985065,9.12144,3.7758741,3
29754656165604,-0.38763726,9.107083,3.7950168,3
29754658544458,-0.3684947,9.111869,3.7950168,3
29754660923364,-0.3397808,9.078369,3.7710886,3
29754663302271,-0.33020952,9.111869,3.7663028,3
29754665681177,-0.31106696,9.102298,3.7423747,3
29754668060083,-0.29671,9.111869,3.7423747,3
29754670438989,-0.29192436,9.092726,3.7280176,3
29754672817844,-0.30149564,9.107083,3.7328033,3
29754675196750,-0.31585258,9.092726,3.7184465,3
29754677575656,-0.32542387,9.097511,3.7328033,3
29754679954562,-0.32542387,9.116654,3.7471602,3
29754682333469,-0.3493521,9.116654,3.7471602,3
29754684712375,-0.38763726,9.107083,3.751946,3
29754687091229,-0.4019942,9.107083,3.7280176,3
29754689470135,-0.3924229,9.126225,3.7040894,3
29754691849041,-0.3924229,9.116654,3.7136607,3
29754694227948,-0.40677986,9.131011,3.7088752,3
29754696606854,-0.40677986,9.150154,3.7184465,3
29754698985708,-0.39720857,9.15494,3.7088752,3
29754701364614,-0.40677986,9.15494,3.694518,3
29754703743521,-0.37806597,9.164511,3.6849468,3
29754706122427,-0.38285163,9.164511,3.6849468,3
29754708501333,-0.3589234,9.169296,3.6801612,3
29754710880239,-0.3589234,9.174082,3.694518,3
29754713259094,-0.33020952,9.178867,3.723232,3
29754715638000,-0.3397808,9.159725,3.7423747,3
29754718016906,-0.3493521,9.150154,3.7615173,3
29754720395812,-0.34456646,9.164511,3.7615173,3
29754722774719,-0.3397808,9.131011,3.7471602,3
29754725153625,-0.34456646,9.159725,3.7471602,3
29754727532479,-0.36370903,9.135797,3.7663028,3
29754729911385,-0.37806597,9.135797,3.7854455,3
29754732290291,-0.38763726,9.102298,3.7806597,3
29754734669198,-0.39720857,9.107083,3.7758741,3
29754737048104,-0.41635114,9.107083,3.7806597,3
29754739426958,-0.40677986,9.102298,3.7854455,3
29754741805864,-0.41156548,9.102298,3.804588,3
29754744184771,-0.42592242,9.083155,3.7806597,3
29754746563677,-0.4211368,9.097511,3.7663028,3
29754748942583,-0.41156548,9.116654,3.7950168,3
29754751321489,-0.4019942,9.111869,3.8093736,3
29754753700396,-0.40677986,9.116654,3.804588,3
29754756079250,-0.37328035,9.097511,3.8093736,3
29754758458156,-0.3684947,9.08794,3.790231,3
29754760837062,-0.35413775,9.092726,3.7758741,3
29754763215969,-0.32063824,9.092726,3.7950168,3
29754765594823,-0.32063824,9.097511,3.7806597,3
29754767973729,-0.33020952,9.092726,3.7806597,3
29754770352635,-0.3062813,9.107083,3.7758741,3
29754772731541,-0.33020952,9.12144,3.7806597,3
29754775110448,-0.3493521,9.116654,3.7663028,3
29754777489354,-0.37328035,9.12144,3.7663028,3
29754779868260,-0.37806597,9.140582,3.7136607,3
29754782247114,-0.4019942,9.145369,3.7184465,3
29754784626021,-0.43070808,9.150154,3.7088752,3
29754787004927,-0.41635114,9.188439,3.6849468,3
29754789383833,-0.46899325,9.193225,3.6753755,3
29754791762739,-0.4833502,9.183653,3.6897326,3
29754794141646,-0.49292147,9.188439,3.6993039,3
29754796520500,-0.4977071,9.15494,3.7088752,3
29754798899406,-0.5072784,9.15494,3.6993039,3
29754801278312,-0.5072784,9.140582,3.723232,3
29754803657219,-0.51206404,9.140582,3.7328033,3
29754806036125,-0.47856453,9.135797,3.7423747,3
29754808415031,-0.4642076,9.140582,3.7567315,3
29754810793885,-0.4642076,9.116654,3.7615173,3
29754813172791,-0.4642076,9.08794,3.7615173,3
29754815551698,-0.44506502,9.102298,3.7567315,3
29754817930604,-0.42592242,9.126225,3.751946,3
29754820309510,-0.40677986,9.126225,3.7328033,3
29754822688364,-0.39720857,9.111869,3.751946,3
29754825067271,-0.3924229,9.111869,3.7710886,3
29754827446177,-0.4019942,9.107083,3.7663028,3
29754829825083,-0.43070808,9.092726,3.7567315,3
29754832203989,-0.4354937,9.102298,3.7615173,3
29754834582896,-0.43070808,9.08794,3.751946,3
29754836961698,-0.44027936,9.097511,3.7471602,3
29754839340656,-0.42592242,9.08794,3.7567315,3
29754841719562,-0.4354937,9.092726,3.7423747,3
29754844098469,-0.4546363,9.126225,3.7567315,3
29754846477375,-0.45942193,9.12144,3.7615173,3
29754848856281,-0.4642076,9.116654,3.7663028,3
29754851235135,-0.4354937,9.140582,3.7471602,3
29754853614041,-0.41635114,9.145369,3.7710886,3
29754855992948,-0.43070808,9.111869,3.7710886,3
29754858371854,-0.41156548,9.107083,3.7806597,3
29754860750760,-0.4019942,9.092726,3.7663028,3
29754863129666,-0.37328035,9.12144,3.7615173,3
29754865508573,-0.3589234,9.131011,3.7663028,3
29754867887427,-0.3397808,9.135797,3.751946,3
29754870266333,-0.3397808,9.131011,3.7136607,3
29754872645239,-0.33499518,9.116654,3.7040894,3
29754875024146,-0.31585258,9.111869,3.7184465,3
29754877403052,-0.33020952,9.131011,3.7328033,3
29754879781906,-0.31585258,9.116654,3.7328033,3
29754882160812,-0.30149564,9.111869,3.7328033,3
29754884539719,-0.3062813,9.097511,3.7184465,3
29754886918625,-0.32542387,9.111869,3.7280176,3
29754889297531,-0.3493521,9.097511,3.7280176,3
29754891676437,-0.36370903,9.097511,3.7328033,3
29754894055291,-0.38763726,9.078369,3.723232,3
29754896434198,-0.4019942,9.102298,3.7280176,3
29754898813104,-0.44506502,9.092726,3.7280176,3
29754901192010,-0.4546363,9.102298,3.7328033,3
29754903570916,-0.5024927,9.111869,3.737589,3
29754905949823,-0.5312066,9.107083,3.7328033,3
29754908328677,-0.55034924,9.107083,3.7328033,3
29754910707583,-0.55513483,9.116654,3.7471602,3
29754913086489,-0.57427746,9.126225,3.7328033,3
29754915465396,-0.5838487,9.126225,3.7184465,3
29754917844302,-0.5694918,9.145369,3.7040894,3
29754920223208,-0.53599226,9.126225,3.7184465,3
29754922602062,-0.51206404,9.150154,3.723232,3
29754924980969,-0.4977071,9.164511,3.723232,3
29754927359875,-0.47377887,9.145369,3.7423747,3
29754929738781,-0.44506502,9.12144,3.7615173,3
29754932117687,-0.39720857,9.12144,3.7758741,3
29754934496541,-0.3684947,9.12144,3.7710886,3
29754936875448,-0.35413775,9.107083,3.7806597,3
29754939254354,-0.34456646,9.092726,3.7758741,3
29754941633260,-0.34456646,9.097511,3.7998023,3
29754944012166,-0.33020952,9.102298,3.790231,3
29754946391073,-0.3397808,9.097511,3.790231,3
29754948769979,-0.36370903,9.092726,3.7806597,3
29754951148833,-0.38285163,9.083155,3.7758741,3
29754953527739,-0.4211368,9.107083,3.7567315,3
29754955906646,-0.4546363,9.111869,3.7280176,3
29754958285552,-0.51206404,9.107083,3.7136607,3
29754960664458,-0.55034924,9.102298,3.7136607,3
29754963043364,-0.5982057,9.126225,3.7088752,3
29754965422219,-0.6221339,9.126225,3.6993039,3
29754967801125,-0.65084773,9.135797,3.7040894,3
29754970180031,-0.6843473,9.150154,3.7328033,3
29754972558937,-0.6987042,9.126225,3.7471602,3
29754974937844,-0.66999036,9.145369,3.7615173,3
29754977316750,-0.6364908,9.131011,3.7758741,3
29754979695604,-0.5982057,9.135797,3.7758741,3
29754982074510,-0.56470615,9.131011,3.818945,3
29754984453416,-0.52163535,9.135797,3.8333018,3
29754986832323,-0.4833502,9.12144,3.8285162,3
29754989211229,-0.44027936,9.135797,3.8141594,3
29754991590135,-0.40677986,9.145369,3.7998023,3
29754993968989,-0.37328035,9.159725,3.8093736,3
29754996347896,-0.34456646,9.164511,3.7854455,3
29754998726802,-0.32542387,9.150154,3.7710886,3
29755001105708,-0.32063824,9.131011,3.7806597,3
29755003484614,-0.3397808,9.107083,3.7806597,3
29755005863521,-0.36370903,9.131011,3.7567315,3
29755008242427,-0.3684947,9.135797,3.7567315,3
29755010621281,-0.4019942,9.135797,3.7615173,3
29755013000187,-0.4354937,9.116654,3.751946,3
29755015379094,-0.44506502,9.111869,3.7710886,3
29755017758000,-0.4881358,9.111869,3.7615173,3
29755020136906,-0.5024927,9.097511,3.7806597,3
29755022515760,-0.52163535,9.073584,3.7710886,3
29755024894666,-0.53599226,9.078369,3.751946,3
29755027273573,-0.55034924,9.102298,3.7423747,3
29755029652479,-0.5407779,9.08794,3.7423747,3
29755032031385,-0.53599226,9.08794,3.7423747,3
29755034410291,-0.53599226,9.097511,3.7567315,3
29755036789198,-0.5024927,9.092726,3.737589,3
29755039168052,-0.44985065,9.092726,3.7328033,3
29755041546958,-0.41635114,9.092726,3.7280176,3
29755043925864,-0.38285163,9.092726,3.7088752,3
29755046304771,-0.36370903,9.126225,3.7136607,3
29755048683677,-0.33020952,9.159725,3.7328033,3
29755051062583,-0.27756742,9.150154,3.7280176,3
29755053441437,-0.2536392,9.15494,3.737589,3
29755055820344,-0.23449662,9.131011,3.7184465,3
29755058199250,-0.23928227,9.107083,3.694518,3
29755060578156,-0.2440679,9.116654,3.6849468,3
29755062957062,-0.2536392,9.126225,3.6897326,3
29755065335969,-0.23928227,9.145369,3.6897326,3
29755067714823,-0.25842485,9.150154,3.7040894,3
29755070093729,-0.31106696,9.131011,3.7088752,3
29755072472635,-0.33499518,9.15494,3.7184465,3
29755074851541,-0.34456646,9.145369,3.7136607,3
29755077230448,-0.37806597,9.12144,3.7040894,3
29755079609354,-0.41156548,9.107083,3.6993039,3
29755081988208,-0.41635114,9.102298,3.7088752,3
29755084367114,-0.4354937,9.116654,3.7328033,3
29755086746021,-0.44985065,9.12144,3.723232,3
29755089124927,-0.45942193,9.102298,3.7088752,3
29755091503833,-0.4546363,9.102298,3.7040894,3
29755093882739,-0.4642076,9.092726,3.6753755,3
29755096261646,-0.46899325,9.097511,3.6849468,3
29755098640500,-0.4354937,9.08794,3.6658044,3
29755101019406,-0.44985065,9.107083,3.67059,3
29755103398312,-0.4642076,9.111869,3.6849468,3
29755105777219,-0.4642076,9.107083,3.7184465,3
29755108156125,-0.4354937,9.135797,3.7088752,3
29755110535031,-0.41156548,9.135797,3.6753755,3
29755112913885,-0.44506502,9.131011,3.6849468,3
29755115292791,-0.43070808,9.15494,3.6897326,3
29755117671698,-0.41635114,9.164511,3.7088752,3
29755120050604,-0.4354937,9.15494,3.7088752,3
29755122429510,-0.43070808,9.140582,3.737589,3
29755124808364,-0.44506502,9.174082,3.737589,3
29755127187271,-0.44027936,9.159725,3.7423747,3
29755129566177,-0.44985065,9.169296,3.7280176,3
29755131945083,-0.45942193,9.150154,3.7328033,3
29755134323989,-0.45942193,9.145369,3.7328033,3
29755136702896,-0.46899325,9.12144,3.7423747,3
29755139081802,-0.4833502,9.126225,3.7471602,3
29755141460656,-0.45942193,9.12144,3.7471602,3
29755143839562,-0.4642076,9.12144,3.751946,3
29755146218469,-0.42592242,9.097511,3.737589,3
29755148597375,-0.4211368,9.078369,3.737589,3
29755150976281,-0.4211368,9.08794,3.7567315,3
29755153355187,-0.4019942,9.097511,3.7423747,3
29755155734094,-0.39720857,9.097511,3.723232,3
29755158112948,-0.41156548,9.102298,3.6993039,3
29755160491854,-0.43070808,9.092726,3.7040894,3
29755162870760,-0.41635114,9.078369,3.7184465,3
29755165249666,-0.38763726,9.08794,3.7088752,3
29755167628573,-0.39720857,9.08794,3.723232,3
29755170007479,-0.4019942,9.102298,3.7328033,3
29755172386333,-0.41635114,9.102298,3.7328033,3
29755174765239,-0.42592242,9.107083,3.7423747,3
29755177144146,-0.41156548,9.111869,3.7280176,3
29755179523052,-0.40677986,9.126225,3.737589,3
29755181901958,-0.4211368,9.12144,3.7567315,3
29755184280864,-0.37328035,9.131011,3.7663028,3
29755186659771,-0.38285163,9.12144,3.7758741,3
29755189038625,-0.38763726,9.116654,3.7567315,3
29755191417531,-0.38285163,9.150154,3.7710886,3
29755193796437,-0.3684947,9.135797,3.7615173,3
29755196175344,-0.33020952,9.12144,3.7806597,3
29755198554250,-0.3397808,9.126225,3.7615173,3
29755200933156,-0.32542387,9.131011,3.7423747,3
29755203312010,-0.31106696,9.12144,3.7615173,3
29755205690916,-0.30149564,9.131011,3.7328033,3
29755208069823,-0.31585258,9.12144,3.7280176,3
29755210448729,-0.32542387,9.131011,3.7280176,3
29755212827635,-0.3397808,9.126225,3.723232,3
29755215206541,-0.33020952,9.116654,3.7328033,3
29755217585396,-0.34456646,9.111869,3.7280176,3
29755219964302,-0.3924229,9.111869,3.7423747,3
29755222343208,-0.40677986,9.107083,3.7328033,3
29755224722114,-0.44985065,9.08794,3.7423747,3
29755227101021,-0.47377887,9.102298,3.737589,3
29755229479927,-0.5024927,9.102298,3.7471602,3
29755231858833,-0.53599226,9.092726,3.7615173,3
29755234237687,-0.5455636,9.092726,3.7710886,3
29755236616594,-0.57427746,9.107083,3.7328033,3
29755238995500,-0.5886344,9.12144,3.7328033,3
29755241374406,-0.6029913,9.12144,3.7471602,3
29755243753312,-0.5982057,9.150154,3.7423747,3
29755246132219,-0.5599205,9.159725,3.7615173,3
29755248511073,-0.55034924,9.145369,3.7854455,3
29755250889979,-0.5168497,9.159725,3.804588,3
29755253268885,-0.46899325,9.15494,3.8141594,3
29755255647791,-0.4546363,9.159725,3.8141594,3
29755258026698,-0.40677986,9.164511,3.7998023,3
29755260405604,-0.35413775,9.145369,3.804588,3
29755262784510,-0.31585258,9.131011,3.818945,3
29755265163364,-0.30149564,9.174082,3.8237305,3
29755267542271,-0.29192436,9.150154,3.8093736,3
29755269921177,-0.27756742,9.135797,3.7998023,3
29755272300083,-0.2632105,9.12144,3.790231,3
29755274678989,-0.23449662,9.12144,3.7567315,3
29755277057844,-0.22971097,9.111869,3.7663028,3
29755279436802,-0.2536392,9.08794,3.790231,3
29755281815656,-0.2632105,9.078369,3.7950168,3
29755284194510,-0.32063824,9.08794,3.7998023,3
29755286573469,-0.3397808,9.073584,3.818945,3
29755288952375,-0.34456646,9.068798,3.8141594,3
29755291331281,-0.38285163,9.083155,3.8237305,3
29755293710187,-0.3924229,9.092726,3.7854455,3
29755296089041,-0.4211368,9.107083,3.790231,3
29755298467948,-0.4546363,9.116654,3.7998023,3
29755300846854,-0.4642076,9.126225,3.818945,3
29755303225760,-0.46899325,9.126225,3.8237305,3
29755305604666,-0.4546363,9.140582,3.804588,3
29755307983573,-0.4642076,9.145369,3.804588,3
29755310362479,-0.4354937,9.174082,3.7950168,3
29755312741333,-0.41156548,9.164511,3.8141594,3
29755315120239,-0.38763726,9.150154,3.804588,3
29755317499146,-0.37328035,9.164511,3.8093736,3
29755319878052,-0.35413775,9.131011,3.7950168,3
29755322256958,-0.33020952,9.131011,3.7854455,3
29755324635864,-0.31585258,9.15494,3.7758741,3
29755327014719,-0.3062813,9.15494,3.751946,3
29755329393625,-0.29671,9.145369,3.7471602,3
29755331772531,-0.32063824,9.140582,3.7280176,3
29755334151437,-0.3397808,9.131011,3.7184465,3
29755336530344,-0.36370903,9.12144,3.723232,3
29755338909250,-0.39720857,9.12144,3.723232,3
29755341288156,-0.40677986,9.107083,3.6993039,3
29755343667010,-0.41156548,9.111869,3.6897326,3
29755346045916,-0.44027936,9.102298,3.694518,3
29755348424823,-0.4642076,9.078369,3.7184465,3
29755350803729,-0.47377887,9.116654,3.7136607,3
29755353182635,-0.4546363,9.111869,3.7184465,3
29755355561541,-0.45942193,9.097511,3.7328033,3
29755357940396,-0.42592242,9.111869,3.7184465,3
29755360319302,-0.41635114,9.111869,3.7088752,3
29755362698208,-0.4211368,9.145369,3.6993039,3
29755365077114,-0.4019942,9.140582,3.7040894,3
29755367456021,-0.3589234,9.126225,3.737589,3
29755369834927,-0.35413775,9.135797,3.7423747,3
29755372213833,-0.30149564,9.12144,3.7663028,3
29755374592687,-0.29192436,9.12144,3.7710886,3
29755376971594,-0.29671,9.140582,3.7567315,3
29755379350500,-0.2727818,9.131011,3.7710886,3
29755381729406,-0.28235307,9.12144,3.7615173,3
29755384108312,-0.29192436,9.107083,3.751946,3
29755386487219,-0.29192436,9.097511,3.7567315,3
29755388866125,-0.3062813,9.097511,3.7615173,3
29755391244979,-0.31106696,9.097511,3.7615173,3
29755393623885,-0.33499518,9.097511,3.7615173,3
29755396002791,-0.35413775,9.102298,3.7471602,3
29755398381698,-0.38285163,9.102298,3.7471602,3
29755400760604,-0.40677986,9.107083,3.751946,3
29755403139510,-0.4211368,9.083155,3.737589,3
29755405518416,-0.4642076,9.102298,3.7136607,3
29755407897271,-0.49292147,9.097511,3.7088752,3
29755410276177,-0.4881358,9.097511,3.7040894,3
29755412655083,-0.47856453,9.073584,3.7040894,3
29755415033989,-0.47377887,9.102298,3.7184465,3
29755417412896,-0.4546363,9.107083,3.7328033,3
29755419791802,-0.4642076,9.116654,3.7471602,3
29755422170708,-0.44985065,9.102298,3.7423747,3
29755424549562,-0.4354937,9.135797,3.7567315,3
29755426928469,-0.41635114,9.140582,3.7567315,3
29755429307375,-0.3924229,9.145369,3.7806597,3
29755431686281,-0.37806597,9.159725,3.7806597,3
29755434065187,-0.3589234,9.140582,3.7950168,3
29755436444094,-0.3493521,9.140582,3.7998023,3
29755438822948,-0.37328035,9.131011,3.804588,3
29755441201854,-0.35413775,9.135797,3.8141594,3
29755443580760,-0.36370903,9.140582,3.7950168,3
29755445959666,-0.35413775,9.12144,3.7758741,3
29755448338573,-0.37328035,9.131011,3.7854455,3
29755450717479,-0.39720857,9.116654,3.790231,3
29755453096385,-0.38285163,9.131011,3.7950168,3
29755455475239,-0.3493521,9.107083,3.8141594,3
29755457854146,-0.3397808,9.107083,3.8141594,3
29755460233052,-0.34456646,9.097511,3.8285162,3
29755462611958,-0.32542387,9.107083,3.804588,3
29755464990864,-0.3397808,9.107083,3.8093736,3
29755467369771,-0.31106696,9.08794,3.7806597,3
29755469748625,-0.2727818,9.092726,3.7567315,3
29755472127531,-0.26799613,9.102298,3.7328033,3
29755474506437,-0.23449662,9.083155,3.7184465,3
29755476885344,-0.22971097,9.097511,3.7136607,3
29755479264250,-0.22492532,9.092726,3.7040894,3
29755481643156,-0.2440679,9.092726,3.6849468,3
29755484022062,-0.23928227,9.102298,3.6658044,3
29755486400969,-0.23449662,9.102298,3.656233,3
29755488779823,-0.2727818,9.12144,3.6514473,3
29755491158729,-0.31585258,9.145369,3.6753755,3
29755493537635,-0.35413775,9.140582,3.7280176,3
29755495916541,-0.3924229,9.140582,3.737589,3
29755498295448,-0.4354937,9.131011,3.737589,3
29755500674354,-0.47856453,9.131011,3.6993039,3
29755503053208,-0.526421,9.15494,3.67059,3
29755505432114,-0.5886344,9.140582,3.6801612,3
29755507811021,-0.60777694,9.178867,3.6897326,3
29755510189927,-0.5982057,9.19801,3.7088752,3
29755512568833,-0.63170516,9.174082,3.7280176,3
29755514947739,-0.6412765,9.150154,3.737589,3
29755517326646,-0.61734825,9.150154,3.7280176,3
29755519705552,-0.5838487,9.140582,3.7136607,3
29755522084406,-0.5599205,9.145369,3.7280176,3
29755524463312,-0.4881358,9.111869,3.7663028,3
29755526842219,-0.4211368,9.102298,3.7998023,3
29755529221125,-0.39720857,9.092726,3.8093736,3
29755531599979,-0.3493521,9.083155,3.790231,3
29755533978937,-0.31106696,9.078369,3.7710886,3
29755536357844,-0.28235307,9.068798,3.7710886,3
29755538736750,-0.2632105,9.059227,3.7615173,3
29755541115604,-0.26799613,9.068798,3.751946,3
29755543494510,-0.25842485,9.064013,3.7567315,3
29755545873416,-0.27756742,9.064013,3.7663028,3
29755548252323,-0.28235307,9.083155,3.7567315,3
29755550631229,-0.3062813,9.092726,3.7567315,3
29755553010135,-0.32542387,9.102298,3.723232,3
29755555388989,-0.3589234,9.126225,3.7136607,3
29755557767896,-0.38763726,9.135797,3.7136607,3
29755560146802,-0.40677986,9.135797,3.7136607,3
29755562525708,-0.44027936,9.131011,3.7328033,3
29755564904614,-0.43070808,9.145369,3.751946,3
29755567283521,-0.44506502,9.135797,3.737589,3
29755569662427,-0.45942193,9.150154,3.7280176,3
29755572041281,-0.44027936,9.131011,3.7280176,3
29755574420187,-0.44027936,9.140582,3.7280176,3
29755576799094,-0.44027936,9.140582,3.737589,3
29755579178000,-0.4211368,9.15494,3.737589,3
29755581556906,-0.41635114,9.15494,3.737589,3
29755583935812,-0.3684947,9.150154,3.737589,3
29755586314719,-0.3493521,9.15494,3.737589,3
29755588693573,-0.3397808,9.150154,3.7328033,3
29755591072479,-0.3062813,9.131011,3.7328033,3
29755593451385,-0.3062813,9.126225,3.7184465,3
29755595830291,-0.30149564,9.145369,3.7758741,3
29755598209198,-0.29671,9.131011,3.7806597,3
29755600588104,-0.33020952,9.131011,3.7998023,3
29755602967010,-0.31585258,9.131011,3.7950168,3
29755605345916,-0.32063824,9.135797,3.7854455,3
29755607724771,-0.3397808,9.140582,3.7710886,3
29755610103677,-0.35413775,9.126225,3.7710886,3
29755612482583,-0.3589234,9.126225,3.7615173,3
29755614861489,-0.39720857,9.140582,3.7758741,3
29755617240396,-0.3924229,9.150154,3.7758741,3
29755619619302,-0.43070808,9.140582,3.7710886,3
29755621998208,-0.44027936,9.140582,3.7615173,3
29755624377114,-0.4546363,9.145369,3.7423747,3
29755626755969,-0.46899325,9.159725,3.737589,3
29755629134875,-0.4833502,9.145369,3.7184465,3
29755631513781,-0.526421,9.159725,3.7040894,3
29755633892687,-0.52163535,9.169296,3.7040894,3
29755636271594,-0.52163535,9.140582,3.6993039,3
29755638650500,-0.53599226,9.102298,3.6849468,3
29755641029406,-0.57427746,9.111869,3.6753755,3
29755643408260,-0.5838487,9.12144,3.6610186,3
29755645787166,-0.61734825,9.111869,3.6658044,3
29755648166073,-0.6221339,9.131011,3.6658044,3
29755650544979,-0.6221339,9.131011,3.6514473,3
29755652923885,-0.6556334,9.116654,3.6323047,3
29755655302791,-0.6652047,9.145369,3.6466618,3
29755657681646,-0.66041905,9.135797,3.656233,3
29755660060552,-0.66041905,9.126225,3.6514473,3
29755662439458,-0.64606214,9.116654,3.6610186,3
29755664818364,-0.65084773,9.107083,3.6849468,3
29755667197271,-0.6125626,9.092726,3.6801612,3
29755669576177,-0.5599205,9.092726,3.694518,3
29755671955083,-0.55034924,9.107083,3.6801612,3
29755674333989,-0.4977071,9.08794,3.6897326,3
29755676712844,-0.4546363,9.073584,3.6897326,3
29755679091750,-0.40677986,9.073584,3.6849468,3
29755681470604,-0.3493521,9.068798,3.6993039,3
29755683849562,-0.33499518,9.068798,3.6993039,3
29755686228469,-0.32063824,9.107083,3.7040894,3
29755688607375,-0.28713873,9.097511,3.7136607,3
29755690986281,-0.31106696,9.107083,3.723232,3
29755693365187,-0.31585258,9.102298,3.737589,3
29755695744041,-0.32063824,9.08794,3.7567315,3
29755698122948,-0.32542387,9.097511,3.7663028,3
29755700501854,-0.3589234,9.08794,3.7806597,3
29755702880760,-0.39720857,9.097511,3.804588,3
29755705259666,-0.4354937,9.097511,3.804588,3
29755707638573,-0.47377887,9.116654,3.8093736,3
29755710017479,-0.5168497,9.126225,3.7950168,3
29755712396333,-0.5599205,9.12144,3.804588,3
29755714775239,-0.5886344,9.116654,3.7998023,3
29755717154146,-0.61734825,9.126225,3.7950168,3
29755719533052,-0.6269195,9.150154,3.7950168,3
29755721911958,-0.61734825,9.140582,3.7758741,3
29755724290864,-0.5982057,9.135797,3.751946,3
29755726669771,-0.55513483,9.140582,3.7328033,3
29755729048677,-0.526421,9.140582,3.7280176,3
29755731427531,-0.4977071,9.126225,3.7280176,3
29755733806437,-0.44985065,9.116654,3.7328033,3
29755736185344,-0.37328035,9.116654,3.7328033,3
29755738564250,-0.32063824,9.116654,3.7184465,3
29755740943156,-0.28235307,9.107083,3.7088752,3
29755743322062,-0.26799613,9.107083,3.7040894,3
29755745700969,-0.2105684,9.12144,3.6801612,3
29755748079823,-0.19621146,9.140582,3.7088752,3
29755750458729,-0.2009971,9.150154,3.7136607,3
29755752837635,-0.2105684,9.183653,3.7184465,3
29755755216541,-0.22013968,9.178867,3.6993039,3
29755757595448,-0.24885355,9.150154,3.7040894,3
29755759974354,-0.30149564,9.164511,3.7184465,3
29755762353260,-0.3684947,9.150154,3.7328033,3
29755764732114,-0.4019942,9.15494,3.7423747,3
29755767111021,-0.44985065,9.140582,3.7471602,3
29755769489927,-0.5168497,9.126225,3.7423747,3
29755771868833,-0.5694918,9.12144,3.737589,3
29755774247739,-0.6029913,9.145369,3.7567315,3
29755776626646,-0.6412765,9.145369,3.7615173,3
29755779005552,-0.66999036,9.159725,3.7710886,3
29755781384458,-0.66999036,9.145369,3.7567315,3
29755783763312,-0.6652047,9.140582,3.737589,3
29755786142219,-0.66041905,9.150154,3.737589,3
29755788521125,-0.6364908,9.169296,3.7471602,3
29755790900031,-0.60777694,9.145369,3.7471602,3
29755793278937,-0.57906306,9.140582,3.7423747,3
29755795657844,-0.5599205,9.126225,3.7615173,3
29755798036750,-0.55034924,9.116654,3.7710886,3
29755800415604,-0.5168497,9.12144,3.7567315,3
29755802794510,-0.4833502,9.126225,3.7280176,3
29755805173364,-0.44506502,9.111869,3.737589,3
29755807552323,-0.4211368,9.111869,3.7184465,3
29755809931229,-0.40677986,9.102298,3.7280176,3
29755812310135,-0.4019942,9.111869,3.7471602,3
29755814689041,-0.41635114,9.135797,3.7710886,3
29755817067948,-0.43070808,9.150154,3.7710886,3
29755819446802,-0.4354937,9.145369,3.7328033,3
29755821825708,-0.4546363,9.164511,3.737589,3
29755824204614,-0.47856453,9.135797,3.7184465,3
29755826583521,-0.5168497,9.15494,3.7184465,3
29755828962427,-0.5455636,9.135797,3.7328033,3
29755831341333,-0.56470615,9.150154,3.7471602,3
29755833720239,-0.5838487,9.145369,3.7328033,3
29755836099146,-0.61734825,9.131011,3.7423747,3
29755838478000,-0.61734825,9.12144,3.7280176,3
29755840856906,-0.6221339,9.140582,3.723232,3
29755843235812,-0.6364908,9.131011,3.7184465,3
29755845614719,-0.6221339,9.159725,3.737589,3
29755847993625,-0.6125626,9.15494,3.7471602,3
29755850372531,-0.59342,9.15494,3.7806597,3
29755852751437,-0.55513483,9.145369,3.7758741,3
29755855130291,-0.526421,9.135797,3.7663028,3
29755857509198,-0.51206404,9.159725,3.7758741,3
29755859888104,-0.526421,9.150154,3.7663028,3
29755862267010,-0.47856453,9.135797,3.7471602,3
29755864645916,-0.44506502,9.12144,3.7758741,3
29755867024823,-0.38285163,9.12144,3.7663028,3
29755869403729,-0.37806597,9.126225,3.7471602,3
29755871782635,-0.37328035,9.140582,3.7471602,3
29755874161541,-0.36370903,9.116654,3.737589,3
29755876540396,-0.35413775,9.111869,3.737589,3
29755878919302,-0.35413775,9.126225,3.737589,3
29755881298208,-0.3493521,9.140582,3.7280176,3
29755883677114,-0.3493521,9.116654,3.7280176,3
29755886056021,-0.3589234,9.102298,3.7184465,3
29755888434927,-0.35413775,9.097511,3.7040894,3
29755890813833,-0.37328035,9.102298,3.6801612,3
29755893192739,-0.3589234,9.116654,3.7040894,3
29755895571594,-0.3684947,9.12144,3.7280176,3
29755897950500,-0.38285163,9.107083,3.7184465,3
29755900329406,-0.37328035,9.145369,3.7328033,3
29755902708312,-0.38763726,9.150154,3.723232,3
29755905087219,-0.4211368,9.150154,3.7184465,3
29755907466125,-0.41635114,9.174082,3.7088752,3
29755909845031,-0.38285163,9.164511,3.7184465,3
29755912223937,-0.38763726,9.164511,3.7328033,3
29755914602791,-0.41635114,9.159725,3.737589,3
29755916981698,-0.41156548,9.159725,3.723232,3
29755919360552,-0.4211368,9.174082,3.723232,3
29755921739510,-0.46899325,9.150154,3.7184465,3
29755924118416,-0.4833502,9.150154,3.7136607,3
29755926497323,-0.5072784,9.145369,3.7040894,3
29755928876229,-0.51206404,9.145369,3.7280176,3
29755931255135,-0.52163535,9.15494,3.737589,3
29755933633989,-0.55034924,9.126225,3.737589,3
29755936012896,-0.56470615,9.116654,3.7328033,3
29755938391802,-0.5694918,9.12144,3.737589,3
29755940770708,-0.57906306,9.111869,3.7280176,3
29755943149614,-0.57427746,9.08794,3.7136607,3
29755945528521,-0.5886344,9.092726,3.7184465,3
29755947907427,-0.59342,9.092726,3.723232,3
29755950286281,-0.57906306,9.102298,3.7088752,3
29755952665187,-0.5599205,9.102298,3.7136607,3
29755955044094,-0.5312066,9.092726,3.6993039,3
29755957423000,-0.5168497,9.111869,3.6993039,3
29755959801906,-0.5072784,9.092726,3.694518,3
29755962180812,-0.47377887,9.107083,3.7136607,3
29755964559719,-0.44506502,9.107083,3.7184465,3
29755966938625,-0.4211368,9.126225,3.7088752,3
29755969317479,-0.38763726,9.135797,3.7136607,3
29755971696385,-0.37328035,9.12144,3.7040894,3
29755974075291,-0.3589234,9.131011,3.6801612,3
29755976454198,-0.3589234,9.12144,3.6849468,3
29755978833104,-0.35413775,9.126225,3.6801612,3
29755981212010,-0.3924229,9.126225,3.694518,3
29755983590916,-0.38763726,9.116654,3.723232,3
29755985969823,-0.42592242,9.140582,3.7136607,3
29755988348677,-0.4546363,9.145369,3.7184465,3
29755990727583,-0.47377887,9.126225,3.7040894,3
29755993106489,-0.4881358,9.111869,3.7088752,3
29755995485396,-0.4977071,9.140582,3.7040894,3
29755997864302,-0.526421,9.116654,3.7280176,3
29756000243208,-0.53599226,9.102298,3.7184465,3
29756002622114,-0.5168497,9.107083,3.7136607,3
29756005001021,-0.5407779,9.092726,3.7184465,3
29756007379927,-0.52163535,9.107083,3.7136607,3
29756009758781,-0.5072784,9.116654,3.723232,3
29756012137687,-0.4642076,9.126225,3.723232,3
29756014516594,-0.44985065,9.135797,3.7328033,3
29756016895500,-0.43070808,9.111869,3.723232,3
29756019274406,-0.39720857,9.102298,3.7040894,3
29756021653312,-0.3397808,9.116654,3.6993039,3
29756024032219,-0.32063824,9.131011,3.6897326,3
29756026411125,-0.30149564,9.135797,3.723232,3
29756028790031,-0.33499518,9.111869,3.7184465,3
29756031168885,-0.32063824,9.116654,3.7184465,3
29756033547791,-0.31106696,9.111869,3.7184465,3
29756035926698,-0.3493521,9.092726,3.7088752,3
29756038305604,-0.35413775,9.111869,3.7040894,3
29756040684510,-0.38763726,9.126225,3.7088752,3
29756043063416,-0.41156548,9.131011,3.7328033,3
29756045442323,-0.44506502,9.092726,3.7423747,3
29756047821177,-0.4833502,9.116654,3.7328033,3
29756050200083,-0.51206404,9.102298,3.7423747,3
29756052578989,-0.5168497,9.102298,3.737589,3
29756054957896,-0.5407779,9.111869,3.723232,3
29756057336802,-0.5599205,9.116654,3.737589,3
29756059715708,-0.5694918,9.126225,3.7423747,3
29756062094614,-0.55034924,9.116654,3.7567315,3
29756064473521,-0.526421,9.102298,3.7567315,3
29756066852427,-0.5072784,9.116654,3.751946,3
29756069231281,-0.47377887,9.116654,3.7471602,3
29756071610187,-0.4546363,9.12144,3.737589,3
29756073989094,-0.40677986,9.135797,3.7280176,3
29756076368000,-0.3684947,9.126225,3.7136607,3
29756078746906,-0.3493521,9.131011,3.723232,3
29756081125812,-0.3397808,9.140582,3.723232,3
29756083504719,-0.31106696,9.131011,3.7280176,3
29756085883625,-0.28713873,9.145369,3.7280176,3
29756088262479,-0.28235307,9.140582,3.7280176,3
29756090641385,-0.26799613,9.145369,3.7471602,3
29756093020291,-0.2536392,9.174082,3.751946,3
29756095399198,-0.2632105,9.169296,3.751946,3
29756097778104,-0.27756742,9.150154,3.7567315,3
29756100157010,-0.33020952,9.164511,3.7615173,3
29756102535916,-0.33020952,9.150154,3.7663028,3
29756104914823,-0.35413775,9.126225,3.7663028,3
29756107293729,-0.37328035,9.126225,3.751946,3
29756109672583,-0.38763726,9.111869,3.751946,3
29756112051489,-0.40677986,9.102298,3.7615173,3
29756114430396,-0.4354937,9.107083,3.751946,3
29756116809302,-0.43070808,9.116654,3.7758741,3
29756119188208,-0.4211368,9.140582,3.7854455,3
29756121567114,-0.42592242,9.131011,3.790231,3
29756123946021,-0.41156548,9.097511,3.7663028,3
29756126324927,-0.39720857,9.111869,3.7758741,3
29756128703781,-0.40677986,9.08794,3.7758741,3
29756131082687,-0.41156548,9.092726,3.7998023,3
29756133461594,-0.40677986,9.102298,3.8141594,3
29756135840500,-0.37806597,9.131011,3.7998023,3
29756138219406,-0.37328035,9.145369,3.7710886,3
29756140598312,-0.32542387,9.15494,3.751946,3
29756142977219,-0.32063824,9.150154,3.7471602,3
29756145356125,-0.32063824,9.140582,3.7328033,3
29756147735031,-0.32542387,9.15494,3.737589,3
29756150113885,-0.33020952,9.159725,3.7615173,3
29756152492791,-0.31106696,9.15494,3.7615173,3
29756154871698,-0.32542387,9.145369,3.751946,3
29756157250604,-0.33020952,9.15494,3.737589,3
29756159629510,-0.3493521,9.126225,3.7280176,3
29756162008416,-0.34456646,9.12144,3.7423747,3
29756164387323,-0.35413775,9.131011,3.737589,3
29756166766229,-0.33020952,9.140582,3.7423747,3
29756169145135,-0.3589234,9.140582,3.7471602,3
29756171523989,-0.3493521,9.131011,3.737589,3
29756173902896,-0.3493521,9.102298,3.7280176,3
29756176281802,-0.33020952,9.102298,3.723232,3
29756178660708,-0.31585258,9.135797,3.7280176,3
29756181039614,-0.2727818,9.131011,3.751946,3
29756183418521,-0.23928227,9.102298,3.7663028,3
29756185797427,-0.22492532,9.092726,3.7663028,3
29756188176333,-0.19621146,9.131011,3.7423747,3
29756190555187,-0.18664017,9.135797,3.7280176,3
29756192934094,-0.15792629,9.107083,3.723232,3
29756195313000,-0.148355,9.102298,3.7280176,3
29756197691906,-0.124426775,9.107083,3.7280176,3
29756200070812,-0.11485548,9.097511,3.7471602,3
29756202449719,-0.148355,9.111869,3.7471602,3
29756204828625,-0.15792629,9.116654,3.723232,3
29756207207531,-0.15314065,9.116654,3.6897326,3
29756209586437,-0.15314065,9.116654,3.7136607,3
29756211965344,-0.19142582,9.097511,3.7184465,3
29756214344198,-0.22492532,9.12144,3.7136607,3
29756216723104,-0.2727818,9.12144,3.723232,3
29756219102010,-0.25842485,9.135797,3.723232,3
29756221480916,-0.26799613,9.131011,3.7184465,3
29756223859823,-0.28235307,9.131011,3.694518,3
29756226238729,-0.30149564,9.131011,3.6993039,3
29756228617635,-0.32063824,9.135797,3.7088752,3
29756230996541,-0.31585258,9.140582,3.7040894,3
29756233375396,-0.31585258,9.126225,3.737589,3
29756235754302,-0.32063824,9.131011,3.751946,3
29756238133208,-0.29671,9.116654,3.7471602,3
29756240512114,-0.28235307,9.150154,3.751946,3
29756242891021,-0.27756742,9.131011,3.7471602,3
29756245269927,-0.26799613,9.107083,3.737589,3
29756247648833,-0.25842485,9.111869,3.7567315,3
29756250027739,-0.2440679,9.092726,3.7615173,3
29756252406646,-0.2536392,9.12144,3.7663028,3
29756254785500,-0.22013968,9.126225,3.7758741,3
29756257164406,-0.22971097,9.116654,3.7663028,3
29756259543312,-0.23449662,9.111869,3.7615173,3
29756261922219,-0.24885355,9.097511,3.7567315,3
29756264301125,-0.22492532,9.097511,3.7710886,3
29756266680031,-0.24885355,9.08794,3.7567315,3
29756269058937,-0.28713873,9.102298,3.7280176,3
29756271437844,-0.31106696,9.097511,3.7040894,3
29756273816750,-0.32063824,9.078369,3.7040894,3
29756276195604,-0.37328035,9.092726,3.6849468,3
29756278574510,-0.3924229,9.116654,3.6753755,3
29756280953416,-0.4019942,9.12144,3.67059,3
29756283332323,-0.43070808,9.131011,3.6849468,3
29756285711229,-0.45942193,9.12144,3.7136607,3
29756288090135,-0.4546363,9.135797,3.7280176,3
29756290469041,-0.44506502,9.111869,3.7471602,3
29756292847948,-0.43070808,9.102298,3.7663028,3
29756295226854,-0.4354937,9.12144,3.7615173,3
29756297605708,-0.42592242,9.140582,3.7567315,3
29756299984614,-0.41635114,9.135797,3.7806597,3
29756302363521,-0.42592242,9.126225,3.7854455,3
29756304742427,-0.4019942,9.12144,3.7854455,3
29756307121333,-0.3924229,9.107083,3.7710886,3
29756309500239,-0.38285163,9.111869,3.751946,3
29756311879146,-0.37806597,9.102298,3.7423747,3
29756314258052,-0.3924229,9.111869,3.751946,3
29756316636958,-0.37806597,9.12144,3.7663028,3
29756319015812,-0.4019942,9.12144,3.7663028,3
29756321394719,-0.4019942,9.102298,3.751946,3
29756323773625,-0.3924229,9.107083,3.7615173,3
29756326152531,-0.38763726,9.102298,3.7423747,3
29756328531437,-0.37806597,9.102298,3.7567315,3
29756330910344,-0.38763726,9.102298,3.7710886,3
29756333289250,-0.38763726,9.102298,3.7663028,3
29756335668156,-0.38763726,9.102298,3.7471602,3
29756338047062,-0.3684947,9.116654,3.7280176,3
29756340425969,-0.3684947,9.12144,3.7423747,3
29756342804823,-0.3493521,9.131011,3.751946,3
29756345183729,-0.33020952,9.131011,3.7710886,3
29756347562635,-0.3062813,9.140582,3.7567315,3
29756349941541,-0.31585258,9.164511,3.7423747,3
29756352320448,-0.28713873,9.150154,3.737589,3
29756354699354,-0.2632105,9.140582,3.7423747,3
29756357078260,-0.23449662,9.15494,3.7567315,3
29756359457166,-0.22492532,9.169296,3.7567315,3
29756361836073,-0.22971097,9.145369,3.7567315,3
29756364214979,-0.2440679,9.116654,3.7758741,3
29756366593833,-0.23928227,9.111869,3.7615173,3
29756368972739,-0.27756742,9.131011,3.7710886,3
29756371351646,-0.28713873,9.116654,3.7567315,3
29756373730552,-0.30149564,9.116654,3.7423747,3
29756376109458,-0.3397808,9.111869,3.737589,3
29756378488364,-0.37328035,9.102298,3.7615173,3
29756380867271,-0.40677986,9.12144,3.7710886,3
29756383246177,-0.44506502,9.116654,3.7663028,3
29756385625031,-0.44985065,9.116654,3.7710886,3
29756388003937,-0.47856453,9.116654,3.751946,3
29756390382844,-0.5024927,9.107083,3.7423747,3
29756392761750,-0.49292147,9.102298,3.7328033,3
29756395140656,-0.47856453,9.111869,3.7328033,3
29756397519562,-0.47856453,9.107083,3.7471602,3
29756399898469,-0.44985065,9.092726,3.737589,3
29756402277375,-0.44027936,9.083155,3.723232,3
29756404656281,-0.40677986,9.12144,3.7136607,3
29756407035187,-0.38763726,9.107083,3.694518,3
29756409414041,-0.38763726,9.135797,3.6897326,3
29756411792948,-0.34456646,9.135797,3.6897326,3
29756414171854,-0.3589234,9.135797,3.6897326,3
29756416550760,-0.38285163,9.140582,3.7040894,3
29756418929666,-0.38285163,9.135797,3.7088752,3
29756421308573,-0.38763726,9.15494,3.694518,3
29756423687479,-0.41635114,9.174082,3.6993039,3
29756426066385,-0.43070808,9.159725,3.7136607,3
29756428445291,-0.39720857,9.164511,3.7136607,3
29756430824198,-0.4354937,9.164511,3.723232,3
29756433203052,-0.44506502,9.174082,3.7423747,3
29756435581958,-0.4546363,9.169296,3.7423747,3
29756437960864,-0.47377887,9.159725,3.751946,3
29756440339771,-0.47856453,9.159725,3.7615173,3
29756442718677,-0.4881358,9.178867,3.7758741,3
29756445097583,-0.45942193,9.15494,3.7710886,3
29756447476489,-0.44506502,9.135797,3.7710886,3
29756449855396,-0.42592242,9.116654,3.7663028,3
29756452234302,-0.39720857,9.111869,3.7806597,3
29756454613208,-0.3684947,9.111869,3.7806597,3
29756456992062,-0.34456646,9.12144,3.7758741,3
29756459370969,-0.32542387,9.102298,3.7663028,3
29756461749875,-0.29192436,9.083155,3.7710886,3
29756464128781,-0.26799613,9.083155,3.790231,3
29756466507687,-0.2440679,9.092726,3.7998023,3
29756468886594,-0.22971097,9.097511,3.7806597,3
29756471265500,-0.2105684,9.102298,3.7710886,3
29756473644406,-0.2105684,9.102298,3.7663028,3
29756476023312,-0.24885355,9.131011,3.7615173,3
29756478402219,-0.2727818,9.145369,3.7423747,3
29756480781073,-0.28713873,9.135797,3.7471602,3
29756483159979,-0.3062813,9.159725,3.7328033,3
29756485538833,-0.32063824,9.150154,3.7280176,3
29756487917791,-0.36370903,9.140582,3.7040894,3
29756490296698,-0.4211368,9.15494,3.7136607,3
29756492675604,-0.44506502,9.150154,3.7040894,3
29756495054510,-0.44985065,9.131011,3.723232,3
29756497433416,-0.44027936,9.126225,3.737589,3
29756499812323,-0.4546363,9.116654,3.7471602,3
29756502191177,-0.4546363,9.135797,3.7423747,3
29756504570083,-0.44985065,9.135797,3.7280176,3
29756506948989,-0.44027936,9.140582,3.7040894,3
29756509327896,-0.42592242,9.150154,3.7040894,3
29756511706802,-0.42592242,9.135797,3.7328033,3
29756514085708,-0.4354937,9.135797,3.7471602,3
29756516464614,-0.43070808,9.135797,3.751946,3
29756518843521,-0.4211368,9.12144,3.7328033,3
29756521222427,-0.41635114,9.116654,3.7184465,3
29756523601333,-0.4019942,9.12144,3.737589,3
29756525980187,-0.41156548,9.116654,3.7615173,3
29756528359094,-0.4019942,9.116654,3.7567315,3
29756530738000,-0.4211368,9.097511,3.7806597,3
29756533116906,-0.41635114,9.08794,3.790231,3
29756535495812,-0.42592242,9.097511,3.7854455,3
29756537874719,-0.4642076,9.116654,3.7854455,3
29756540253625,-0.4546363,9.12144,3.7615173,3
29756542632531,-0.46899325,9.116654,3.7615173,3
29756545011437,-0.46899325,9.131011,3.7615173,3
29756547390344,-0.4881358,9.12144,3.751946,3
29756549769250,-0.47856453,9.126225,3.7567315,3
29756552148104,-0.4546363,9.111869,3.7280176,3
29756554527010,-0.4642076,9.131011,3.7328033,3
29756556905916,-0.45942193,9.145369,3.7184465,3
29756559284823,-0.44027936,9.140582,3.7040894,3
29756561663729,-0.4354937,9.135797,3.6993039,3
29756564042583,-0.4211368,9.126225,3.7184465,3
29756566421541,-0.38285163,9.126225,3.7328033,3
29756568800448,-0.3924229,9.135797,3.7328033,3
29756571179354,-0.37806597,9.111869,3.7088752,3
29756573558260,-0.37806597,9.135797,3.7088752,3
29756575937114,-0.32063824,9.131011,3.6849468,3
29756578316021,-0.32542387,9.145369,3.6849468,3
29756580694927,-0.33499518,9.135797,3.7088752,3
29756583073833,-0.3493521,9.116654,3.7040894,3
29756585452739,-0.32542387,9.126225,3.7280176,3
29756587831646,-0.31585258,9.131011,3.7136607,3
29756590210552,-0.3397808,9.126225,3.6897326,3
29756592589458,-0.33499518,9.135797,3.6897326,3
29756594968364,-0.35413775,9.135797,3.7040894,3
29756597347271,-0.35413775,9.135797,3.694518,3
29756599726125,-0.3684947,9.140582,3.7280176,3
29756602105031,-0.37328035,9.131011,3.723232,3
29756604483937,-0.38285163,9.145369,3.7040894,3
29756606862844,-0.3924229,9.140582,3.7040894,3
29756609241750,-0.3924229,9.135797,3.7040894,3
29756611620656,-0.4019942,9.131011,3.7184465,3
29756613999562,-0.4211368,9.126225,3.7184465,3
29756616378469,-0.40677986,9.126225,3.723232,3
29756618757375,-0.4019942,9.135797,3.723232,3
29756621136281,-0.38763726,9.131011,3.723232,3
29756623515135,-0.42592242,9.12144,3.7136607,3
29756625894041,-0.42592242,9.102298,3.7280176,3
29756628272948,-0.40677986,9.083155,3.7423747,3
29756630651854,-0.40677986,9.097511,3.7280176,3
29756633030760,-0.4354937,9.111869,3.737589,3
29756635409666,-0.43070808,9.102298,3.7280176,3
29756637788573,-0.4354937,9.111869,3.7184465,3
29756640167479,-0.4354937,9.111869,3.723232,3
29756642546385,-0.44985065,9.107083,3.7280176,3
29756644925291,-0.4642076,9.135797,3.737589,3
29756647304198,-0.49292147,9.135797,3.737589,3
29756649683052,-0.5024927,9.145369,3.7471602,3
29756652061958,-0.5168497,9.131011,3.7567315,3
29756654440864,-0.5168497,9.140582,3.7567315,3
29756656819771,-0.5312066,9.126225,3.7567315,3
29756659198677,-0.5455636,9.131011,3.7567315,3
29756661577583,-0.52163535,9.126225,3.7567315,3
29756663956489,-0.53599226,9.135797,3.7423747,3
29756666335396,-0.55034924,9.107083,3.7136607,3
29756668714302,-0.53599226,9.126225,3.737589,3
29756671093208,-0.52163535,9.135797,3.723232,3
29756673472114,-0.52163535,9.135797,3.723232,3
29756675850969,-0.5312066,9.126225,3.723232,3
29756678229875,-0.5072784,9.140582,3.723232,3
29756680608781,-0.47377887,9.159725,3.7136607,3
29756682987635,-0.47856453,9.135797,3.7040894,3
29756685366594,-0.45942193,9.140582,3.7136607,3
29756687745500,-0.43070808,9.12144,3.723232,3
29756690124406,-0.4354937,9.131011,3.7567315,3
29756692503312,-0.4211368,9.140582,3.7471602,3
29756694882219,-0.3924229,9.126225,3.7280176,3
29756697261125,-0.39720857,9.131011,3.723232,3
29756699640031,-0.38285163,9.12144,3.723232,3
29756702018885,-0.37806597,9.12144,3.723232,3
29756704397791,-0.3684947,9.116654,3.7328033,3
29756706776698,-0.37806597,9.107083,3.7423747,3
29756709155604,-0.3684947,9.107083,3.7423747,3
29756711534510,-0.3589234,9.107083,3.7328033,3
29756713913416,-0.33020952,9.111869,3.7328033,3
29756716292323,-0.32063824,9.135797,3.723232,3
29756718671229,-0.34456646,9.126225,3.7280176,3
29756721050135,-0.33499518,9.12144,3.7423747,3
29756723429041,-0.35413775,9.111869,3.7567315,3
29756725807948,-0.38763726,9.116654,3.751946,3
29756728186802,-0.4019942,9.111869,3.7471602,3
29756730565708,-0.41156548,9.102298,3.737589,3
29756732944614,-0.4354937,9.135797,3.7280176,3
29756735323521,-0.44985065,9.145369,3.7088752,3
29756737702427,-0.47377887,9.150154,3.7136607,3
29756740081333,-0.49292147,9.131011,3.7423747,3
29756742460239,-0.5024927,9.107083,3.7471602,3
29756744839146,-0.52163535,9.135797,3.737589,3
29756747218052,-0.56470615,9.131011,3.7423747,3
29756749596958,-0.5694918,9.140582,3.7328033,3
29756751975969,-0.5982057,9.131011,3.723232,3
29756754354719,-0.59342,9.12144,3.7328033,3
29756756733625,-0.57906306,9.135797,3.751946,3
29756759112531,-0.57427746,9.135797,3.7567315,3
29756761491437,-0.53599226,9.150154,3.751946,3
29756763870239,-0.5168497,9.159725,3.7088752,3
29756766249250,-0.5168497,9.178867,3.723232,3
29756768628156,-0.5072784,9.15494,3.7280176,3
29756771007062,-0.4881358,9.145369,3.7328033,3
29756773385969,-0.46899325,9.12144,3.737589,3
29756775764875,-0.4546363,9.126225,3.7184465,3
29756778143781,-0.44506502,9.111869,3.7040894,3
29756780522687,-0.4642076,9.102298,3.7136607,3
29756782901541,-0.4546363,9.08794,3.7136607,3
29756785280448,-0.44985065,9.08794,3.7328033,3
29756787659354,-0.47856453,9.083155,3.7423747,3
29756790038260,-0.47856453,9.097511,3.7328033,3
29756792417166,-0.45942193,9.102298,3.7328033,3
29756794796073,-0.44506502,9.102298,3.723232,3
29756797174979,-0.4354937,9.102298,3.7423747,3
29756799553885,-0.44506502,9.145369,3.751946,3
29756801932791,-0.44985065,9.126225,3.7567315,3
29756804311698,-0.41635114,9.097511,3.751946,3
29756806690604,-0.44027936,9.116654,3.7423747,3
29756809069510,-0.44506502,9.107083,3.737589,3
29756811448364,-0.44027936,9.097511,3.7280176,3
29756813827271,-0.44506502,9.12144,3.7280176,3
29756816206177,-0.4546363,9.116654,3.7280176,3
29756818585083,-0.44506502,9.131011,3.737589,3
29756820963989,-0.4642076,9.097511,3.7471602,3
29756823342896,-0.46899325,9.116654,3.7567315,3
29756825721802,-0.46899325,9.135797,3.751946,3
29756828100708,-0.47377887,9.135797,3.7328033,3
29756830479614,-0.46899325,9.140582,3.7184465,3
29756832858521,-0.46899325,9.111869,3.7184465,3
29756835237375,-0.49292147,9.131011,3.723232,3
29756837616281,-0.5168497,9.111869,3.7328033,3
29756839995187,-0.5024927,9.107083,3.737589,3
29756842374094,-0.4833502,9.116654,3.7328033,3
29756844753000,-0.4833502,9.145369,3.7280176,3
29756847131906,-0.4833502,9.126225,3.7328033,3
29756849510812,-0.4642076,9.126225,3.7471602,3
29756851889719,-0.44985065,9.111869,3.7471602,3
29756854268625,-0.44027936,9.111869,3.7328033,3
29756856647531,-0.43070808,9.126225,3.7328033,3
29756859026437,-0.43070808,9.111869,3.7136607,3
29756861405344,-0.4019942,9.116654,3.7184465,3
29756863784250,-0.3924229,9.12144,3.7040894,3
29756866163156,-0.37328035,9.135797,3.7136607,3
29756868542010,-0.3684947,9.12144,3.7136607,3
29756870920916,-0.36370903,9.131011,3.7088752,3
29756873299823,-0.37328035,9.12144,3.7088752,3
29756875678729,-0.37328035,9.111869,3.7280176,3
29756878057635,-0.37328035,9.12144,3.7328033,3
29756880436541,-0.39720857,9.107083,3.7088752,3
29756882815448,-0.40677986,9.107083,3.6993039,3
29756885194354,-0.43070808,9.12144,3.7136607,3
29756887573260,-0.44985065,9.116654,3.7280176,3
29756889952166,-0.46899325,9.131011,3.737589,3
29756892331073,-0.4642076,9.135797,3.7663028,3
29756894709927,-0.49292147,9.159725,3.7615173,3
29756897088833,-0.52163535,9.159725,3.7615173,3
29756899467739,-0.5168497,9.140582,3.7615173,3
29756901846646,-0.5312066,9.135797,3.7615173,3
29756904225552,-0.52163535,9.150154,3.7710886,3
29756906604458,-0.49292147,9.140582,3.7806597,3
29756908983364,-0.5168497,9.111869,3.7758741,3
29756911362271,-0.5024927,9.12144,3.7758741,3
29756913741177,-0.5024927,9.12144,3.7615173,3
29756916120083,-0.5072784,9.116654,3.751946,3
29756918498989,-0.4977071,9.107083,3.7663028,3
29756920877791,-0.5072784,9.078369,3.7758741,3
29756923256750,-0.5072784,9.092726,3.7758741,3
29756925635656,-0.49292147,9.107083,3.7758741,3
29756928014562,-0.45942193,9.111869,3.7710886,3
29756930393469,-0.4546363,9.135797,3.7758741,3
29756932772375,-0.44506502,9.116654,3.7567315,3
29756935151281,-0.45942193,9.111869,3.7328033,3
29756937530187,-0.45942193,9.126225,3.7328033,3
29756939909094,-0.44506502,9.116654,3.737589,3
29756942288000,-0.4546363,9.12144,3.7328033,3
29756944666906,-0.4354937,9.12144,3.7423747,3
29756947045812,-0.42592242,9.126225,3.737589,3
29756949424719,-0.43070808,9.131011,3.7567315,3
29756951803573,-0.41156548,9.126225,3.7471602,3
29756954182479,-0.41635114,9.126225,3.7328033,3
29756956561385,-0.37806597,9.135797,3.7328033,3
29756958940291,-0.38763726,9.131011,3.7280176,3
29756961319198,-0.3684947,9.131011,3.737589,3
29756963698104,-0.3924229,9.12144,3.737589,3
29756966077010,-0.40677986,9.116654,3.7328033,3
29756968455916,-0.39720857,9.12144,3.7280176,3
29756970834771,-0.38763726,9.126225,3.7328033,3
29756973213729,-0.3924229,9.116654,3.7328033,3
29756975592635,-0.37328035,9.08794,3.7136607,3
29756977971541,-0.38285163,9.097511,3.7184465,3
29756980350448,-0.4019942,9.102298,3.7136607,3
29756982729302,-0.42592242,9.111869,3.7280176,3
29756985108208,-0.44027936,9.131011,3.7280176,3
29756987487114,-0.44027936,9.12144,3.7088752,3
29756989866021,-0.44027936,9.116654,3.7088752,3
29756992244927,-0.44985065,9.12144,3.6993039,3
29756994623833,-0.44985065,9.131011,3.7088752,3
29756997002739,-0.45942193,9.111869,3.7184465,3
29756999381646,-0.45942193,9.097511,3.694518,3
29757001760552,-0.44985065,9.131011,3.694518,3
29757004139458,-0.46899325,9.145369,3.694518,3
29757006518364,-0.47856453,9.126225,3.694518,3
29757008897271,-0.47856453,9.097511,3.6993039,3
29757011276125,-0.46899325,9.111869,3.7184465,3
29757013655031,-0.47377887,9.116654,3.7280176,3
29757016033937,-0.4833502,9.131011,3.7615173,3
29757018412844,-0.46899325,9.12144,3.7806597,3
29757020791750,-0.4211368,9.140582,3.7615173,3
29757023170656,-0.40677986,9.126225,3.7567315,3
29757025549562,-0.4019942,9.126225,3.7471602,3
29757027928469,-0.37328035,9.131011,3.737589,3
29757030307375,-0.3589234,9.126225,3.751946,3
29757032686281,-0.3589234,9.12144,3.7615173,3
29757035065187,-0.3493521,9.126225,3.7423747,3
29757037444094,-0.35413775,9.135797,3.7328033,3
29757039823000,-0.33020952,9.145369,3.751946,3
29757042201854,-0.34456646,9.126225,3.751946,3
29757044580760,-0.33020952,9.126225,3.7567315,3
29757046959666,-0.3493521,9.140582,3.7806597,3
29757049338573,-0.3397808,9.135797,3.790231,3
29757051717479,-0.37328035,9.111869,3.7854455,3
29757054096385,-0.4019942,9.102298,3.818945,3
29757056475291,-0.42592242,9.078369,3.8237305,3
29757058854198,-0.44027936,9.092726,3.790231,3
29757061233104,-0.44027936,9.092726,3.7806597,3
29757063612010,-0.44027936,9.107083,3.7758741,3
29757065990916,-0.45942193,9.092726,3.7615173,3
29757068369823,-0.4881358,9.092726,3.751946,3
29757070748729,-0.5072784,9.102298,3.7567315,3
29757073127635,-0.5312066,9.116654,3.737589,3
29757075506489,-0.526421,9.111869,3.7280176,3
29757077885396,-0.5168497,9.116654,3.7328033,3
29757080264302,-0.51206404,9.111869,3.7280176,3
29757082643208,-0.4881358,9.116654,3.723232,3
29757085022114,-0.49292147,9.111869,3.7136607,3
29757087401021,-0.4977071,9.107083,3.7184465,3
29757089779927,-0.4881358,9.12144,3.7184465,3
29757092158833,-0.46899325,9.126225,3.7088752,3
29757094537739,-0.4546363,9.111869,3.7088752,3
29757096916646,-0.44027936,9.116654,3.7136607,3
29757099295552,-0.41156548,9.126225,3.7280176,3
29757101674458,-0.4019942,9.131011,3.7328033,3
29757104053312,-0.37806597,9.140582,3.7184465,3
29757106432271,-0.36370903,9.145369,3.694518,3
29757108811125,-0.3397808,9.140582,3.6993039,3
29757111190031,-0.33499518,9.12144,3.6993039,3
29757113568937,-0.32063824,9.12144,3.7184465,3
29757115947844,-0.31585258,9.131011,3.723232,3
29757118326750,-0.31585258,9.131011,3.723232,3
29757120705656,-0.31585258,9.111869,3.7567315,3
29757123084562,-0.34456646,9.116654,3.7423747,3
29757125463469,-0.36370903,9.092726,3.737589,3
29757127842375,-0.37328035,9.12144,3.7328033,3
29757130221281,-0.4019942,9.097511,3.723232,3
29757132600187,-0.41635114,9.097511,3.7280176,3
29757134979094,-0.42592242,9.116654,3.7280176,3
29757137358000,-0.42592242,9.111869,3.7328033,3
29757139736854,-0.4211368,9.111869,3.7328033,3
29757142115760,-0.44985065,9.102298,3.7280176,3
29757144494666,-0.44506502,9.111869,3.7471602,3
29757146873573,-0.43070808,9.135797,3.7328033,3
29757149252479,-0.4354937,9.131011,3.737589,3
29757151631385,-0.4354937,9.145369,3.737589,3
29757154010291,-0.44985065,9.116654,3.7423747,3
29757156389198,-0.41635114,9.126225,3.7328033,3
29757158768104,-0.43070808,9.135797,3.7423747,3
29757161147010,-0.39720857,9.140582,3.7615173,3
29757163525916,-0.3924229,9.131011,3.7423747,3
29757165904823,-0.3924229,9.116654,3.7471602,3
29757168283677,-0.38763726,9.107083,3.7567315,3
29757170662583,-0.37806597,9.131011,3.7471602,3
29757173041489,-0.37806597,9.131011,3.751946,3
29757175420396,-0.38763726,9.145369,3.737589,3
29757177799302,-0.3924229,9.140582,3.7328033,3
29757180178208,-0.38763726,9.12144,3.7280176,3
29757182557114,-0.42592242,9.107083,3.737589,3
29757184936021,-0.44985065,9.107083,3.7471602,3
29757187314927,-0.4977071,9.102298,3.7471602,3
29757189693833,-0.5072784,9.135797,3.751946,3
29757192072739,-0.52163535,9.126225,3.7136607,3
29757194451646,-0.526421,9.126225,3.7040894,3
29757196830552,-0.55034924,9.140582,3.7136607,3
29757199209458,-0.5599205,9.140582,3.7280176,3
29757201588364,-0.56470615,9.145369,3.737589,3
29757203967219,-0.56470615,9.126225,3.737589,3
29757206346125,-0.5455636,9.131011,3.7471602,3
29757208725031,-0.5455636,9.150154,3.737589,3
29757211103937,-0.526421,9.145369,3.7280176,3
29757213482791,-0.49292147,9.126225,3.7423747,3
29757215861750,-0.47856453,9.131011,3.7423747,3
29757218240656,-0.47856453,9.140582,3.7567315,3
29757220619562,-0.44985065,9.131011,3.751946,3
29757222998469,-0.4354937,9.126225,3.751946,3
29757225377375,-0.40677986,9.107083,3.7471602,3
29757227756281,-0.39720857,9.111869,3.7423747,3
29757230135187,-0.37806597,9.097511,3.7471602,3
29757232514094,-0.3589234,9.102298,3.7567315,3
29757234893000,-0.32542387,9.102298,3.737589,3
29757237271906,-0.33020952,9.078369,3.7280176,3
29757239650760,-0.33499518,9.097511,3.7040894,3
29757242029666,-0.33499518,9.126225,3.6993039,3
29757244408573,-0.34456646,9.131011,3.6849468,3
29757246787479,-0.3493521,9.140582,3.6849468,3
29757249166385,-0.35413775,9.131011,3.6897326,3
29757251545291,-0.33499518,9.15494,3.7040894,3
29757253924198,-0.33499518,9.15494,3.7136607,3
29757256303104,-0.3493521,9.131011,3.7136607,3
29757258682010,-0.36370903,9.145369,3.7184465,3
29757261060916,-0.36370903,9.135797,3.7280176,3
29757263439823,-0.37328035,9.111869,3.7136607,3
29757265818729,-0.38763726,9.140582,3.7280176,3
29757268197635,-0.38763726,9.150154,3.723232,3
29757270576541,-0.39720857,9.164511,3.723232,3
29757272955448,-0.38763726,9.164511,3.723232,3
29757275334302,-0.37806597,9.131011,3.7423747,3
29757277713260,-0.42592242,9.131011,3.751946,3
29757280092114,-0.4546363,9.150154,3.7758741,3
29757282470969,-0.44027936,9.145369,3.7758741,3
29757284849927,-0.44027936,9.140582,3.7710886,3
29757287228833,-0.43070808,9.145369,3.7663028,3
29757289607739,-0.4546363,9.107083,3.7710886,3
29757291986646,-0.46899325,9.111869,3.7710886,3
29757294365552,-0.4546363,9.111869,3.7471602,3
29757296744458,-0.4642076,9.107083,3.7567315,3
29757299123364,-0.47377887,9.097511,3.7758741,3
29757301502271,-0.4642076,9.083155,3.7567315,3
29757303881177,-0.4546363,9.078369,3.7471602,3
29757306260083,-0.46899325,9.08794,3.7328033,3
29757308638989,-0.44985065,9.092726,3.7280176,3
29757311017896,-0.4354937,9.08794,3.7328033,3
29757313396750,-0.44506502,9.097511,3.7567315,3
29757315775656,-0.45942193,9.092726,3.7328033,3
29757318154562,-0.45942193,9.097511,3.7280176,3
29757320533469,-0.44027936,9.111869,3.7280176,3
29757322912375,-0.44027936,9.102298,3.723232,3
29757325291281,-0.42592242,9.097511,3.723232,3
29757327670187,-0.42592242,9.111869,3.723232,3
29757330049041,-0.40677986,9.150154,3.737589,3
29757332428000,-0.38763726,9.169296,3.7423747,3
29757334806906,-0.3924229,9.159725,3.737589,3
29757337185812,-0.37806597,9.164511,3.7088752,3
29757339564719,-0.3589234,9.159725,3.7136607,3
29757341943625,-0.35413775,9.159725,3.7088752,3
29757344322531,-0.34456646,9.164511,3.7328033,3
29757346701281,-0.3397808,9.159725,3.7280176,3
29757349080291,-0.3493521,9.145369,3.723232,3
29757351459198,-0.3589234,9.145369,3.7136607,3
29757353838104,-0.37806597,9.150154,3.6801612,3
29757356217010,-0.39720857,9.140582,3.6993039,3
29757358595916,-0.3924229,9.140582,3.7136607,3
29757360974823,-0.4019942,9.131011,3.7136607,3
29757363353677,-0.43070808,9.116654,3.723232,3
29757365732635,-0.44506502,9.126225,3.7328033,3
29757368111541,-0.44985065,9.102298,3.7471602,3
29757370490448,-0.47377887,9.083155,3.7423747,3
29757372869354,-0.4546363,9.102298,3.751946,3
29757375248260,-0.4546363,9.092726,3.7423747,3
29757377627166,-0.44027936,9.08794,3.7328033,3
29757380006073,-0.44506502,9.092726,3.7471602,3
29757382384979,-0.41635114,9.102298,3.7423747,3
29757384763885,-0.38285163,9.102298,3.751946,3
29757387142739,-0.3924229,9.116654,3.7567315,3
29757389521698,-0.34456646,9.116654,3.7280176,3
29757391900552,-0.33499518,9.111869,3.737589,3
29757394279458,-0.32063824,9.107083,3.7328033,3
29757396658364,-0.30149564,9.111869,3.737589,3
29757399037271,-0.30149564,9.111869,3.737589,3
29757401416177,-0.3062813,9.126225,3.737589,3
29757403795083,-0.34456646,9.116654,3.7471602,3
29757406173989,-0.36370903,9.102298,3.751946,3
29757408552896,-0.37806597,9.145369,3.7471602,3
29757410931802,-0.40677986,9.150154,3.751946,3
29757413310708,-0.4354937,9.174082,3.7615173,3
29757415689614,-0.47377887,9.150154,3.751946,3
29757418068521,-0.4881358,9.145369,3.751946,3
29757420447375,-0.5168497,9.140582,3.7471602,3
29757422826281,-0.53599226,9.150154,3.7280176,3
29757425205239,-0.5455636,9.135797,3.723232,3
29757427584094,-0.55034924,9.135797,3.723232,3
29757429963000,-0.55034924,9.145369,3.7136607,3
29757432341906,-0.5407779,9.135797,3.737589,3
29757434720812,-0.5168497,9.111869,3.7471602,3
29757437099719,-0.51206404,9.092726,3.7423747,3
29757439478573,-0.47377887,9.107083,3.7136607,3
29757441857531,-0.44985065,9.08794,3.723232,3
29757444236437,-0.40677986,9.107083,3.723232,3
29757446615344,-0.35413775,9.102298,3.7567315,3
29757448994250,-0.3589234,9.092726,3.751946,3
29757451373156,-0.35413775,9.092726,3.7567315,3
29757453752062,-0.3397808,9.102298,3.7567315,3
29757456130969,-0.32542387,9.111869,3.7423747,3
29757458509875,-0.32542387,9.131011,3.7280176,3
29757460888781,-0.3589234,9.126225,3.7040894,3
29757463267687,-0.36370903,9.140582,3.7040894,3
29757465646594,-0.3684947,9.135797,3.7088752,3
29757468025448,-0.4019942,9.135797,3.723232,3
29757470404354,-0.41156548,9.131011,3.7280176,3
29757472783260,-0.44027936,9.145369,3.7280176,3
29757475162166,-0.44985065,9.135797,3.7280176,3
29757477541073,-0.4881358,9.145369,3.7184465,3
29757479919979,-0.5072784,9.169296,3.723232,3
29757482298885,-0.51206404,9.145369,3.723232,3
29757484677791,-0.51206404,9.145369,3.7328033,3
29757487056698,-0.49292147,9.116654,3.7423747,3
29757489435604,-0.46899325,9.131011,3.751946,3
29757491814510,-0.44506502,9.116654,3.7423747,3
29757494193416,-0.41635114,9.092726,3.7423747,3
29757496572323,-0.4019942,9.12144,3.737589,3
29757498951229,-0.40677986,9.102298,3.7615173,3
29757501330135,-0.38285163,9.116654,3.751946,3
29757503709041,-0.34456646,9.111869,3.7615173,3
29757506087948,-0.3493521,9.097511,3.7471602,3
29757508466802,-0.3684947,9.08794,3.7280176,3
29757510845708,-0.3684947,9.107083,3.723232,3
29757513224614,-0.38763726,9.097511,3.751946,3
29757515603521,-0.37806597,9.08794,3.7663028,3
29757517982427,-0.39720857,9.126225,3.7710886,3
29757520361333,-0.43070808,9.116654,3.7615173,3
29757522740239,-0.44506502,9.126225,3.7423747,3
29757525119146,-0.46899325,9.12144,3.723232,3
29757527498052,-0.4881358,9.126225,3.6897326,3
29757529876958,-0.5024927,9.131011,3.6897326,3
29757532255864,-0.53599226,9.150154,3.7328033,3
29757534634771,-0.5407779,9.169296,3.7280176,3
29757537013677,-0.5407779,9.174082,3.7184465,3
29757539392583,-0.52163535,9.188439,3.7184465,3
29757541771489,-0.5168497,9.174082,3.7184465,3
29757544150396,-0.5024927,9.159725,3.7136607,3
29757546529302,-0.47377887,9.150154,3.7184465,3
29757548908208,-0.45942193,9.150154,3.7471602,3
29757551287114,-0.4354937,9.135797,3.7615173,3
29757553665969,-0.4019942,9.140582,3.7663028,3
29757556044875,-0.37806597,9.140582,3.7710886,3
29757558423781,-0.33499518,9.131011,3.7615173,3
29757560802687,-0.3062813,9.116654,3.7663028,3
29757563181594,-0.29671,9.111869,3.7423747,3
29757565560500,-0.27756742,9.111869,3.7615173,3
29757567939406,-0.29671,9.126225,3.7806597,3
29757570318312,-0.3062813,9.107083,3.7998023,3
29757572697219,-0.29192436,9.097511,3.7950168,3
29757575076125,-0.29671,9.073584,3.7663028,3
29757577455031,-0.31585258,9.059227,3.7471602,3
29757579833937,-0.3684947,9.049655,3.737589,3
29757582212844,-0.40677986,9.0544405,3.7423747,3
29757584591750,-0.39720857,9.059227,3.723232,3
29757586970656,-0.41635114,9.078369,3.7423747,3
29757589349562,-0.4546363,9.08794,3.723232,3
29757591728469,-0.45942193,9.092726,3.6849468,3
29757594107375,-0.45942193,9.140582,3.7040894,3
29757596486281,-0.4642076,9.135797,3.6897326,3
29757598865135,-0.4642076,9.145369,3.6849468,3
29757601244041,-0.47856453,9.140582,3.723232,3
29757603622948,-0.44985065,9.150154,3.737589,3
29757606001854,-0.42592242,9.150154,3.7136607,3
29757608380760,-0.41156548,9.159725,3.7184465,3
29757610759666,-0.38763726,9.159725,3.7136607,3
29757613138573,-0.38763726,9.140582,3.7088752,3
29757615517479,-0.3924229,9.150154,3.6993039,3
29757617896385,-0.39720857,9.131011,3.7184465,3
29757620275239,-0.4211368,9.131011,3.751946,3
29757622654198,-0.40677986,9.116654,3.7663028,3
29757625033104,-0.4019942,9.102298,3.751946,3
29757627411958,-0.41156548,9.107083,3.723232,3
29757629790916,-0.40677986,9.111869,3.7328033,3
29757632169823,-0.4546363,9.126225,3.723232,3
