t_ns,ax,ay,az,accuracy
31767116303702,-0.22492532,9.107083,4.15394,3
31767118682608,-0.47856453,9.12144,3.9720855,3
31767121061462,-0.38285163,9.150154,3.8237305,3
31767123440316,-0.3062813,9.092726,3.6323047,3
31767125819119,-0.45942193,9.12144,3.5653057,3
31767128198077,-0.44506502,9.097511,3.7136607,3
31767130576931,-0.46899325,9.059227,3.9577286,3
31767132955733,-1.8041883,9.140582,3.900301,3
31767135334639,-2.3018954,9.097511,3.7710886,3
31767137713494,-2.1248264,9.178867,3.8380876,3
31767140092400,-2.5411777,9.174082,3.4456646,3
31767142471254,-1.9381863,9.2075815,3.7328033,3
31767144850108,-0.971486,9.073584,4.125226,3
31767147229014,-0.8805587,9.102298,4.0295134,3
31767149607869,-0.22971097,9.131011,3.818945,3
31767151986723,0.81834537,9.111869,3.7663028,3
31767154365577,1.1533405,9.111869,3.4313076,3
31767156744431,1.430908,9.145369,3.3403804,3
31767159123337,2.053042,9.059227,3.6370904,3
31767161502191,2.1822543,8.992228,3.818945,3
31767163881046,2.0147567,9.01137,3.8524444,3
31767166259900,2.1296122,9.040084,3.871587,3
31767168638806,1.9525433,9.073584,3.7184465,3
31767171017660,1.4452649,9.102298,3.4695928,3
31767173396462,1.0432707,9.159725,3.4839497,3
31767175775369,0.5838487,9.140582,3.6801612,3
31767178154275,-0.06699903,9.107083,3.842873,3
31767180533129,-0.5838487,9.111869,3.9481573,3
31767182911983,-0.94755775,9.131011,3.9864426,3
31767185290837,-1.3926228,9.178867,3.8237305,3
31767187669744,-1.7371893,9.202796,3.694518,3
31767190048598,-1.8424734,9.183653,3.6993039,3
31767192427452,-1.9621146,9.15494,3.7758741,3
31767194806306,-2.0051854,9.145369,3.9242291,3
31767197185212,-1.6558332,9.250652,3.952943,3
31767199564066,-0.60777694,9.3511505,3.7328033,3
31767201942921,0.7896315,9.020942,3.2925239,3
31767204321775,1.3734802,8.705089,3.7136607,3
31767206700681,0.70348984,8.949157,4.0773697,3
31767209079535,-0.17228323,9.188439,4.278367,3
31767211458389,-0.4833502,9.01137,4.6468616,3
31767213837244,-1.1294123,9.174082,3.9577286,3
31767216216098,-1.0432707,9.241081,3.129812,3
31767218595004,-0.33499518,9.140582,3.0005996,3
31767220973858,-0.47377887,9.097511,3.1202407,3
31767223352712,-0.5024927,9.164511,3.7663028,3
31767225731619,0.076570325,9.001799,4.536792,3
31767228110473,0.21535404,8.944371,4.5559344,3
31767230489275,0.13878371,9.116654,3.938586,3
31767232868181,0.56470615,9.178867,3.397808,3
31767235247035,0.7513463,9.140582,3.0723844,3
31767237625941,0.56470615,9.164511,3.1345978,3
31767240004796,0.6221339,9.183653,3.751946,3
31767242383650,0.64606214,9.044869,4.302295,3
31767244762504,0.33499518,9.068798,4.345366,3
31767247141410,0.2727818,9.145369,4.0295134,3
31767249520212,0.2105684,9.164511,3.5940197,3
31767251899119,-0.07178468,9.174082,3.2303107,3
31767254277973,-0.3062813,9.159725,3.3164523,3
31767256656879,-0.4211368,9.08794,3.7615173,3
31767259035733,-0.6891329,9.030513,4.1635113,3
31767261414587,-0.8757731,9.030513,4.2592244,3
31767263793441,-0.8757731,9.064013,4.072584,3
31767266172348,-0.94277215,9.116654,3.694518,3
31767268551202,-0.9619147,9.145369,3.455236,3
31767270930056,-0.86141616,9.131011,3.5270207,3
31767273308910,-0.74177504,9.092726,3.818945,3
31767275687816,-0.6652047,9.083155,4.0869412,3
31767278066671,-0.4833502,9.064013,4.197011,3
31767280445525,-0.2536392,9.078369,4.024728,3
31767282824379,-0.08135597,9.131011,3.7040894,3
31767285203285,0.1052842,9.193225,3.507878,3
31767287582139,0.27756742,9.164511,3.522235,3
31767289960994,0.38763726,9.111869,3.7184465,3
31767292339848,0.44985065,9.083155,3.9720855,3
31767294718702,0.49292147,9.040084,4.101298,3
31767297097608,0.5024927,9.035298,4.005585,3
31767299476462,0.4642076,9.064013,3.7615173,3
31767301855316,0.3924229,9.102298,3.5892339,3
31767304234171,0.2536392,9.08794,3.5605202,3
31767306613077,0.076570325,9.102298,3.7136607,3
31767308991931,-0.09092726,9.102298,3.9098723,3
31767311370785,-0.27756742,9.073584,4.0151563,3
31767313749639,-0.4354937,9.08794,3.9673,3
31767316128546,-0.56470615,9.131011,3.8141594,3
31767318507400,-0.66041905,9.150154,3.67059,3
31767320886254,-0.75613195,9.15494,3.6275191,3
31767323265108,-0.7896315,9.126225,3.7280176,3
31767325644014,-0.7896315,9.102298,3.885944,3
31767328022869,-0.7465607,9.08794,3.9625144,3
31767330401723,-0.6652047,9.097511,3.9146578,3
31767332780577,-0.52163535,9.111869,3.790231,3
31767335159483,-0.41156548,9.131011,3.6753755,3
31767337538337,-0.28235307,9.150154,3.6323047,3
31767339917191,-0.124426775,9.131011,3.694518,3
31767342296046,0.02871387,9.116654,3.7998023,3
31767344674952,0.148355,9.097511,3.8620157,3
31767347053806,0.24885355,9.107083,3.8524444,3
31767349432608,0.30149564,9.135797,3.7471602,3
31767351811514,0.32542387,9.131011,3.6466618,3
31767354190421,0.31106696,9.126225,3.6370904,3
31767356569275,0.2632105,9.131011,3.694518,3
31767358948129,0.19621146,9.102298,3.7854455,3
31767361326983,0.1052842,9.092726,3.8811584,3
31767363705837,-0.033499517,9.107083,3.885944,3
31767366084744,-0.17228323,9.12144,3.8285162,3
31767368463598,-0.3062813,9.12144,3.751946,3
31767370842452,-0.42592242,9.135797,3.7328033,3
31767373221358,-0.5694918,9.12144,3.7854455,3
31767375600212,-0.6652047,9.12144,3.8572302,3
31767377979066,-0.7178468,9.140582,3.9194436,3
31767380357921,-0.74177504,9.126225,3.9338005,3
31767382736827,-0.7178468,9.12144,3.885944,3
31767385115681,-0.6652047,9.135797,3.8141594,3
31767387494535,-0.5838487,9.135797,3.7998023,3
31767389873389,-0.4642076,9.131011,3.8237305,3
31767392252244,-0.3397808,9.102298,3.871587,3
31767394631150,-0.2105684,9.102298,3.900301,3
31767397010004,-0.08135597,9.092726,3.9194436,3
31767399388858,0.06699903,9.073584,3.8524444,3
31767401767712,0.18185452,9.08794,3.790231,3
31767404146619,0.25842485,9.107083,3.7710886,3
31767406525473,0.32542387,9.092726,3.7663028,3
31767408904327,0.34456646,9.092726,3.804588,3
31767411283181,0.3397808,9.078369,3.842873,3
31767413662087,0.32063824,9.08794,3.8620157,3
31767416040941,0.2536392,9.08794,3.8237305,3
31767418419796,0.16749759,9.12144,3.790231,3
31767420798650,0.05742774,9.102298,3.7758741,3
31767423177556,-0.086141616,9.092726,3.7854455,3
31767425556410,-0.20578274,9.097511,3.818945,3
31767427935264,-0.32542387,9.102298,3.8380876,3
31767430314119,-0.42592242,9.097511,3.8380876,3
31767432692973,-0.52163535,9.111869,3.8285162,3
31767435071879,-0.5838487,9.126225,3.790231,3
31767437450733,-0.61734825,9.097511,3.7806597,3
31767439829535,-0.61734825,9.116654,3.7806597,3
31767442208441,-0.59342,9.12144,3.7854455,3
31767444587348,-0.55034924,9.126225,3.7998023,3
31767446966202,-0.4833502,9.107083,3.8285162,3
31767449345056,-0.37806597,9.107083,3.7950168,3
31767451723910,-0.24885355,9.126225,3.7663028,3
31767454102816,-0.16749759,9.126225,3.7710886,3
31767456481671,-0.06699903,9.092726,3.7854455,3
31767458860525,0.033499517,9.102298,3.790231,3
31767461239379,0.10049855,9.097511,3.8093736,3
31767463618285,0.16271193,9.08794,3.818945,3
31767465997139,0.17706887,9.107083,3.7950168,3
31767468375994,0.19142582,9.097511,3.7998023,3
31767470754848,0.17228323,9.092726,3.7663028,3
31767473133754,0.124426775,9.078369,3.7806597,3
31767475512608,0.05742774,9.083155,3.804588,3
31767477891462,-0.014356935,9.097511,3.8237305,3
31767480270316,-0.11006984,9.102298,3.8285162,3
31767482649223,-0.18664017,9.097511,3.8380876,3
31767485028077,-0.25842485,9.107083,3.8333018,3
31767487406931,-0.32063824,9.126225,3.8237305,3
31767489785785,-0.34456646,9.097511,3.8285162,3
31767492164691,-0.37806597,9.107083,3.8524444,3
31767494543546,-0.39720857,9.102298,3.8572302,3
31767496922400,-0.38763726,9.102298,3.842873,3
31767499301254,-0.34456646,9.097511,3.8476589,3
31767501680160,-0.25842485,9.107083,3.8285162,3
31767504059014,-0.2105684,9.111869,3.8237305,3
31767506437869,-0.13878371,9.107083,3.818945,3
31767508816723,-0.07178468,9.107083,3.8093736,3
31767511195525,-0.019142581,9.111869,3.8093736,3
31767513574483,0.062213387,9.12144,3.8093736,3
31767515953337,0.1052842,9.092726,3.8093736,3
31767518332191,0.13878371,9.092726,3.790231,3
31767520711046,0.14356937,9.116654,3.7710886,3
31767523089952,0.148355,9.116654,3.7806597,3
31767525468806,0.124426775,9.126225,3.7710886,3
31767527847660,0.09571291,9.097511,3.7710886,3
31767530226514,0.038285162,9.097511,3.7758741,3
31767532605421,-0.019142581,9.116654,3.7854455,3
31767534984275,-0.086141616,9.111869,3.7854455,3
31767537363129,-0.13878371,9.12144,3.790231,3
31767539741983,-0.2105684,9.12144,3.790231,3
31767542120889,-0.26799613,9.15494,3.804588,3
31767544499744,-0.30149564,9.150154,3.7998023,3
31767546878598,-0.30149564,9.145369,3.7710886,3
31767549257452,-0.28713873,9.12144,3.7854455,3
31767551636358,-0.3062813,9.12144,3.7710886,3
31767554015212,-0.3062813,9.107083,3.7567315,3
31767556394066,-0.2536392,9.131011,3.7806597,3
31767558772921,-0.2009971,9.116654,3.7663028,3
31767561151775,-0.148355,9.107083,3.7854455,3
31767563530681,-0.086141616,9.12144,3.790231,3
31767565909535,-0.043070808,9.12144,3.790231,3
31767568288389,0.009571291,9.116654,3.804588,3
31767570667296,0.06699903,9.092726,3.7998023,3
31767573046150,0.09092726,9.111869,3.8093736,3
31767575424952,0.11006984,9.116654,3.7950168,3
31767577803858,0.124426775,9.116654,3.790231,3
31767580182712,0.11964113,9.092726,3.7950168,3
31767582561619,0.10049855,9.097511,3.7950168,3
31767584940473,0.1052842,9.107083,3.804588,3
31767587319327,0.076570325,9.12144,3.790231,3
31767589698181,0.014356935,9.116654,3.804588,3
31767592077087,-0.014356935,9.116654,3.804588,3
31767594455941,-0.08135597,9.102298,3.7998023,3
31767596834796,-0.13878371,9.083155,3.8093736,3
31767599213650,-0.17706887,9.097511,3.8141594,3
31767601592556,-0.22013968,9.092726,3.8333018,3
31767603971410,-0.2440679,9.097511,3.8237305,3
31767606350264,-0.2632105,9.102298,3.8093736,3
31767608729119,-0.28713873,9.111869,3.7998023,3
31767611108025,-0.28235307,9.097511,3.790231,3
31767613486879,-0.28713873,9.102298,3.790231,3
31767615865733,-0.2632105,9.097511,3.7950168,3
31767618244587,-0.23449662,9.08794,3.7854455,3
31767620623494,-0.19142582,9.092726,3.7758741,3
31767623002348,-0.15792629,9.107083,3.7710886,3
31767625381202,-0.11006984,9.12144,3.7423747,3
31767627760056,-0.09571291,9.102298,3.7710886,3
31767630138962,-0.08135597,9.083155,3.7854455,3
31767632517816,-0.076570325,9.111869,3.8093736,3
31767634896671,-0.06699903,9.116654,3.7998023,3
31767637275525,-0.062213387,9.092726,3.7998023,3
31767639654379,-0.076570325,9.097511,3.7663028,3
31767642033285,-0.13878371,9.08794,3.7615173,3
31767644412139,-0.148355,9.097511,3.7806597,3
31767646790994,-0.17706887,9.097511,3.7998023,3
31767649169848,-0.22013968,9.102298,3.7998023,3
31767651548754,-0.27756742,9.102298,3.7950168,3
31767653927608,-0.33020952,9.102298,3.7806597,3
31767656306462,-0.3493521,9.097511,3.7615173,3
31767658685316,-0.3684947,9.111869,3.7663028,3
31767661064223,-0.37806597,9.107083,3.7854455,3
31767663443077,-0.3924229,9.097511,3.7950168,3
31767665821931,-0.4019942,9.08794,3.8093736,3
31767668200785,-0.41635114,9.097511,3.8093736,3
31767670579691,-0.3924229,9.097511,3.7998023,3
31767672958546,-0.3684947,9.083155,3.7950168,3
31767675337400,-0.36370903,9.092726,3.7806597,3
31767677716254,-0.32063824,9.102298,3.7854455,3
31767680095160,-0.29671,9.08794,3.8093736,3
31767682474014,-0.27756742,9.083155,3.8285162,3
31767684852869,-0.28713873,9.092726,3.8237305,3
31767687231723,-0.28713873,9.073584,3.8141594,3
31767689610629,-0.27756742,9.08794,3.8141594,3
31767691989483,-0.2727818,9.097511,3.8237305,3
31767694368337,-0.29192436,9.126225,3.8141594,3
31767696747191,-0.31106696,9.107083,3.818945,3
31767699126098,-0.30149564,9.102298,3.8333018,3
31767701504952,-0.32063824,9.102298,3.8285162,3
31767703883806,-0.33499518,9.08794,3.818945,3
31767706262660,-0.33499518,9.068798,3.818945,3
31767708641514,-0.37328035,9.068798,3.8093736,3
31767711020421,-0.36370903,9.068798,3.8237305,3
31767713399275,-0.3493521,9.078369,3.8141594,3
31767715778129,-0.3493521,9.073584,3.804588,3
31767718157035,-0.32542387,9.083155,3.7854455,3
31767720535889,-0.3062813,9.073584,3.7950168,3
31767722914744,-0.26799613,9.08794,3.7710886,3
31767725293598,-0.23928227,9.08794,3.7806597,3
31767727672452,-0.2009971,9.083155,3.7806597,3
31767730051358,-0.15792629,9.068798,3.7663028,3
31767732430212,-0.13399807,9.078369,3.7423747,3
31767734809066,-0.11006984,9.092726,3.7423747,3
31767737187921,-0.09571291,9.12144,3.7567315,3
31767739566827,-0.076570325,9.126225,3.7471602,3
31767741945681,-0.05742774,9.107083,3.751946,3
31767744324535,-0.06699903,9.126225,3.7567315,3
31767746703337,-0.076570325,9.140582,3.7567315,3
31767749082296,-0.1052842,9.150154,3.7280176,3
31767751461150,-0.11006984,9.150154,3.723232,3
31767753840004,-0.15314065,9.150154,3.7280176,3
31767756218858,-0.18664017,9.150154,3.7423747,3
31767758597764,-0.22013968,9.150154,3.7615173,3
31767760976619,-0.2440679,9.174082,3.7615173,3
31767763355473,-0.29671,9.150154,3.7615173,3
31767765734327,-0.31585258,9.150154,3.7471602,3
31767768113181,-0.34456646,9.15494,3.751946,3
31767770492087,-0.3397808,9.145369,3.7615173,3
31767772870941,-0.38285163,9.140582,3.790231,3
31767775249796,-0.37328035,9.140582,3.8285162,3
31767777628650,-0.35413775,9.131011,3.8237305,3
31767780007556,-0.3397808,9.145369,3.8285162,3
31767782386410,-0.31585258,9.145369,3.8093736,3
31767784765264,-0.28713873,9.131011,3.7854455,3
31767787144119,-0.2440679,9.126225,3.8141594,3
31767789523025,-0.20578274,9.126225,3.842873,3
31767791901879,-0.18664017,9.12144,3.8572302,3
31767794280733,-0.15314065,9.131011,3.818945,3
31767796659535,-0.124426775,9.131011,3.7854455,3
31767799038494,-0.11006984,9.126225,3.7758741,3
31767801417348,-0.11485548,9.107083,3.7615173,3
31767803796202,-0.1052842,9.097511,3.7710886,3
31767806175056,-0.1052842,9.107083,3.8093736,3
31767808553962,-0.124426775,9.111869,3.7950168,3
31767810932816,-0.17228323,9.097511,3.7663028,3
31767813311671,-0.19142582,9.097511,3.7423747,3
31767815690525,-0.19621146,9.111869,3.7328033,3
31767818069431,-0.23928227,9.092726,3.7423747,3
31767820448285,-0.28235307,9.107083,3.751946,3
31767822827139,-0.30149564,9.12144,3.7615173,3
31767825205994,-0.33020952,9.126225,3.737589,3
31767827584900,-0.3062813,9.116654,3.751946,3
31767829963754,-0.3493521,9.12144,3.7567315,3
31767832342608,-0.35413775,9.12144,3.7423747,3
31767834721462,-0.32063824,9.126225,3.751946,3
31767837100316,-0.29671,9.135797,3.7567315,3
31767839479223,-0.29671,9.140582,3.7328033,3
31767841858077,-0.26799613,9.12144,3.7328033,3
31767844236931,-0.22492532,9.135797,3.7663028,3
31767846615785,-0.16271193,9.145369,3.7710886,3
31767848994691,-0.11964113,9.169296,3.790231,3
31767851373546,-0.047856454,9.19801,3.7806597,3
31767853752400,0.023928227,9.111869,3.6897326,3
31767856131254,0.047856454,8.9826565,3.6323047,3
31767858510160,0.16271193,8.953942,3.4504502,3
31767860889014,0.16271193,8.920443,3.1489546,3
31767863267869,0.043070808,8.949157,3.6993039,3
31767865646723,0.33499518,9.01137,4.3740797,3
31767868025629,0.076570325,9.327223,4.436293,3
31767870404483,0.10049855,9.303294,3.8333018,3
31767872783337,0.29671,9.30808,3.2398818,3
31767875162191,0.29671,9.288938,2.7182465,3
31767877541046,0.02871387,9.327223,3.0388846,3
31767879919952,0.2440679,9.164511,4.0151563,3
31767882298806,0.20578274,9.078369,4.8287163,3
31767884677660,-0.009571291,9.150154,4.85743,3
31767887056566,0.22971097,9.164511,4.1778684,3
31767889435421,0.31585258,9.221938,3.2733815,3
31767891814275,0.22492532,9.236296,2.78046,3
31767894193129,0.2440679,8.925228,3.1393833,3
31767896571983,0.20578274,8.829515,4.082155,3
31767898950889,0.11485548,8.953942,4.6707897,3
31767901329744,-0.086141616,9.016156,4.584648,3
31767903708598,-0.148355,8.987442,4.0007997,3
31767906087452,-0.2727818,9.126225,3.2925239,3
31767908466358,-0.4881358,9.226724,2.952743,3
31767910845212,-0.6891329,9.145369,3.345166,3
31767913224066,-0.79920274,9.049655,4.0869412,3
31767915602921,-1.0097711,9.016156,4.6229334,3
31767917981827,-1.0624132,8.944371,4.6803613,3
31767920360681,-1.0193424,8.958728,4.1778684,3
31767922739535,-1.0480564,9.150154,3.6323047,3
31767925118389,-0.9284152,9.131011,3.4313076,3
31767927497296,-0.8039884,9.0544405,3.7328033,3
31767929876150,-0.7322037,9.035298,4.1635113,3
31767932255004,-0.63170516,9.078369,4.4841495,3
31767934633858,-0.4546363,9.030513,4.3788652,3
31767937012764,-0.31585258,9.08794,4.0007997,3
31767939391619,-0.17706887,9.150154,3.574877,3
31767941770473,-0.043070808,9.164511,3.4648073,3
31767944149327,0.07178468,9.08794,3.6227336,3
31767946528181,0.12921242,9.083155,3.9481573,3
31767948907087,0.20578274,9.064013,4.168297,3
31767951285889,0.2727818,9.035298,4.173083,3
31767953664796,0.32063824,9.044869,3.9242291,3
31767956043650,0.3397808,9.078369,3.5988052,3
31767958422556,0.3589234,9.097511,3.4360933,3
31767960801410,0.32063824,9.078369,3.5653057,3
31767963180264,0.28235307,9.049655,3.818945,3
31767965559171,0.20578274,9.092726,4.0534415,3
31767967938025,0.16749759,9.102298,4.0007997,3
31767970316879,0.05742774,9.135797,3.7423747,3
31767972695733,-0.023928227,9.164511,3.4839497,3
31767975074587,-0.062213387,9.126225,3.3643086,3
31767977453494,-0.13399807,9.116654,3.4648073,3
31767979832348,-0.16271193,9.073584,3.67059,3
31767982211202,-0.15314065,9.092726,3.8668015,3
31767984590056,-0.13399807,9.068798,3.8620157,3
31767986968962,-0.14356937,9.107083,3.7184465,3
31767989347816,-0.07178468,9.131011,3.5174494,3
31767991726671,-0.062213387,9.174082,3.3882368,3
31767994105525,-0.047856454,9.169296,3.4695928,3
31767996484431,-0.043070808,9.150154,3.7040894,3
31767998863285,-0.033499517,9.126225,3.900301,3
31768001242087,-0.086141616,9.15494,3.9625144,3
31768003620994,-0.08135597,9.159725,3.8907297,3
31768005999900,-0.09092726,9.178867,3.737589,3
31768008378754,-0.11006984,9.202796,3.6658044,3
31768010757608,-0.11485548,9.174082,3.7567315,3
31768013136462,-0.148355,9.174082,3.9290147,3
31768015515316,-0.17228323,9.140582,4.082155,3
31768017894223,-0.22013968,9.135797,4.115655,3
31768020273077,-0.21535404,9.150154,4.0007997,3
31768022651931,-0.24885355,9.164511,3.8572302,3
31768025030785,-0.2727818,9.126225,3.8093736,3
31768027409691,-0.3062813,9.116654,3.8572302,3
31768029788546,-0.31585258,9.083155,3.9290147,3
31768032167400,-0.3397808,9.073584,4.0103707,3
31768034546254,-0.34456646,9.049655,4.0390844,3
31768036925160,-0.33499518,9.040084,3.9864426,3
31768039304014,-0.3062813,9.049655,3.9194436,3
31768041682869,-0.27756742,9.049655,3.8620157,3
31768044061723,-0.2440679,9.049655,3.8333018,3
31768046440629,-0.23928227,9.078369,3.8333018,3
31768048819483,-0.20578274,9.059227,3.8285162,3
31768051198337,-0.19142582,9.073584,3.8237305,3
31768053577191,-0.2009971,9.078369,3.7854455,3
31768055956098,-0.18185452,9.083155,3.7280176,3
31768058334952,-0.18185452,9.097511,3.6993039,3
31768060713806,-0.19142582,9.097511,3.6849468,3
31768063092660,-0.22971097,9.102298,3.6993039,3
31768065471514,-0.28713873,9.126225,3.7280176,3
31768067850421,-0.30149564,9.12144,3.737589,3
31768070229275,-0.35413775,9.126225,3.7280176,3
31768072608129,-0.37806597,9.131011,3.723232,3
31768074986983,-0.38285163,9.150154,3.7136607,3
31768077365889,-0.43070808,9.169296,3.7184465,3
31768079744744,-0.44506502,9.183653,3.7423747,3
31768082123598,-0.47377887,9.193225,3.7615173,3
31768084502452,-0.44506502,9.135797,3.737589,3
31768086881358,-0.44985065,9.135797,3.7184465,3
31768089260212,-0.44985065,9.145369,3.723232,3
31768091639066,-0.39720857,9.111869,3.7950168,3
31768094017921,-0.36370903,9.073584,3.8476589,3
31768096396827,-0.32063824,9.068798,3.8572302,3
31768098775681,-0.29671,9.044869,3.7998023,3
31768101154535,-0.31106696,9.078369,3.7471602,3
31768103533389,-0.29192436,9.064013,3.7088752,3
31768105912244,-0.29192436,9.035298,3.7615173,3
31768108291150,-0.28713873,9.020942,3.818945,3
31768110670004,-0.31106696,9.0544405,3.8907297,3
31768113048858,-0.32542387,9.049655,3.8763726,3
31768115427764,-0.3397808,9.0544405,3.804588,3
31768117806619,-0.3924229,9.078369,3.7328033,3
31768120185473,-0.4211368,9.08794,3.7184465,3
31768122564327,-0.4546363,9.059227,3.7615173,3
31768124943181,-0.4881358,9.064013,3.8907297,3
31768127322087,-0.5694918,9.12144,4.0295134,3
31768129700941,-0.65084773,9.126225,4.0438704,3
31768132079796,-0.6795616,9.135797,3.9098723,3
31768134458650,-0.7465607,9.212367,3.6993039,3
31768136837556,-0.7752745,9.274581,3.5700915,3
31768139216410,-0.81834537,9.250652,3.6275191,3
31768141595264,-0.80877405,9.250652,3.8141594,3
31768143974119,-0.8039884,9.241081,3.991228,3
31768146353025,-0.7369894,9.217153,3.9960139,3
31768148731879,-0.67477596,9.212367,3.842873,3
31768151110733,-0.5838487,9.221938,3.6514473,3
31768153489587,-0.47856453,9.19801,3.5653057,3
31768155868494,-0.37328035,9.202796,3.6466618,3
31768158247348,-0.27756742,9.202796,3.7710886,3
31768160626202,-0.17228323,9.126225,3.7950168,3
31768163005056,-0.033499517,9.116654,3.7040894,3
31768165383962,0.062213387,9.08794,3.546163,3
31768167762816,0.148355,9.044869,3.4743786,3
31768170141671,0.18664017,9.049655,3.694518,3
31768172520525,0.2632105,8.915657,3.9433718,3
31768174899379,0.17706887,8.915657,4.3740797,3
31768177278285,0.16749759,8.839087,4.723432,3
31768179657139,0.2632105,8.772088,4.1922255,3
31768182035994,0.06699903,9.097511,3.3355947,3
31768184414848,0.0526421,9.19801,2.861816,3
31768186793754,-0.019142581,9.044869,3.211168,3
31768189172608,-0.15792629,8.944371,3.9960139,3
31768191551462,-0.2727818,9.030513,4.7425747,3
31768193930316,-0.19621146,9.001799,4.7712884,3
31768196309223,-0.25842485,9.116654,4.101298,3
31768198688025,-0.23928227,9.293723,3.3116665,3
31768201066931,-0.1052842,9.336794,2.9766715,3
31768203445785,-0.11964113,9.288938,3.3164523,3
31768205824691,-0.076570325,9.265009,4.0007997,3
31768208203546,0.02871387,9.217153,4.5655055,3
31768210582400,0.13399807,9.202796,4.546363,3
31768212961254,0.23928227,9.236296,3.9720855,3
31768215340160,0.37328035,9.303294,3.2973096,3
31768217719014,0.46899325,9.332008,2.9383862,3
31768220097869,0.5312066,9.260223,3.1058838,3
31768222476723,0.5312066,9.150154,3.67059,3
31768224855577,0.4833502,9.0544405,4.1491547,3
31768227234431,0.42592242,9.01137,4.1587257,3
31768229613337,0.36370903,9.01137,3.7280176,3
31768231992191,0.28713873,9.0544405,3.1489546,3
31768234371046,0.1052842,9.102298,2.8378878,3
31768236749952,-0.05742774,9.08794,3.048456,3
31768239128806,-0.22971097,9.006584,3.6514473,3
31768241507660,-0.41635114,8.9348,4.278367,3
31768243886514,-0.53599226,8.9013,4.412365,3
31768246265421,-0.6029913,8.963513,4.0295134,3
31768248644275,-0.5982057,9.059227,3.4408789,3
31768251023129,-0.64606214,9.131011,3.129812,3
31768253401983,-0.60777694,9.111869,3.2398818,3
31768255780889,-0.5694918,9.107083,3.723232,3
31768258159744,-0.47856453,9.15494,4.1491547,3
31768260538598,-0.33499518,9.274581,4.211368,3
31768262917452,-0.19621146,9.360723,3.8955152,3
31768265296306,-0.019142581,9.336794,3.5892339,3
31768267675212,0.17228323,9.250652,3.5557344,3
31768270054066,0.29671,9.174082,3.8380876,3
31768272432921,0.44027936,9.107083,4.15394,3
31768274811775,0.5694918,9.078369,4.2831526,3
31768277190681,0.66041905,9.064013,4.173083,3
31768279569535,0.6843473,9.001799,3.9960139,3
31768281948389,0.7178468,8.925228,3.8668015,3
31768284327244,0.7082755,8.915657,3.7280176,3
31768286706150,0.60777694,9.035298,3.574877,3
31768289085004,0.4881358,9.068798,3.4025939,3
31768291463806,0.33020952,9.064013,3.3690944,3
31768293842712,0.15792629,9.111869,3.6275191,3
31768296221619,-0.023928227,9.049655,4.034299,3
31768298600473,-0.18185452,9.020942,4.273581,3
31768300979327,-0.2727818,9.102298,4.101298,3
31768303358181,-0.31585258,9.217153,3.7710886,3
31768305737087,-0.29671,9.178867,3.4408789,3
31768308115941,-0.26799613,9.23151,3.546163,3
31768310494796,-0.15792629,9.212367,4.048656,3
31768312873650,0.019142581,9.068798,4.4315076,3
31768315252556,0.15792629,9.12144,4.4458647,3
31768317631410,0.37328035,9.236296,4.034299,3
31768320010264,0.55034924,9.269794,3.5174494,3
31768322389119,0.6987042,9.193225,3.1489546,3
31768324767973,0.6939186,9.226724,3.3930225,3
31768327146879,0.7369894,9.068798,4.019942,3
31768329525733,0.6891329,8.906086,4.5415773,3
31768331904535,0.61734825,8.882157,4.398008,3
31768334283441,0.4881358,9.068798,3.8668015,3
31768336662348,0.3589234,9.12144,3.345166,3
31768339041202,0.16749759,9.078369,3.1537402,3
31768341420056,-0.14356937,9.145369,3.455236,3
31768343798910,-0.37806597,9.140582,4.0007997,3
31768346177816,-0.6125626,9.001799,4.3740797,3
31768348556671,-0.82313097,9.030513,4.273581,3
31768350935525,-0.98584294,9.174082,3.8333018,3
31768353314379,-1.0719845,9.212367,3.3834512,3
31768355693285,-1.119841,9.183653,3.249453,3
31768358072139,-1.18684,9.178867,3.5126636,3
31768360450994,-1.1006985,9.116654,3.9433718,3
31768362829848,-1.0193424,9.059227,4.2592244,3
31768365208754,-0.8470592,9.092726,4.1874394,3
31768367587608,-0.64606214,9.097511,3.790231,3
31768369966462,-0.44027936,9.12144,3.426522,3
31768372345316,-0.23928227,9.107083,3.3930225,3
31768374724171,-0.09571291,9.078369,3.6610186,3
31768377103077,0.076570325,9.064013,3.9864426,3
31768379481931,0.2105684,9.111869,4.15394,3
31768381860785,0.36370903,9.068798,4.0103707,3
31768384239639,0.4354937,9.08794,3.7423747,3
31768386618546,0.5024927,9.059227,3.6179478,3
31768388997400,0.53599226,9.030513,3.7663028,3
31768391376254,0.5168497,8.997013,3.9290147,3
31768393755108,0.4354937,9.064013,3.8572302,3
31768396134014,0.3493521,9.140582,3.6466618,3
31768398512869,0.25842485,9.140582,3.5365918,3
31768400891723,0.062213387,9.107083,3.6610186,3
31768403270577,-0.09092726,9.049655,3.9194436,3
31768405649483,-0.21535404,9.049655,4.072584,3
31768408028337,-0.31106696,9.064013,3.9625144,3
31768410407191,-0.4354937,9.159725,3.7758741,3
31768412786046,-0.5168497,9.135797,3.5940197,3
31768415164900,-0.5886344,9.159725,3.694518,3
31768417543806,-0.61734825,9.159725,3.9146578,3
31768419922660,-0.59342,9.08794,3.9768713,3
31768422301514,-0.5982057,9.174082,3.8763726,3
31768424680369,-0.5072784,9.2075815,3.7710886,3
31768427059275,-0.41635114,9.169296,3.790231,3
31768429438129,-0.35413775,9.116654,3.900301,3
31768431816983,-0.22971097,9.150154,3.871587,3
31768434195837,-0.11485548,9.193225,3.7950168,3
31768436574744,-0.009571291,9.08794,3.790231,3
31768438953598,0.038285162,9.025727,4.0390844,3
31768441332452,0.124426775,8.9826565,4.2592244,3
31768443711306,0.16749759,9.020942,4.206582,3
31768446090212,0.17706887,9.111869,3.8955152,3
31768448469066,0.13399807,9.126225,3.5653057,3
31768450847921,0.0526421,9.131011,3.4169507,3
31768453226775,-0.05742774,9.169296,3.5988052,3
31768455605629,-0.19142582,9.102298,3.8572302,3
31768457984535,-0.3684947,9.040084,3.9577286,3
31768460363389,-0.5312066,9.131011,3.8524444,3
31768462742244,-0.63170516,9.221938,3.6131623,3
31768465121098,-0.7465607,9.178867,3.3690944,3
31768467500004,-0.8279166,9.131011,3.2542388,3
31768469878858,-0.8805587,9.111869,3.359523,3
31768472257712,-0.8805587,9.044869,3.6227336,3
31768474636566,-0.91405827,9.035298,3.9050865,3
31768477015473,-0.91405827,9.116654,4.0773697,3
31768479394327,-0.85184485,9.164511,4.019942,3
31768481773181,-0.75613195,9.169296,3.7950168,3
31768484152035,-0.6795616,9.241081,3.5605202,3
31768486530941,-0.6221339,9.250652,3.493521,3
31768488909796,-0.51206404,9.2075815,3.6323047,3
31768491288650,-0.41635114,9.145369,3.8476589,3
31768493667504,-0.3397808,9.131011,4.005585,3
31768496046410,-0.26799613,9.078369,4.0007997,3
31768498425264,-0.16749759,9.083155,3.8380876,3
31768500804119,-0.11006984,9.131011,3.6370904,3
31768503182973,-0.076570325,9.178867,3.574877,3
31768505561827,-0.05742774,9.145369,3.656233,3
31768507940733,-0.09092726,9.107083,3.7758741,3
31768510319587,-0.11485548,8.987442,3.8380876,3
31768512698441,-0.14356937,8.944371,3.8476589,3
31768515077348,-0.2009971,9.01137,3.7998023,3
31768517456202,-0.22492532,9.0544405,3.7854455,3
31768519835056,-0.29671,9.102298,3.8572302,3
31768522213910,-0.29671,9.126225,4.0007997,3
31768524592764,-0.33499518,9.102298,4.125226,3
31768526971671,-0.32063824,9.097511,4.130012,3
31768529350525,-0.28235307,9.111869,4.0151563,3
31768531729379,-0.25842485,9.107083,3.8093736,3
31768534108233,-0.22013968,9.15494,3.6610186,3
31768536487087,-0.15314065,9.178867,3.6753755,3
31768538865994,-0.10049855,9.159725,3.7854455,3
31768541244848,-0.038285162,9.116654,3.900301,3
31768543623702,0.0047856453,9.107083,3.952943,3
31768546002608,0.07178468,9.131011,3.871587,3
31768548381462,0.09092726,9.111869,3.6993039,3
31768550760316,0.124426775,9.126225,3.6131623,3
31768553139171,0.10049855,9.145369,3.5844483,3
31768555518025,0.06699903,9.116654,3.6466618,3
31768557896931,0.0047856453,9.025727,3.7471602,3
31768560275785,-0.062213387,9.020942,3.8476589,3
31768562654639,-0.16271193,9.092726,3.900301,3
31768565033494,-0.23449662,9.092726,3.8237305,3
31768567412400,-0.32542387,9.135797,3.7806597,3
31768569791254,-0.35413775,9.178867,3.7758741,3
31768572170108,-0.4211368,9.178867,3.7758741,3
31768574548962,-0.43070808,9.15494,3.8141594,3
31768576927869,-0.44985065,9.15494,3.8093736,3
31768579306723,-0.4211368,9.178867,3.7854455,3
31768581685577,-0.39720857,9.131011,3.751946,3
31768584064431,-0.33020952,9.107083,3.7423747,3
31768586443337,-0.23928227,9.102298,3.7663028,3
31768588822191,-0.18185452,9.064013,3.7998023,3
31768591201046,-0.05742774,9.0544405,3.8285162,3
31768593579900,0.033499517,9.0544405,3.8333018,3
31768595958754,0.10049855,9.064013,3.7854455,3
31768598337660,0.17228323,9.0544405,3.7328033,3
31768600716514,0.20578274,9.073584,3.7184465,3
31768603095369,0.18664017,9.059227,3.723232,3
31768605474223,0.16271193,9.0544405,3.7758741,3
31768607853129,0.09571291,9.059227,3.790231,3
31768610231983,-0.014356935,9.049655,3.7567315,3
31768612610837,-0.11964113,9.078369,3.8333018,3
31768614989691,-0.19621146,9.044869,3.7567315,3
31768617368598,-0.34456646,9.116654,3.7280176,3
31768619747452,-0.44985065,9.102298,3.7040894,3
31768622126306,-0.56470615,9.111869,3.737589,3
31768624505160,-0.6843473,9.111869,3.7758741,3
31768626884066,-0.7513463,9.12144,3.8237305,3
31768629262921,-0.7896315,9.092726,3.8524444,3
31768631641775,-0.8039884,9.08794,3.8285162,3
31768634020629,-0.7896315,9.150154,3.8141594,3
31768636399483,-0.7322037,9.145369,3.8093736,3
31768638778389,-0.6652047,9.126225,3.8285162,3
31768641157244,-0.5838487,9.116654,3.8524444,3
31768643536098,-0.4546363,9.116654,3.8668015,3
31768645914952,-0.32063824,9.102298,3.8763726,3
31768648293858,-0.17706887,9.068798,3.8476589,3
31768650672712,-0.07178468,9.078369,3.8093736,3
31768653051566,0.043070808,9.083155,3.7854455,3
31768655430421,0.14356937,9.111869,3.804588,3
31768657809327,0.17228323,9.102298,3.8237305,3
31768660188181,0.2105684,9.078369,3.8524444,3
31768662567035,0.2009971,9.064013,3.842873,3
31768664945889,0.17228323,9.064013,3.842873,3
31768667324796,0.11964113,9.097511,3.8237305,3
31768669703650,0.02871387,9.102298,3.8093736,3
31768672082504,-0.07178468,9.116654,3.804588,3
31768674461358,-0.18664017,9.135797,3.804588,3
31768676840264,-0.28235307,9.12144,3.8333018,3
31768679219119,-0.4019942,9.131011,3.8476589,3
31768681597973,-0.4977071,9.116654,3.8380876,3
31768683976827,-0.59342,9.131011,3.8093736,3
31768686355681,-0.6221339,9.140582,3.7998023,3
31768688734587,-0.6364908,9.12144,3.7950168,3
31768691113441,-0.6412765,9.102298,3.7950168,3
31768693492296,-0.6125626,9.116654,3.8141594,3
31768695871150,-0.5694918,9.08794,3.842873,3
31768698250056,-0.5024927,9.078369,3.8333018,3
31768700628910,-0.41635114,9.097511,3.8285162,3
31768703007764,-0.3589234,9.107083,3.8093736,3
31768705386619,-0.28235307,9.102298,3.7615173,3
31768707765525,-0.2009971,9.092726,3.7423747,3
31768710144379,-0.12921242,9.08794,3.7328033,3
31768712523233,-0.07178468,9.097511,3.7328033,3
31768714902087,-0.047856454,9.102298,3.7423747,3
31768717280941,0.0,9.116654,3.7423747,3
31768719659848,0.014356935,9.111869,3.7280176,3
31768722038702,0.0,9.116654,3.7280176,3
31768724417556,-0.038285162,9.116654,3.7423747,3
31768726796410,-0.086141616,9.131011,3.7567315,3
31768729175316,-0.11964113,9.12144,3.7854455,3
31768731554171,-0.17706887,9.135797,3.8141594,3
31768733933025,-0.2632105,9.111869,3.7998023,3
31768736311879,-0.33020952,9.092726,3.7758741,3
31768738690785,-0.38285163,9.126225,3.818945,3
31768741069639,-0.44506502,9.131011,3.818945,3
31768743448494,-0.47377887,9.12144,3.8285162,3
31768745827348,-0.4881358,9.145369,3.8572302,3
31768748206254,-0.4833502,9.12144,3.8476589,3
31768750585108,-0.47856453,9.12144,3.8333018,3
31768752963962,-0.44985065,9.12144,3.8237305,3
31768755342816,-0.4019942,9.116654,3.8380876,3
31768757721671,-0.3493521,9.12144,3.8093736,3
31768760100577,-0.2727818,9.116654,3.8237305,3
31768762479431,-0.2105684,9.08794,3.842873,3
31768764858285,-0.15314065,9.102298,3.8333018,3
31768767237139,-0.076570325,9.083155,3.8285162,3
31768769616046,-0.02871387,9.08794,3.8093736,3
31768771994900,0.0047856453,9.08794,3.8141594,3
31768774373754,0.0,9.107083,3.8237305,3
31768776752608,-0.023928227,9.111869,3.8141594,3
31768779131514,-0.038285162,9.092726,3.818945,3
31768781510369,-0.08135597,9.12144,3.7998023,3
31768783889223,-0.13878371,9.131011,3.7758741,3
31768786268077,-0.18185452,9.12144,3.7806597,3
31768788646931,-0.23928227,9.126225,3.7854455,3
31768791025837,-0.2727818,9.140582,3.8093736,3
31768793404691,-0.35413775,9.12144,3.8285162,3
31768795783546,-0.41635114,9.126225,3.8237305,3
31768798162400,-0.44506502,9.126225,3.8285162,3
31768800541306,-0.4642076,9.140582,3.8093736,3
31768802920160,-0.4642076,9.135797,3.7998023,3
31768805299014,-0.44985065,9.150154,3.818945,3
31768807677869,-0.44027936,9.140582,3.804588,3
31768810056775,-0.40677986,9.126225,3.7615173,3
31768812435629,-0.3684947,9.140582,3.7663028,3
31768814814483,-0.31585258,9.140582,3.7710886,3
31768817193337,-0.26799613,9.116654,3.7615173,3
31768819572244,-0.23449662,9.111869,3.751946,3
31768821951098,-0.17228323,9.116654,3.751946,3
31768824329952,-0.16271193,9.102298,3.7567315,3
31768826708806,-0.11964113,9.078369,3.7663028,3
31768829087712,-0.09571291,9.064013,3.7567315,3
31768831466566,-0.086141616,9.068798,3.737589,3
31768833845421,-0.07178468,9.049655,3.737589,3
31768836224275,-0.12921242,9.073584,3.723232,3
31768838603129,-0.18185452,9.097511,3.7088752,3
31768840982035,-0.23928227,9.08794,3.723232,3
31768843360889,-0.29192436,9.097511,3.7280176,3
31768845739744,-0.37806597,9.131011,3.7423747,3
31768848118598,-0.44985065,9.131011,3.7471602,3
31768850497504,-0.47856453,9.164511,3.790231,3
31768852876358,-0.53599226,9.135797,3.790231,3
31768855255212,-0.56470615,9.135797,3.790231,3
31768857634014,-0.57427746,9.131011,3.8285162,3
31768860012973,-0.5838487,9.140582,3.8380876,3
31768862391827,-0.55513483,9.140582,3.842873,3
31768864770681,-0.5312066,9.145369,3.8524444,3
31768867149535,-0.47856453,9.135797,3.8476589,3
31768869528441,-0.4019942,9.12144,3.8476589,3
31768871907244,-0.3493521,9.126225,3.8237305,3
31768874286150,-0.29671,9.111869,3.7998023,3
31768876665004,-0.23928227,9.126225,3.804588,3
31768879043858,-0.16749759,9.111869,3.804588,3
31768881422764,-0.11006984,9.111869,3.7950168,3
31768883801619,-0.09092726,9.116654,3.8333018,3
31768886180473,-0.08135597,9.107083,3.8141594,3
31768888559327,-0.09571291,9.092726,3.8237305,3
31768890938181,-0.062213387,9.078369,3.818945,3
31768893317087,-0.062213387,9.083155,3.790231,3
31768895695941,-0.086141616,9.040084,3.7806597,3
31768898074796,-0.09571291,9.078369,3.8237305,3
31768900453702,-0.15314065,9.116654,3.842873,3
31768902832556,-0.2440679,9.102298,3.8285162,3
31768905211410,-0.26799613,9.092726,3.8237305,3
31768907590264,-0.29671,9.092726,3.7854455,3
31768909969119,-0.33499518,9.059227,3.7184465,3
31768912348025,-0.37806597,9.092726,3.7136607,3
31768914726879,-0.38285163,9.08794,3.7328033,3
31768917105733,-0.4211368,9.08794,3.737589,3
31768919484587,-0.37806597,9.083155,3.7567315,3
31768921863494,-0.3397808,9.126225,3.7663028,3
31768924242348,-0.3589234,9.164511,3.7567315,3
31768926621202,-0.33020952,9.145369,3.7328033,3
31768929000056,-0.25842485,9.116654,3.7040894,3
31768931378962,-0.24885355,9.126225,3.7184465,3
31768933757816,-0.23449662,9.145369,3.7280176,3
31768936136671,-0.22492532,9.111869,3.751946,3
31768938515525,-0.22971097,9.097511,3.7423747,3
31768940894431,-0.23928227,9.126225,3.723232,3
31768943273285,-0.23449662,9.145369,3.7040894,3
31768945652139,-0.27756742,9.135797,3.7040894,3
31768948030994,-0.25842485,9.131011,3.7184465,3
31768950409848,-0.30149564,9.150154,3.751946,3
31768952788754,-0.31585258,9.111869,3.7854455,3
31768955167608,-0.30149564,9.097511,3.818945,3
31768957546462,-0.32063824,9.111869,3.8141594,3
31768959925316,-0.33020952,9.097511,3.7854455,3
31768962304223,-0.3493521,9.08794,3.804588,3
31768964683077,-0.33499518,9.111869,3.8333018,3
31768967061931,-0.3493521,9.068798,3.8476589,3
31768969440785,-0.3397808,9.0544405,3.8476589,3
31768971819639,-0.34456646,9.059227,3.8572302,3
31768974198546,-0.34456646,9.059227,3.8476589,3
31768976577400,-0.34456646,9.059227,3.8285162,3
31768978956254,-0.31106696,9.073584,3.790231,3
31768981335160,-0.30149564,9.097511,3.7950168,3
31768983714014,-0.30149564,9.107083,3.8141594,3
31768986092869,-0.3062813,9.12144,3.8380876,3
31768988471723,-0.32542387,9.116654,3.8380876,3
31768990850577,-0.32542387,9.116654,3.8380876,3
31768993229483,-0.36370903,9.12144,3.8333018,3
31768995608337,-0.37328035,9.135797,3.8141594,3
31768997987191,-0.4019942,9.150154,3.8141594,3
31769000366046,-0.4354937,9.150154,3.804588,3
31769002744952,-0.4354937,9.131011,3.8141594,3
31769005123806,-0.44506502,9.150154,3.8380876,3
31769007502660,-0.44506502,9.169296,3.8333018,3
31769009881514,-0.39720857,9.150154,3.8141594,3
31769012260421,-0.37806597,9.159725,3.7854455,3
31769014639275,-0.33499518,9.140582,3.804588,3
31769017018129,-0.28713873,9.145369,3.804588,3
31769019396983,-0.23449662,9.131011,3.804588,3
31769021775837,-0.17228323,9.131011,3.7998023,3
31769024154744,-0.12921242,9.092726,3.7758741,3
31769026533598,-0.062213387,9.08794,3.7758741,3
31769028912452,-0.014356935,9.092726,3.737589,3
31769031291306,0.019142581,9.107083,3.7471602,3
31769033670212,0.033499517,9.111869,3.7471602,3
31769036049066,0.06699903,9.111869,3.7567315,3
31769038427921,0.1052842,9.107083,3.7471602,3
31769040806775,0.10049855,9.111869,3.737589,3
31769043185629,0.07178468,9.102298,3.7328033,3
31769045564535,0.043070808,9.111869,3.7280176,3
31769047943389,0.0,9.116654,3.7088752,3
31769050322244,-0.033499517,9.135797,3.7328033,3
31769052701098,-0.09571291,9.150154,3.7423747,3
31769055080004,-0.14356937,9.140582,3.7567315,3
31769057458858,-0.19621146,9.140582,3.7567315,3
31769059837712,-0.2440679,9.15494,3.7423747,3
31769062216566,-0.27756742,9.159725,3.7280176,3
31769064595473,-0.33020952,9.145369,3.737589,3
31769066974327,-0.37806597,9.15494,3.7663028,3
31769069353181,-0.38285163,9.183653,3.7710886,3
31769071732035,-0.41635114,9.15494,3.7998023,3
31769074110941,-0.3684947,9.140582,3.8237305,3
31769076489796,-0.33020952,9.111869,3.7998023,3
31769078868650,-0.31106696,9.097511,3.7950168,3
31769081247504,-0.26799613,9.097511,3.7998023,3
31769083626358,-0.22492532,9.102298,3.7950168,3
31769086005264,-0.17228323,9.126225,3.7663028,3
31769088384119,-0.148355,9.12144,3.7663028,3
31769090762973,-0.10049855,9.102298,3.7615173,3
31769093141827,-0.086141616,9.111869,3.7663028,3
31769095520733,-0.086141616,9.092726,3.751946,3
31769097899587,-0.11964113,9.073584,3.7663028,3
31769100278441,-0.13878371,9.116654,3.7806597,3
31769102657296,-0.17228323,9.126225,3.7854455,3
31769105036202,-0.2009971,9.116654,3.804588,3
31769107415056,-0.25842485,9.12144,3.8141594,3
31769109793910,-0.31585258,9.111869,3.8093736,3
31769112172764,-0.37328035,9.135797,3.818945,3
31769114551619,-0.4019942,9.140582,3.8285162,3
31769116930525,-0.41635114,9.150154,3.818945,3
31769119309379,-0.44027936,9.15494,3.8237305,3
31769121688233,-0.44985065,9.150154,3.818945,3
31769124067087,-0.44027936,9.126225,3.8285162,3
31769126445994,-0.44506502,9.111869,3.804588,3
31769128824848,-0.41635114,9.092726,3.804588,3
31769131203702,-0.36370903,9.083155,3.790231,3
31769133582556,-0.30149564,9.068798,3.7998023,3
31769135961462,-0.2632105,9.073584,3.7854455,3
31769138340316,-0.22492532,9.08794,3.7854455,3
31769140719171,-0.17228323,9.073584,3.7854455,3
31769143098025,-0.11006984,9.068798,3.7806597,3
31769145476931,-0.07178468,9.068798,3.7854455,3
31769147855785,-0.0526421,9.078369,3.7806597,3
31769150234639,-0.023928227,9.068798,3.7663028,3
31769152613494,-0.09571291,9.064013,3.751946,3
31769154992348,-0.12921242,9.092726,3.7328033,3
31769157371254,-0.16271193,9.107083,3.7471602,3
31769159750108,-0.23928227,9.116654,3.7710886,3
31769162128962,-0.3397808,9.092726,3.7854455,3
31769164507816,-0.41635114,9.078369,3.8237305,3
31769166886723,-0.4642076,9.102298,3.8093736,3
31769169265577,-0.4833502,9.107083,3.8141594,3
31769171644431,-0.56470615,9.092726,3.7950168,3
31769174023285,-0.57427746,9.12144,3.7806597,3
31769176402191,-0.5838487,9.126225,3.7998023,3
31769178781046,-0.6029913,9.126225,3.7998023,3
31769181159848,-0.5886344,9.12144,3.7998023,3
31769183538754,-0.5599205,9.140582,3.7950168,3
31769185917556,-0.5168497,9.111869,3.7758741,3
31769188296514,-0.42592242,9.111869,3.7710886,3
31769190675369,-0.37328035,9.097511,3.7950168,3
31769193054223,-0.29192436,9.092726,3.7950168,3
31769195433077,-0.2105684,9.097511,3.7998023,3
31769197811983,-0.13878371,9.116654,3.7854455,3
31769200190837,-0.08135597,9.102298,3.7950168,3
31769202569691,-0.019142581,9.107083,3.7998023,3
31769204948546,-0.009571291,9.107083,3.7998023,3
31769207327452,-0.014356935,9.107083,3.7998023,3
31769209706254,-0.009571291,9.097511,3.818945,3
31769212085160,-0.02871387,9.092726,3.818945,3
31769214464014,-0.0526421,9.12144,3.8141594,3
31769216842869,-0.09571291,9.097511,3.8285162,3
31769219221775,-0.14356937,9.097511,3.818945,3
31769221600629,-0.17706887,9.083155,3.8141594,3
31769223979431,-0.2440679,9.059227,3.804588,3
31769226358337,-0.28235307,9.049655,3.8237305,3
31769228737244,-0.33020952,9.059227,3.8141594,3
31769231116098,-0.3684947,9.073584,3.7998023,3
31769233494952,-0.37328035,9.078369,3.8093736,3
31769235873806,-0.39720857,9.107083,3.804588,3
31769238252712,-0.38763726,9.102298,3.8093736,3
31769240631566,-0.40677986,9.08794,3.8237305,3
31769243010421,-0.39720857,9.111869,3.8333018,3
31769245389275,-0.3924229,9.116654,3.8380876,3
31769247768129,-0.3684947,9.111869,3.842873,3
31769250147035,-0.37328035,9.116654,3.8476589,3
31769252525889,-0.37806597,9.116654,3.8524444,3
31769254904744,-0.33499518,9.08794,3.8476589,3
31769257283598,-0.33499518,9.092726,3.8524444,3
31769259662504,-0.3397808,9.12144,3.8380876,3
31769262041358,-0.3397808,9.107083,3.8620157,3
31769264420212,-0.3062813,9.08794,3.8333018,3
31769266799066,-0.28713873,9.078369,3.8285162,3
31769269177973,-0.2440679,9.08794,3.8093736,3
31769271556827,-0.22971097,9.08794,3.8093736,3
31769273935681,-0.20578274,9.068798,3.8093736,3
31769276314535,-0.19621146,9.083155,3.804588,3
31769278693389,-0.18664017,9.064013,3.804588,3
31769281072296,-0.15792629,9.08794,3.8141594,3
31769283451150,-0.15314065,9.107083,3.8093736,3
31769285830004,-0.14356937,9.102298,3.818945,3
31769288208858,-0.13878371,9.116654,3.8237305,3
31769290587764,-0.13399807,9.092726,3.8285162,3
31769292966619,-0.124426775,9.097511,3.8141594,3
31769295345473,-0.11964113,9.092726,3.8141594,3
31769297724327,-0.11006984,9.107083,3.8141594,3
31769300103233,-0.11964113,9.111869,3.8141594,3
31769302482087,-0.12921242,9.135797,3.8285162,3
31769304860941,-0.16271193,9.140582,3.8333018,3
31769307239796,-0.16271193,9.135797,3.804588,3
31769309618650,-0.18664017,9.135797,3.7998023,3
31769311997556,-0.2105684,9.135797,3.8141594,3
31769314376410,-0.19142582,9.140582,3.818945,3
31769316755264,-0.2105684,9.12144,3.804588,3
31769319134119,-0.2440679,9.131011,3.8093736,3
31769321513025,-0.2440679,9.12144,3.8141594,3
31769323891879,-0.22971097,9.126225,3.7806597,3
31769326270733,-0.23449662,9.116654,3.7710886,3
31769328649587,-0.2440679,9.083155,3.7567315,3
31769331028494,-0.2105684,9.078369,3.7806597,3
31769333407348,-0.22013968,9.083155,3.7758741,3
31769335786202,-0.22492532,9.083155,3.790231,3
31769338165056,-0.21535404,9.073584,3.818945,3
31769340543910,-0.21535404,9.064013,3.8237305,3
31769342922816,-0.22971097,9.073584,3.7998023,3
31769345301671,-0.22971097,9.073584,3.8093736,3
31769347680525,-0.2105684,9.08794,3.818945,3
31769350059379,-0.16749759,9.097511,3.8476589,3
31769352438285,-0.18185452,9.107083,3.8476589,3
31769354817139,-0.18185452,9.102298,3.8333018,3
31769357195994,-0.18185452,9.107083,3.842873,3
31769359574848,-0.18664017,9.12144,3.8141594,3
31769361953754,-0.19621146,9.126225,3.804588,3
31769364332608,-0.22013968,9.135797,3.7806597,3
31769366711462,-0.21535404,9.135797,3.7710886,3
31769369090316,-0.22492532,9.140582,3.7710886,3
31769371469171,-0.21535404,9.12144,3.7854455,3
31769373848077,-0.22492532,9.131011,3.7854455,3
31769376226931,-0.22971097,9.150154,3.790231,3
31769378605785,-0.19621146,9.140582,3.7710886,3
31769380984639,-0.18664017,9.145369,3.790231,3
31769383363546,-0.16271193,9.135797,3.8093736,3
31769385742400,-0.13399807,9.111869,3.8237305,3
31769388121254,-0.14356937,9.08794,3.8476589,3
31769390500108,-0.1052842,9.083155,3.8524444,3
31769392878962,-0.062213387,9.073584,3.8572302,3
31769395257869,-0.0526421,9.073584,3.8524444,3
31769397636723,-0.02871387,9.064013,3.8524444,3
31769400015577,-0.02871387,9.064013,3.842873,3
31769402394431,-0.062213387,9.078369,3.8524444,3
31769404773337,-0.0526421,9.092726,3.818945,3
31769407152191,-0.06699903,9.092726,3.8285162,3
31769409531046,-0.09571291,9.097511,3.8237305,3
31769411909900,-0.13399807,9.092726,3.8237305,3
31769414288806,-0.18185452,9.083155,3.8141594,3
31769416667660,-0.2009971,9.116654,3.8141594,3
31769419046514,-0.20578274,9.102298,3.8333018,3
31769421425369,-0.23928227,9.111869,3.8380876,3
31769423804223,-0.25842485,9.12144,3.8476589,3
31769426183129,-0.2440679,9.102298,3.8524444,3
31769428561983,-0.24885355,9.08794,3.8476589,3
31769430940837,-0.2440679,9.08794,3.8380876,3
31769433319691,-0.22013968,9.116654,3.8285162,3
31769435698598,-0.19621146,9.12144,3.8237305,3
31769438077452,-0.17228323,9.111869,3.7950168,3
31769440456306,-0.14356937,9.097511,3.7854455,3
31769442835160,-0.11485548,9.102298,3.751946,3
31769445214066,-0.06699903,9.097511,3.751946,3
31769447592921,-0.033499517,9.107083,3.7328033,3
31769449971775,-0.019142581,9.12144,3.723232,3
31769452350629,-0.023928227,9.107083,3.7280176,3
31769454729483,-0.02871387,9.107083,3.723232,3
31769457108389,-0.02871387,9.12144,3.7280176,3
31769459487244,-0.023928227,9.12144,3.723232,3
31769461866098,-0.062213387,9.097511,3.7184465,3
31769464244952,-0.11485548,9.111869,3.723232,3
31769466623858,-0.17228323,9.107083,3.723232,3
31769469002712,-0.22971097,9.116654,3.7328033,3
31769471381566,-0.2536392,9.12144,3.7328033,3
31769473760421,-0.32063824,9.126225,3.7280176,3
31769476139275,-0.36370903,9.111869,3.723232,3
31769478518181,-0.37806597,9.116654,3.7567315,3
31769480897035,-0.4019942,9.107083,3.7615173,3
31769483275889,-0.41156548,9.131011,3.7615173,3
31769485654744,-0.40677986,9.131011,3.7710886,3
31769488033650,-0.4019942,9.107083,3.7663028,3
31769490412504,-0.38763726,9.116654,3.7758741,3
31769492791358,-0.3684947,9.126225,3.7758741,3
31769495170212,-0.31106696,9.12144,3.7758741,3
31769497549119,-0.27756742,9.12144,3.7806597,3
31769499927973,-0.23928227,9.111869,3.790231,3
31769502306775,-0.19621146,9.111869,3.7998023,3
31769504685681,-0.18664017,9.111869,3.7998023,3
31769507064535,-0.17228323,9.12144,3.790231,3
31769509443441,-0.16749759,9.083155,3.7950168,3
31769511822296,-0.16271193,9.107083,3.7998023,3
31769514201150,-0.15792629,9.131011,3.8237305,3
31769516580004,-0.17228323,9.126225,3.818945,3
31769518958910,-0.23449662,9.135797,3.8141594,3
31769521337764,-0.27756742,9.15494,3.818945,3
31769523716619,-0.33020952,9.150154,3.8285162,3
31769526095473,-0.35413775,9.135797,3.8380876,3
31769528474379,-0.37806597,9.135797,3.842873,3
31769530853233,-0.41156548,9.145369,3.8476589,3
31769533232087,-0.4354937,9.131011,3.8524444,3
31769535610941,-0.44506502,9.135797,3.842873,3
31769537989796,-0.43070808,9.12144,3.8524444,3
31769540368702,-0.38285163,9.131011,3.8333018,3
31769542747556,-0.3589234,9.131011,3.8285162,3
31769545126410,-0.32063824,9.116654,3.8237305,3
31769547505264,-0.28235307,9.111869,3.8237305,3
31769549884171,-0.21535404,9.092726,3.804588,3
31769552263025,-0.17706887,9.111869,3.7950168,3
31769554641879,-0.124426775,9.083155,3.804588,3
31769557020733,-0.086141616,9.083155,3.7758741,3
31769559399639,-0.038285162,9.073584,3.7567315,3
31769561778494,-0.023928227,9.08794,3.7758741,3
31769564157348,-0.023928227,9.078369,3.7710886,3
31769566536202,-0.019142581,9.08794,3.7806597,3
31769568915056,-0.043070808,9.102298,3.7758741,3
31769571293962,-0.086141616,9.102298,3.7615173,3
31769573672816,-0.1052842,9.116654,3.7615173,3
31769576051671,-0.13878371,9.126225,3.7710886,3
31769578430525,-0.19142582,9.116654,3.7806597,3
31769580809431,-0.24885355,9.140582,3.7758741,3
31769583188285,-0.29192436,9.15494,3.7854455,3
31769585567139,-0.31106696,9.188439,3.7567315,3
31769587945994,-0.33499518,9.169296,3.7710886,3
31769590324848,-0.35413775,9.140582,3.7806597,3
31769592703754,-0.3684947,9.135797,3.7806597,3
31769595082608,-0.3589234,9.135797,3.7950168,3
31769597461462,-0.33499518,9.135797,3.7758741,3
31769599840316,-0.3062813,9.12144,3.7758741,3
31769602219223,-0.2536392,9.107083,3.790231,3
31769604598077,-0.19621146,9.107083,3.790231,3
31769606976931,-0.16271193,9.107083,3.8093736,3
31769609355785,-0.12921242,9.111869,3.804588,3
31769611734639,-0.086141616,9.116654,3.804588,3
31769614113546,-0.08135597,9.107083,3.8093736,3
31769616492400,-0.0526421,9.131011,3.790231,3
31769618871254,-0.05742774,9.102298,3.7710886,3
31769621250108,-0.047856454,9.107083,3.7663028,3
31769623629014,-0.06699903,9.083155,3.7758741,3
31769626007869,-0.1052842,9.073584,3.7854455,3
31769628386723,-0.13399807,9.073584,3.7998023,3
31769630765577,-0.18185452,9.107083,3.8093736,3
31769633144483,-0.24885355,9.131011,3.7950168,3
31769635523337,-0.3062813,9.111869,3.7758741,3
31769637902191,-0.3684947,9.107083,3.7950168,3
31769640281046,-0.41635114,9.111869,3.7950168,3
31769642659952,-0.45942193,9.102298,3.8093736,3
31769645038806,-0.49292147,9.12144,3.8380876,3
31769647417660,-0.5072784,9.097511,3.8237305,3
31769649796514,-0.526421,9.092726,3.8237305,3
31769652175369,-0.5168497,9.097511,3.8141594,3
31769654554275,-0.47377887,9.111869,3.7950168,3
31769656933129,-0.44506502,9.116654,3.7950168,3
31769659311983,-0.41635114,9.12144,3.7806597,3
31769661690837,-0.38285163,9.116654,3.804588,3
31769664069744,-0.34456646,9.107083,3.804588,3
31769666448598,-0.31585258,9.102298,3.7854455,3
31769668827452,-0.27756742,9.092726,3.7615173,3
31769671206306,-0.22013968,9.102298,3.7615173,3
31769673585160,-0.18185452,9.12144,3.7567315,3
31769675964066,-0.16271193,9.097511,3.7471602,3
31769678342921,-0.11006984,9.107083,3.7710886,3
31769680721775,-0.11006984,9.126225,3.7710886,3
31769683100629,-0.124426775,9.140582,3.7710886,3
31769685479535,-0.11485548,9.131011,3.7567315,3
31769687858389,-0.12921242,9.111869,3.7806597,3
31769690237244,-0.124426775,9.111869,3.7758741,3
31769692616098,-0.16271193,9.116654,3.790231,3
31769694994952,-0.18185452,9.097511,3.7950168,3
31769697373858,-0.2009971,9.12144,3.7950168,3
31769699752712,-0.22492532,9.102298,3.7806597,3
31769702131566,-0.22971097,9.08794,3.7854455,3
31769704510421,-0.24885355,9.111869,3.7806597,3
31769706889327,-0.23449662,9.12144,3.7854455,3
31769709268181,-0.2440679,9.102298,3.790231,3
31769711647035,-0.23928227,9.102298,3.7950168,3
31769714025889,-0.24885355,9.097511,3.7854455,3
31769716404796,-0.24885355,9.107083,3.7758741,3
31769718783650,-0.22971097,9.097511,3.7854455,3
31769721162504,-0.22492532,9.08794,3.7854455,3
31769723541358,-0.20578274,9.107083,3.8093736,3
31769725920264,-0.17228323,9.111869,3.804588,3
31769728299119,-0.17706887,9.111869,3.8141594,3
31769730677973,-0.17706887,9.111869,3.7998023,3
31769733056827,-0.148355,9.126225,3.8093736,3
31769735435681,-0.15314065,9.140582,3.8141594,3
31769737814587,-0.19621146,9.126225,3.8093736,3
31769740193441,-0.21535404,9.097511,3.804588,3
31769742572296,-0.23449662,9.116654,3.818945,3
31769744951150,-0.23928227,9.111869,3.7998023,3
31769747330004,-0.25842485,9.116654,3.804588,3
31769749708910,-0.2632105,9.116654,3.7998023,3
31769752087764,-0.26799613,9.116654,3.7806597,3
31769754466619,-0.27756742,9.092726,3.7758741,3
31769756845473,-0.2727818,9.107083,3.790231,3
31769759224379,-0.2727818,9.111869,3.7806597,3
31769761603233,-0.27756742,9.12144,3.790231,3
31769763982087,-0.30149564,9.126225,3.7998023,3
31769766360941,-0.2727818,9.12144,3.7950168,3
31769768739848,-0.2536392,9.111869,3.7854455,3
31769771118702,-0.2440679,9.116654,3.7854455,3
31769773497556,-0.23449662,9.102298,3.7806597,3
31769775876410,-0.22013968,9.097511,3.7615173,3
31769778255264,-0.22971097,9.092726,3.7854455,3
31769780634119,-0.23928227,9.107083,3.7950168,3
31769783013025,-0.23928227,9.111869,3.7950168,3
31769785391879,-0.23928227,9.092726,3.7806597,3
31769787770733,-0.2440679,9.102298,3.7854455,3
31769790149639,-0.2536392,9.111869,3.7950168,3
31769792528494,-0.24885355,9.102298,3.7854455,3
31769794907348,-0.23449662,9.097511,3.7758741,3
31769797286202,-0.23449662,9.107083,3.7854455,3
31769799665056,-0.23449662,9.102298,3.7710886,3
31769802043962,-0.24885355,9.111869,3.7854455,3
31769804422816,-0.23449662,9.126225,3.7950168,3
31769806801671,-0.23928227,9.116654,3.7806597,3
31769809180525,-0.23928227,9.140582,3.7998023,3
31769811559379,-0.25842485,9.140582,3.790231,3
31769813938285,-0.2440679,9.145369,3.7806597,3
31769816317139,-0.23928227,9.15494,3.7950168,3
31769818695941,-0.23928227,9.145369,3.818945,3
31769821074848,-0.23928227,9.126225,3.804588,3
31769823453754,-0.21535404,9.135797,3.8141594,3
31769825832608,-0.22492532,9.107083,3.8285162,3
31769828211462,-0.22013968,9.107083,3.818945,3
31769830590316,-0.21535404,9.111869,3.8285162,3
31769832969223,-0.2009971,9.092726,3.8141594,3
31769835348077,-0.2009971,9.102298,3.8237305,3
31769837726931,-0.2105684,9.116654,3.818945,3
31769840105785,-0.20578274,9.097511,3.8141594,3
31769842484691,-0.21535404,9.08794,3.8093736,3
31769844863546,-0.2105684,9.08794,3.790231,3
31769847242400,-0.22971097,9.097511,3.7950168,3
31769849621254,-0.23449662,9.116654,3.7950168,3
31769852000108,-0.26799613,9.08794,3.804588,3
31769854379014,-0.26799613,9.073584,3.7998023,3
31769856757869,-0.2632105,9.08794,3.7854455,3
31769859136723,-0.2632105,9.107083,3.790231,3
31769861515577,-0.2727818,9.116654,3.7854455,3
31769863894483,-0.29671,9.111869,3.790231,3
31769866273337,-0.2727818,9.097511,3.7806597,3
31769868652191,-0.2727818,9.12144,3.7806597,3
31769871031046,-0.2632105,9.111869,3.7950168,3
31769873409900,-0.27756742,9.102298,3.818945,3
31769875788806,-0.2440679,9.111869,3.804588,3
31769878167660,-0.22013968,9.111869,3.7998023,3
31769880546514,-0.22492532,9.097511,3.7950168,3
31769882925369,-0.21535404,9.083155,3.7950168,3
31769885304275,-0.20578274,9.092726,3.790231,3
31769887683129,-0.17706887,9.111869,3.7806597,3
31769890061983,-0.18185452,9.078369,3.804588,3
31769892440785,-0.19621146,9.092726,3.790231,3
31769894819691,-0.2105684,9.083155,3.7710886,3
31769897198598,-0.22492532,9.102298,3.7950168,3
31769899577400,-0.22971097,9.111869,3.8237305,3
31769901956306,-0.22492532,9.111869,3.8237305,3
31769904335160,-0.2440679,9.107083,3.8093736,3
31769906714066,-0.2536392,9.083155,3.818945,3
31769909092921,-0.2727818,9.12144,3.804588,3
31769911471775,-0.27756742,9.12144,3.804588,3
31769913850629,-0.29671,9.116654,3.8141594,3
31769916229535,-0.29671,9.126225,3.8237305,3
31769918608389,-0.28713873,9.15494,3.818945,3
31769920987244,-0.25842485,9.126225,3.8141594,3
31769923366098,-0.23928227,9.131011,3.8237305,3
31769925745004,-0.22971097,9.116654,3.8093736,3
31769928123858,-0.23928227,9.131011,3.7998023,3
31769930502712,-0.22013968,9.12144,3.8285162,3
31769932881566,-0.19142582,9.131011,3.8141594,3
31769935260421,-0.20578274,9.131011,3.842873,3
31769937639327,-0.18185452,9.116654,3.7998023,3
31769940018181,-0.16749759,9.111869,3.804588,3
31769942397035,-0.19621146,9.116654,3.804588,3
31769944775889,-0.18185452,9.111869,3.804588,3
31769947154796,-0.18185452,9.078369,3.7806597,3
31769949533650,-0.18664017,9.08794,3.7758741,3
31769951912504,-0.22013968,9.078369,3.7663028,3
31769954291358,-0.2440679,9.068798,3.7663028,3
31769956670212,-0.25842485,9.107083,3.7615173,3
31769959049119,-0.28235307,9.08794,3.7710886,3
31769961427973,-0.30149564,9.08794,3.7615173,3
31769963806827,-0.32063824,9.111869,3.7758741,3
31769966185681,-0.32063824,9.116654,3.7950168,3
31769968564587,-0.32542387,9.116654,3.7998023,3
31769970943441,-0.33020952,9.12144,3.7950168,3
31769973322296,-0.31585258,9.111869,3.804588,3
31769975701150,-0.31106696,9.126225,3.8141594,3
31769978080004,-0.3062813,9.131011,3.818945,3
31769980458910,-0.27756742,9.135797,3.7950168,3
31769982837764,-0.2536392,9.140582,3.7950168,3
31769985216619,-0.21535404,9.116654,3.818945,3
31769987595473,-0.16271193,9.08794,3.8141594,3
31769989974327,-0.13878371,9.092726,3.8141594,3
31769992353233,-0.10049855,9.107083,3.8093736,3
31769994732087,-0.08135597,9.116654,3.8141594,3
31769997110941,-0.09092726,9.131011,3.7950168,3
31769999489796,-0.0526421,9.116654,3.7854455,3
31770001868702,-0.043070808,9.116654,3.804588,3
31770004247556,-0.0526421,9.131011,3.7950168,3
31770006626410,-0.05742774,9.12144,3.7806597,3
31770009005264,-0.06699903,9.102298,3.7854455,3
31770011384171,-0.10049855,9.097511,3.7950168,3
31770013763025,-0.12921242,9.097511,3.7806597,3
31770016141827,-0.14356937,9.102298,3.7663028,3
31770018520733,-0.16749759,9.111869,3.7710886,3
31770020899587,-0.19621146,9.097511,3.7950168,3
31770023278494,-0.2105684,9.083155,3.790231,3
31770025657348,-0.2632105,9.097511,3.7854455,3
31770028036150,-0.29671,9.102298,3.7806597,3
31770030415056,-0.30149564,9.097511,3.7950168,3
31770032793962,-0.32063824,9.08794,3.7950168,3
31770035172816,-0.33020952,9.083155,3.8141594,3
31770037551671,-0.32542387,9.102298,3.8333018,3
31770039930525,-0.29192436,9.097511,3.8333018,3
31770042309379,-0.25842485,9.08794,3.818945,3
31770044688285,-0.22492532,9.102298,3.8141594,3
31770047067139,-0.20578274,9.102298,3.8141594,3
31770049445994,-0.148355,9.111869,3.7806597,3
31770051824848,-0.11006984,9.097511,3.7950168,3
31770054203754,-0.08135597,9.111869,3.7950168,3
31770056582608,-0.033499517,9.116654,3.7758741,3
31770058961462,0.0,9.135797,3.7758741,3
31770061340316,0.023928227,9.12144,3.7710886,3
31770063719223,0.043070808,9.111869,3.790231,3
31770066098077,0.043070808,9.12144,3.7710886,3
31770068476931,0.009571291,9.126225,3.7998023,3
31770070855785,-0.0047856453,9.116654,3.818945,3
31770073234639,-0.047856454,9.097511,3.8093736,3
31770075613546,-0.07178468,9.111869,3.804588,3
31770077992400,-0.11006984,9.097511,3.7758741,3
31770080371254,-0.15314065,9.12144,3.7758741,3
31770082750108,-0.17706887,9.116654,3.7806597,3
31770085129014,-0.20578274,9.107083,3.804588,3
31770087507869,-0.2536392,9.12144,3.8093736,3
31770089886723,-0.2727818,9.08794,3.804588,3
31770092265577,-0.2727818,9.064013,3.7950168,3
31770094644431,-0.29671,9.08794,3.818945,3
31770097023337,-0.2727818,9.08794,3.7950168,3
31770099402191,-0.26799613,9.08794,3.7710886,3
31770101781046,-0.22492532,9.083155,3.790231,3
31770104159900,-0.15792629,9.097511,3.8141594,3
31770106538806,-0.13399807,9.107083,3.804588,3
31770108917660,-0.1052842,9.097511,3.818945,3
31770111296514,-0.09092726,9.111869,3.8141594,3
31770113675369,-0.062213387,9.131011,3.8141594,3
31770116054275,-0.047856454,9.111869,3.804588,3
31770118433129,-0.033499517,9.097511,3.804588,3
31770120811983,-0.0526421,9.116654,3.7950168,3
31770123190837,-0.05742774,9.12144,3.790231,3
31770125569691,-0.086141616,9.126225,3.7950168,3
31770127948598,-0.09571291,9.135797,3.790231,3
31770130327452,-0.1052842,9.116654,3.7758741,3
31770132706306,-0.11485548,9.131011,3.7710886,3
31770135085160,-0.148355,9.12144,3.7854455,3
31770137464014,-0.18185452,9.107083,3.8093736,3
31770139842921,-0.21535404,9.107083,3.804588,3
31770142221775,-0.22013968,9.126225,3.7998023,3
31770144600629,-0.25842485,9.116654,3.804588,3
31770146979483,-0.25842485,9.102298,3.7998023,3
31770149358389,-0.25842485,9.092726,3.8141594,3
31770151737244,-0.2536392,9.083155,3.8093736,3
31770154116098,-0.2440679,9.092726,3.8093736,3
31770156494952,-0.22971097,9.097511,3.790231,3
31770158873806,-0.2009971,9.092726,3.7998023,3
31770161252712,-0.18185452,9.08794,3.790231,3
31770163631566,-0.17228323,9.064013,3.7854455,3
31770166010421,-0.14356937,9.083155,3.7710886,3
31770168389275,-0.11485548,9.083155,3.7710886,3
31770170768181,-0.11485548,9.116654,3.7854455,3
31770173147035,-0.10049855,9.116654,3.7950168,3
31770175525889,-0.10049855,9.102298,3.7950168,3
31770177904744,-0.1052842,9.116654,3.8093736,3
31770180283598,-0.10049855,9.12144,3.8141594,3
31770182662504,-0.124426775,9.131011,3.7950168,3
31770185041358,-0.15314065,9.131011,3.7998023,3
31770187420212,-0.17706887,9.126225,3.804588,3
31770189799066,-0.16749759,9.126225,3.7950168,3
31770192177973,-0.2105684,9.150154,3.804588,3
31770194556827,-0.22492532,9.178867,3.790231,3
31770196935681,-0.23449662,9.174082,3.7950168,3
31770199314535,-0.2536392,9.159725,3.790231,3
31770201693441,-0.28713873,9.140582,3.7854455,3
31770204072296,-0.32542387,9.140582,3.818945,3
31770206451150,-0.31585258,9.135797,3.8093736,3
31770208830004,-0.30149564,9.111869,3.7998023,3
31770211208858,-0.28713873,9.111869,3.804588,3
31770213587764,-0.2632105,9.111869,3.7998023,3
31770215966619,-0.25842485,9.12144,3.8141594,3
31770218345473,-0.23928227,9.111869,3.8285162,3
31770220724327,-0.17706887,9.078369,3.8285162,3
31770223103181,-0.17706887,9.064013,3.8141594,3
31770225482087,-0.17706887,9.064013,3.8093736,3
31770227860941,-0.15314065,9.064013,3.790231,3
31770230239796,-0.148355,9.08794,3.7758741,3
31770232618650,-0.16271193,9.097511,3.7998023,3
31770234997556,-0.15314065,9.078369,3.7998023,3
31770237376410,-0.15792629,9.097511,3.790231,3
31770239755264,-0.16271193,9.102298,3.790231,3
31770242134119,-0.15314065,9.083155,3.7950168,3
31770244512973,-0.16271193,9.097511,3.7663028,3
31770246891879,-0.19142582,9.08794,3.7758741,3
31770249270733,-0.20578274,9.092726,3.7950168,3
31770251649587,-0.2105684,9.116654,3.7950168,3
31770254028441,-0.22013968,9.12144,3.790231,3
31770256407348,-0.23449662,9.159725,3.7854455,3
31770258786202,-0.23928227,9.135797,3.790231,3
31770261165056,-0.2440679,9.135797,3.7950168,3
31770263543910,-0.23928227,9.135797,3.790231,3
31770265922816,-0.25842485,9.135797,3.8093736,3
31770268301671,-0.28235307,9.131011,3.8093736,3
31770270680525,-0.2632105,9.135797,3.790231,3
31770273059379,-0.25842485,9.131011,3.7854455,3
31770275438233,-0.25842485,9.12144,3.7758741,3
31770277817139,-0.23928227,9.116654,3.7806597,3
31770280195994,-0.23928227,9.097511,3.7806597,3
31770282574848,-0.2009971,9.126225,3.7950168,3
31770284953702,-0.18664017,9.116654,3.8093736,3
31770287332608,-0.17228323,9.097511,3.7854455,3
31770289711462,-0.17706887,9.097511,3.7998023,3
31770292090316,-0.16749759,9.102298,3.8093736,3
31770294469171,-0.17706887,9.116654,3.790231,3
31770296848025,-0.18664017,9.102298,3.7806597,3
31770299226931,-0.2009971,9.097511,3.790231,3
31770301605785,-0.2105684,9.102298,3.804588,3
31770303984587,-0.2009971,9.08794,3.804588,3
31770306363494,-0.20578274,9.083155,3.790231,3
31770308742400,-0.23928227,9.08794,3.7854455,3
31770311121254,-0.2440679,9.107083,3.804588,3
31770313500108,-0.25842485,9.111869,3.818945,3
31770315878962,-0.25842485,9.111869,3.8333018,3
31770318257816,-0.25842485,9.102298,3.8333018,3
31770320636723,-0.2632105,9.092726,3.8380876,3
31770323015577,-0.26799613,9.102298,3.8093736,3
31770325394431,-0.26799613,9.097511,3.8093736,3
31770327773285,-0.26799613,9.092726,3.8093736,3
31770330152191,-0.2632105,9.111869,3.8141594,3
31770332531046,-0.2632105,9.097511,3.804588,3
31770334909848,-0.2536392,9.08794,3.8093736,3
31770337288754,-0.24885355,9.08794,3.7998023,3
31770339667608,-0.2440679,9.08794,3.7806597,3
31770342046514,-0.22971097,9.092726,3.7806597,3
31770344425369,-0.22492532,9.126225,3.7663028,3
31770346804223,-0.22971097,9.140582,3.7806597,3
31770349183077,-0.22492532,9.140582,3.804588,3
31770351561931,-0.2105684,9.135797,3.790231,3
31770353940837,-0.19142582,9.116654,3.7950168,3
31770356319691,-0.19142582,9.102298,3.790231,3
31770358698546,-0.19142582,9.102298,3.7710886,3
31770361077400,-0.20578274,9.111869,3.7806597,3
31770363456306,-0.20578274,9.107083,3.790231,3
31770365835160,-0.19142582,9.12144,3.7710886,3
31770368214014,-0.19621146,9.102298,3.7663028,3
31770370592869,-0.20578274,9.12144,3.7710886,3
31770372971775,-0.2105684,9.116654,3.7710886,3
31770375350629,-0.18664017,9.116654,3.7615173,3
31770377729483,-0.18185452,9.12144,3.7998023,3
31770380108337,-0.20578274,9.092726,3.804588,3
31770382487191,-0.22013968,9.097511,3.7950168,3
31770384866098,-0.23928227,9.116654,3.7950168,3
31770387244952,-0.2727818,9.092726,3.7758741,3
31770389623806,-0.30149564,9.111869,3.7567315,3
31770392002660,-0.3062813,9.111869,3.7806597,3
31770394381514,-0.32542387,9.116654,3.7758741,3
31770396760421,-0.3397808,9.102298,3.7806597,3
31770399139275,-0.36370903,9.102298,3.7854455,3
31770401518129,-0.37806597,9.097511,3.7950168,3
31770403896983,-0.3924229,9.097511,3.7854455,3
31770406275889,-0.37328035,9.126225,3.7710886,3
31770408654744,-0.37328035,9.126225,3.7758741,3
31770411033598,-0.3397808,9.150154,3.8093736,3
31770413412452,-0.34456646,9.145369,3.804588,3
31770415791358,-0.3397808,9.135797,3.8237305,3
31770418170212,-0.31585258,9.135797,3.818945,3
31770420549066,-0.28713873,9.131011,3.804588,3
31770422927921,-0.25842485,9.12144,3.790231,3
31770425306775,-0.24885355,9.12144,3.790231,3
31770427685681,-0.2440679,9.12144,3.804588,3
31770430064535,-0.22492532,9.111869,3.7950168,3
31770432443389,-0.20578274,9.102298,3.804588,3
31770434822244,-0.22013968,9.107083,3.790231,3
31770437201098,-0.21535404,9.102298,3.790231,3
31770439580004,-0.2009971,9.102298,3.7567315,3
31770441958858,-0.20578274,9.116654,3.751946,3
31770444337712,-0.2105684,9.12144,3.7471602,3
31770446716566,-0.21535404,9.107083,3.751946,3
31770449095473,-0.2105684,9.12144,3.790231,3
31770451474327,-0.23449662,9.111869,3.7806597,3
31770453853181,-0.22971097,9.097511,3.804588,3
31770456232035,-0.22971097,9.116654,3.7998023,3
31770458610941,-0.22492532,9.126225,3.7758741,3
31770460989796,-0.24885355,9.12144,3.7806597,3
31770463368650,-0.23928227,9.116654,3.7854455,3
31770465747504,-0.23928227,9.107083,3.7758741,3
31770468126358,-0.29192436,9.083155,3.7710886,3
31770470505264,-0.30149564,9.078369,3.7710886,3
31770472884119,-0.29192436,9.097511,3.7615173,3
31770475262973,-0.29671,9.107083,3.7710886,3
31770477641827,-0.29192436,9.107083,3.7854455,3
31770480020733,-0.25842485,9.107083,3.7806597,3
31770482399587,-0.2632105,9.092726,3.7806597,3
31770484778441,-0.26799613,9.111869,3.7471602,3
31770487157296,-0.2727818,9.126225,3.7567315,3
31770489536098,-0.26799613,9.116654,3.7710886,3
31770491915056,-0.28713873,9.116654,3.790231,3
31770494293910,-0.2727818,9.107083,3.7998023,3
31770496672764,-0.2727818,9.116654,3.804588,3
31770499051619,-0.26799613,9.131011,3.804588,3
31770501430525,-0.2536392,9.116654,3.818945,3
31770503809379,-0.2536392,9.111869,3.8237305,3
31770506188233,-0.2632105,9.131011,3.7998023,3
31770508567087,-0.28235307,9.126225,3.8093736,3
31770510945941,-0.24885355,9.140582,3.7950168,3
31770513324848,-0.23449662,9.140582,3.7950168,3
31770515703702,-0.22013968,9.111869,3.7806597,3
31770518082556,-0.21535404,9.102298,3.7854455,3
31770520461410,-0.2105684,9.102298,3.804588,3
31770522840316,-0.22492532,9.092726,3.7998023,3
31770525219171,-0.2009971,9.097511,3.7998023,3
31770527598025,-0.22013968,9.08794,3.8237305,3
31770529976879,-0.23449662,9.097511,3.8237305,3
31770532355733,-0.23928227,9.097511,3.8285162,3
31770534734639,-0.23449662,9.08794,3.8333018,3
31770537113494,-0.27756742,9.092726,3.790231,3
31770539492348,-0.28713873,9.08794,3.7806597,3
31770541871202,-0.30149564,9.116654,3.7710886,3
31770544250108,-0.32542387,9.107083,3.7567315,3
31770546628962,-0.3589234,9.097511,3.7615173,3
31770549007816,-0.38285163,9.102298,3.7710886,3
31770551386671,-0.37806597,9.111869,3.7758741,3
31770553765525,-0.38763726,9.126225,3.7710886,3
31770556144431,-0.39720857,9.131011,3.7663028,3
31770558523285,-0.41156548,9.140582,3.7663028,3
31770560902139,-0.40677986,9.145369,3.7710886,3
31770563280994,-0.39720857,9.107083,3.7758741,3
31770565659848,-0.4019942,9.116654,3.7854455,3
31770568038754,-0.36370903,9.107083,3.7806597,3
31770570417608,-0.3493521,9.111869,3.7854455,3
31770572796462,-0.33499518,9.131011,3.7806597,3
31770575175316,-0.28235307,9.135797,3.7758741,3
31770577554223,-0.24885355,9.145369,3.7854455,3
31770579933077,-0.22971097,9.126225,3.7710886,3
31770582311879,-0.18664017,9.102298,3.7663028,3
31770584690785,-0.16271193,9.102298,3.7950168,3
31770587069691,-0.13399807,9.097511,3.7950168,3
31770589448546,-0.148355,9.097511,3.8093736,3
31770591827400,-0.13878371,9.097511,3.818945,3
31770594206254,-0.14356937,9.111869,3.804588,3
31770596585160,-0.12921242,9.08794,3.7950168,3
31770598964014,-0.14356937,9.102298,3.8093736,3
31770601342869,-0.16749759,9.102298,3.7950168,3
31770603721723,-0.17228323,9.092726,3.804588,3
31770606100577,-0.2105684,9.097511,3.804588,3
31770608479483,-0.21535404,9.116654,3.8141594,3
31770610858337,-0.22971097,9.08794,3.8093736,3
31770613237191,-0.25842485,9.097511,3.7950168,3
31770615616046,-0.2440679,9.102298,3.8141594,3
31770617994952,-0.25842485,9.097511,3.790231,3
31770620373806,-0.26799613,9.102298,3.804588,3
31770622752660,-0.26799613,9.102298,3.804588,3
31770625131514,-0.28235307,9.111869,3.818945,3
31770627510369,-0.28713873,9.12144,3.8237305,3
31770629889275,-0.27756742,9.116654,3.8237305,3
31770632268129,-0.25842485,9.111869,3.804588,3
31770634646983,-0.2632105,9.107083,3.7998023,3
31770637025837,-0.2536392,9.107083,3.7854455,3
31770639404691,-0.25842485,9.131011,3.790231,3
31770641783598,-0.29192436,9.111869,3.7950168,3
31770644162452,-0.31106696,9.12144,3.790231,3
31770646541306,-0.32063824,9.111869,3.7806597,3
31770648920160,-0.3493521,9.126225,3.7758741,3
31770651299066,-0.36370903,9.140582,3.8093736,3
31770653677921,-0.3589234,9.135797,3.7950168,3
31770656056775,-0.38763726,9.12144,3.7950168,3
31770658435629,-0.3924229,9.12144,3.7998023,3
31770660814483,-0.35413775,9.12144,3.8237305,3
31770663193389,-0.34456646,9.097511,3.8333018,3
31770665572244,-0.33499518,9.078369,3.8141594,3
31770667951098,-0.3397808,9.107083,3.818945,3
31770670329952,-0.31106696,9.107083,3.8333018,3
31770672708806,-0.2632105,9.111869,3.8093736,3
31770675087712,-0.21535404,9.092726,3.7950168,3
31770677466566,-0.2105684,9.08794,3.7950168,3
31770679845421,-0.17706887,9.08794,3.790231,3
31770682224275,-0.14356937,9.08794,3.8093736,3
31770684603181,-0.148355,9.107083,3.7998023,3
31770686982035,-0.15792629,9.111869,3.7806597,3
31770689360889,-0.13878371,9.102298,3.7806597,3
31770691739744,-0.16749759,9.102298,3.7710886,3
31770694118650,-0.17228323,9.116654,3.7758741,3
31770696497504,-0.19621146,9.116654,3.790231,3
31770698876358,-0.22013968,9.131011,3.7950168,3
31770701255212,-0.2440679,9.135797,3.790231,3
31770703634066,-0.2536392,9.159725,3.7758741,3
31770706012973,-0.28235307,9.140582,3.790231,3
31770708391827,-0.28235307,9.140582,3.7758741,3
31770710770681,-0.32542387,9.131011,3.7758741,3
31770713149535,-0.33499518,9.131011,3.7950168,3
31770715528389,-0.33020952,9.131011,3.818945,3
31770717907296,-0.3493521,9.102298,3.8093736,3
31770720286150,-0.3589234,9.107083,3.7998023,3
31770722665004,-0.3397808,9.126225,3.7758741,3
31770725043858,-0.3062813,9.111869,3.7567315,3
31770727422764,-0.2727818,9.107083,3.7567315,3
31770729801619,-0.2727818,9.111869,3.7471602,3
31770732180473,-0.2440679,9.126225,3.7663028,3
31770734559327,-0.2440679,9.135797,3.7950168,3
31770736938233,-0.2536392,9.111869,3.7998023,3
31770739317087,-0.22971097,9.111869,3.790231,3
31770741695941,-0.23449662,9.102298,3.7950168,3
31770744074796,-0.26799613,9.107083,3.8093736,3
31770746453650,-0.2632105,9.097511,3.7998023,3
31770748832556,-0.26799613,9.12144,3.7950168,3
31770751211410,-0.2727818,9.107083,3.7998023,3
31770753590264,-0.2632105,9.107083,3.818945,3
31770755969119,-0.26799613,9.097511,3.842873,3
31770758348025,-0.28235307,9.102298,3.8524444,3
31770760726879,-0.28235307,9.083155,3.8572302,3
31770763105733,-0.2536392,9.092726,3.8524444,3
31770765484587,-0.23449662,9.092726,3.8285162,3
31770767863441,-0.2440679,9.107083,3.8141594,3
31770770242348,-0.21535404,9.107083,3.8237305,3
31770772621202,-0.19142582,9.107083,3.818945,3
31770775000056,-0.18185452,9.078369,3.818945,3
31770777378910,-0.18185452,9.083155,3.8285162,3
31770779757816,-0.18185452,9.073584,3.8093736,3
31770782136671,-0.17228323,9.102298,3.7806597,3
31770784515525,-0.148355,9.092726,3.790231,3
31770786894379,-0.11485548,9.097511,3.7854455,3
31770789273233,-0.12921242,9.111869,3.790231,3
31770791652139,-0.15314065,9.111869,3.7950168,3
31770794030994,-0.15792629,9.111869,3.790231,3
31770796409848,-0.15314065,9.102298,3.7854455,3
31770798788702,-0.18664017,9.12144,3.7663028,3
31770801167608,-0.22013968,9.131011,3.7710886,3
31770803546462,-0.25842485,9.140582,3.7950168,3
31770805925316,-0.27756742,9.116654,3.804588,3
31770808304171,-0.29671,9.12144,3.818945,3
31770810683025,-0.31106696,9.111869,3.7950168,3
31770813061931,-0.31106696,9.135797,3.7567315,3
31770815440785,-0.33020952,9.131011,3.7758741,3
31770817819639,-0.33499518,9.116654,3.7950168,3
31770820198494,-0.32063824,9.097511,3.804588,3
31770822577400,-0.29671,9.102298,3.8093736,3
31770824956254,-0.29192436,9.102298,3.7950168,3
31770827335108,-0.25842485,9.111869,3.7615173,3
31770829713962,-0.23928227,9.102298,3.7710886,3
31770832092816,-0.19142582,9.097511,3.7758741,3
31770834471723,-0.16749759,9.102298,3.7710886,3
31770836850577,-0.16749759,9.111869,3.7854455,3
31770839229431,-0.15792629,9.111869,3.7758741,3
31770841608285,-0.15792629,9.12144,3.7615173,3
31770843987191,-0.148355,9.102298,3.751946,3
31770846366046,-0.18185452,9.116654,3.7471602,3
31770848744900,-0.21535404,9.135797,3.7615173,3
31770851123754,-0.20578274,9.126225,3.7854455,3
31770853502660,-0.2440679,9.126225,3.7854455,3
31770855881514,-0.28235307,9.126225,3.7663028,3
31770858260369,-0.32542387,9.126225,3.751946,3
31770860639223,-0.33499518,9.150154,3.7663028,3
31770863018077,-0.3684947,9.145369,3.7806597,3
31770865396983,-0.37328035,9.145369,3.790231,3
31770867775837,-0.3924229,9.140582,3.804588,3
31770870154691,-0.41635114,9.12144,3.8141594,3
31770872533546,-0.39720857,9.12144,3.842873,3
31770874912400,-0.37328035,9.131011,3.8333018,3
31770877291306,-0.36370903,9.140582,3.8237305,3
31770879670160,-0.31585258,9.135797,3.818945,3
31770882049014,-0.2727818,9.116654,3.8237305,3
31770884427869,-0.23928227,9.08794,3.8333018,3
31770886806775,-0.2105684,9.083155,3.8380876,3
31770889185629,-0.15314065,9.08794,3.818945,3
31770891564431,-0.11006984,9.116654,3.790231,3
31770893943337,-0.08135597,9.140582,3.7806597,3
31770896322191,-0.05742774,9.131011,3.7758741,3
31770898701098,-0.086141616,9.12144,3.7854455,3
31770901079952,-0.07178468,9.12144,3.7854455,3
31770903458806,-0.07178468,9.111869,3.7806597,3
31770905837660,-0.09571291,9.12144,3.7854455,3
31770908216566,-0.13399807,9.111869,3.7663028,3
31770910595421,-0.18185452,9.12144,3.7615173,3
31770912974275,-0.23449662,9.107083,3.7471602,3
31770915353129,-0.27756742,9.116654,3.7471602,3
31770917731983,-0.33499518,9.111869,3.7328033,3
31770920110889,-0.3589234,9.097511,3.7328033,3
31770922489744,-0.4019942,9.107083,3.7280176,3
31770924868598,-0.42592242,9.12144,3.7471602,3
31770927247452,-0.3924229,9.131011,3.7423747,3
31770929626306,-0.3924229,9.145369,3.7423747,3
31770932005212,-0.37328035,9.150154,3.7663028,3
31770934384066,-0.3589234,9.159725,3.7710886,3
31770936762921,-0.32542387,9.145369,3.7710886,3
31770939141775,-0.28713873,9.150154,3.7663028,3
31770941520681,-0.2440679,9.126225,3.751946,3
31770943899535,-0.22971097,9.140582,3.7663028,3
31770946278389,-0.19142582,9.131011,3.7663028,3
31770948657244,-0.13878371,9.111869,3.7758741,3
31770951036150,-0.11485548,9.102298,3.7998023,3
31770953415004,-0.11006984,9.111869,3.804588,3
31770955793858,-0.09571291,9.107083,3.818945,3
31770958172712,-0.08135597,9.08794,3.8093736,3
31770960551566,-0.06699903,9.08794,3.804588,3
31770962930473,-0.08135597,9.073584,3.8093736,3
31770965309327,-0.1052842,9.08794,3.8093736,3
31770967688181,-0.11964113,9.102298,3.818945,3
31770970067035,-0.17228323,9.116654,3.8476589,3
31770972445941,-0.2009971,9.131011,3.8380876,3
31770974824796,-0.21535404,9.126225,3.8093736,3
31770977203650,-0.2632105,9.12144,3.790231,3
31770979582504,-0.2632105,9.126225,3.790231,3
31770981961358,-0.28235307,9.111869,3.8141594,3
31770984340264,-0.29671,9.083155,3.8093736,3
31770986719119,-0.31585258,9.097511,3.804588,3
31770989097973,-0.29671,9.135797,3.7710886,3
31770991476827,-0.29192436,9.150154,3.751946,3
31770993855681,-0.27756742,9.145369,3.737589,3
31770996234587,-0.28235307,9.145369,3.7615173,3
31770998613441,-0.26799613,9.12144,3.804588,3
31771000992296,-0.24885355,9.126225,3.8237305,3
31771003371150,-0.21535404,9.107083,3.8333018,3
31771005750056,-0.22013968,9.12144,3.7854455,3
31771008128910,-0.19142582,9.116654,3.7710886,3
31771010507764,-0.18185452,9.107083,3.7806597,3
31771012886619,-0.17228323,9.102298,3.7806597,3
31771015265525,-0.15792629,9.097511,3.7758741,3
31771017644327,-0.16749759,9.107083,3.8141594,3
31771020023233,-0.17228323,9.08794,3.8141594,3
31771022402087,-0.17706887,9.073584,3.7806597,3
31771024780994,-0.17706887,9.111869,3.7567315,3
31771027159848,-0.2009971,9.116654,3.751946,3
31771029538702,-0.24885355,9.102298,3.7758741,3
31771031917556,-0.2632105,9.102298,3.8141594,3
31771034296410,-0.26799613,9.08794,3.8285162,3
31771036675316,-0.31585258,9.107083,3.8333018,3
31771039054171,-0.30149564,9.092726,3.7950168,3
31771041433025,-0.28713873,9.092726,3.7998023,3
31771043811879,-0.28235307,9.111869,3.7806597,3
31771046190681,-0.2727818,9.102298,3.7758741,3
31771048569639,-0.25842485,9.102298,3.7854455,3
31771050948494,-0.2440679,9.08794,3.818945,3
31771053327348,-0.22492532,9.08794,3.8237305,3
31771055706202,-0.22013968,9.08794,3.7950168,3
31771058085108,-0.19621146,9.078369,3.7758741,3
31771060463962,-0.20578274,9.078369,3.7806597,3
31771062842816,-0.21535404,9.08794,3.7998023,3
31771065221671,-0.20578274,9.092726,3.8093736,3
31771067600525,-0.22492532,9.083155,3.818945,3
31771069979431,-0.22492532,9.073584,3.818945,3
31771072358285,-0.2440679,9.068798,3.7998023,3
31771074737139,-0.26799613,9.083155,3.7854455,3
31771077115994,-0.2727818,9.083155,3.790231,3
31771079494900,-0.29192436,9.08794,3.790231,3
31771081873754,-0.32063824,9.102298,3.8093736,3
31771084252608,-0.34456646,9.092726,3.8237305,3
31771086631462,-0.36370903,9.078369,3.8333018,3
31771089010316,-0.3589234,9.078369,3.8333018,3
31771091389223,-0.33499518,9.097511,3.8141594,3
31771093768077,-0.31585258,9.08794,3.818945,3
31771096146931,-0.30149564,9.116654,3.818945,3
31771098525785,-0.26799613,9.083155,3.8285162,3
31771100904691,-0.2536392,9.102298,3.818945,3
31771103283546,-0.22971097,9.116654,3.8380876,3
31771105662400,-0.19142582,9.107083,3.8237305,3
31771108041254,-0.15314065,9.116654,3.8333018,3
31771110420108,-0.13399807,9.111869,3.7998023,3
31771112799014,-0.11485548,9.12144,3.7950168,3
31771115177869,-0.11964113,9.116654,3.7998023,3
31771117556723,-0.11006984,9.102298,3.804588,3
31771119935577,-0.124426775,9.126225,3.7854455,3
31771122314431,-0.14356937,9.107083,3.790231,3
31771124693337,-0.16749759,9.107083,3.790231,3
31771127072191,-0.17706887,9.116654,3.7854455,3
31771129451046,-0.18185452,9.08794,3.7710886,3
31771131829900,-0.24885355,9.097511,3.7806597,3
31771134208806,-0.28235307,9.111869,3.7758741,3
31771136587660,-0.31106696,9.102298,3.7854455,3
31771138966514,-0.33020952,9.12144,3.7567315,3
31771141345369,-0.35413775,9.140582,3.7758741,3
31771143724223,-0.35413775,9.131011,3.7806597,3
31771146103129,-0.35413775,9.111869,3.7854455,3
31771148481983,-0.34456646,9.107083,3.7998023,3
31771150860837,-0.34456646,9.126225,3.7998023,3
31771153239691,-0.32542387,9.126225,3.8141594,3
31771155618598,-0.3062813,9.131011,3.818945,3
31771157997452,-0.26799613,9.131011,3.804588,3
31771160376306,-0.2440679,9.131011,3.7950168,3
31771162755108,-0.2105684,9.111869,3.7758741,3
31771165134014,-0.19621146,9.111869,3.7950168,3
31771167512921,-0.19621146,9.116654,3.790231,3
31771169891775,-0.17706887,9.092726,3.7950168,3
31771172270629,-0.16271193,9.107083,3.7950168,3
31771174649483,-0.17228323,9.111869,3.790231,3
31771177028337,-0.18664017,9.107083,3.7998023,3
31771179407244,-0.2009971,9.08794,3.790231,3
31771181786098,-0.18664017,9.083155,3.8141594,3
31771184164952,-0.19142582,9.078369,3.790231,3
31771186543858,-0.2105684,9.08794,3.7950168,3
31771188922712,-0.23928227,9.107083,3.790231,3
31771191301566,-0.25842485,9.116654,3.7854455,3
31771193680421,-0.28713873,9.107083,3.7710886,3
31771196059275,-0.26799613,9.111869,3.7710886,3
31771198438181,-0.2632105,9.12144,3.7806597,3
31771200817035,-0.28713873,9.111869,3.7806597,3
31771203195889,-0.30149564,9.102298,3.7854455,3
31771205574744,-0.3062813,9.116654,3.790231,3
31771207953650,-0.3062813,9.145369,3.7998023,3
31771210332504,-0.28235307,9.135797,3.7950168,3
31771212711358,-0.24885355,9.145369,3.7950168,3
31771215090212,-0.22013968,9.131011,3.804588,3
31771217469066,-0.22013968,9.126225,3.8141594,3
31771219847973,-0.21535404,9.131011,3.7998023,3
31771222226827,-0.2009971,9.131011,3.804588,3
31771224605681,-0.2009971,9.131011,3.7806597,3
31771226984535,-0.18185452,9.116654,3.7758741,3
31771229363441,-0.14356937,9.107083,3.7998023,3
31771231742296,-0.19142582,9.102298,3.804588,3
31771234121150,-0.18664017,9.116654,3.818945,3
31771236500004,-0.18664017,9.107083,3.8141594,3
31771238878858,-0.18185452,9.102298,3.818945,3
31771241257764,-0.19621146,9.092726,3.8141594,3
31771243636619,-0.18664017,9.107083,3.818945,3
31771246015473,-0.18185452,9.092726,3.8237305,3
31771248394327,-0.20578274,9.097511,3.8093736,3
31771250773233,-0.2009971,9.092726,3.8141594,3
31771253152087,-0.19142582,9.078369,3.8237305,3
31771255530941,-0.19142582,9.102298,3.8141594,3
31771257909796,-0.18664017,9.102298,3.7854455,3
31771260288650,-0.19621146,9.116654,3.790231,3
31771262667556,-0.19621146,9.102298,3.790231,3
31771265046410,-0.19142582,9.116654,3.7758741,3
31771267425264,-0.19621146,9.107083,3.7806597,3
31771269804119,-0.18185452,9.126225,3.790231,3
31771272183025,-0.19142582,9.126225,3.790231,3
31771274561879,-0.18664017,9.107083,3.790231,3
31771276940733,-0.22013968,9.107083,3.7567315,3
31771279319587,-0.22971097,9.107083,3.751946,3
31771281698441,-0.26799613,9.126225,3.751946,3
31771284077348,-0.27756742,9.131011,3.7663028,3
31771286456202,-0.27756742,9.140582,3.7567315,3
31771288835056,-0.3062813,9.145369,3.7663028,3
31771291213910,-0.3397808,9.164511,3.7710886,3
31771293592816,-0.35413775,9.15494,3.7615173,3
31771295971671,-0.35413775,9.131011,3.7663028,3
31771298350525,-0.3397808,9.12144,3.7710886,3
31771300729379,-0.32063824,9.111869,3.7854455,3
31771303108233,-0.32542387,9.12144,3.7854455,3
31771305487139,-0.30149564,9.12144,3.790231,3
31771307865994,-0.2727818,9.126225,3.790231,3
31771310244535,-0.2727818,9.111869,3.790231,3
31771312623702,-0.2536392,9.102298,3.7854455,3
31771315002608,-0.22013968,9.08794,3.7615173,3
31771317381462,-0.19621146,9.083155,3.7758741,3
31771319760316,-0.19142582,9.097511,3.7758741,3
31771322139171,-0.15792629,9.083155,3.790231,3
31771324518025,-0.15314065,9.102298,3.7998023,3
31771326896931,-0.14356937,9.097511,3.7710886,3
31771329275785,-0.16271193,9.097511,3.7663028,3
31771331654639,-0.16749759,9.116654,3.7854455,3
31771334033494,-0.17706887,9.116654,3.7950168,3
31771336412348,-0.23928227,9.116654,3.7950168,3
31771338791202,-0.27756742,9.140582,3.8093736,3
31771341170108,-0.24885355,9.131011,3.804588,3
31771343548910,-0.27756742,9.107083,3.8285162,3
31771345927816,-0.30149564,9.12144,3.8141594,3
31771348306723,-0.32542387,9.107083,3.790231,3
31771350685577,-0.31106696,9.102298,3.8093736,3
31771353064431,-0.33020952,9.116654,3.818945,3
31771355443285,-0.32063824,9.097511,3.804588,3
31771357822191,-0.32542387,9.08794,3.7998023,3
31771360201046,-0.31585258,9.102298,3.804588,3
31771362579900,-0.31585258,9.083155,3.790231,3
31771364958754,-0.29671,9.097511,3.7950168,3
31771367337608,-0.29671,9.078369,3.7758741,3
31771369716514,-0.25842485,9.059227,3.7615173,3
31771372095369,-0.2632105,9.064013,3.7615173,3
31771374474223,-0.25842485,9.073584,3.7710886,3
31771376853077,-0.22013968,9.107083,3.7758741,3
31771379231983,-0.2536392,9.097511,3.7615173,3
31771381610837,-0.24885355,9.102298,3.7615173,3
31771383989691,-0.24885355,9.126225,3.7663028,3
31771386368546,-0.27756742,9.126225,3.7471602,3
31771388747400,-0.30149564,9.131011,3.7663028,3
31771391126306,-0.29671,9.126225,3.7758741,3
31771393505160,-0.33499518,9.116654,3.7950168,3
31771395884014,-0.3397808,9.111869,3.7710886,3
31771398262869,-0.33020952,9.116654,3.804588,3
31771400641775,-0.34456646,9.140582,3.8093736,3
31771403020629,-0.3493521,9.126225,3.790231,3
31771405399483,-0.34456646,9.126225,3.8093736,3
31771407778337,-0.3397808,9.135797,3.804588,3
31771410157191,-0.32542387,9.131011,3.8237305,3
31771412536098,-0.30149564,9.092726,3.8093736,3
31771414914952,-0.28235307,9.08794,3.804588,3
31771417293806,-0.25842485,9.08794,3.7806597,3
31771419672660,-0.22013968,9.08794,3.7758741,3
31771422051514,-0.18185452,9.102298,3.790231,3
31771424430421,-0.16749759,9.097511,3.7806597,3
31771426809275,-0.13878371,9.08794,3.7806597,3
31771429188129,-0.124426775,9.092726,3.7806597,3
31771431567035,-0.10049855,9.097511,3.7758741,3
31771433945889,-0.076570325,9.107083,3.7806597,3
31771436324744,-0.062213387,9.097511,3.7663028,3
31771438703598,-0.076570325,9.097511,3.7710886,3
31771441082452,-0.11006984,9.102298,3.7806597,3
31771443461358,-0.11006984,9.116654,3.7663028,3
31771445840212,-0.14356937,9.126225,3.7710886,3
31771448219066,-0.18664017,9.126225,3.7854455,3
31771450597921,-0.23449662,9.12144,3.7806597,3
31771452976827,-0.2727818,9.126225,3.7615173,3
31771455355681,-0.27756742,9.126225,3.7806597,3
31771457734535,-0.32063824,9.126225,3.7806597,3
31771460113389,-0.36370903,9.102298,3.7758741,3
31771462492244,-0.38763726,9.107083,3.7615173,3
31771464871150,-0.38763726,9.126225,3.7663028,3
31771467250004,-0.3924229,9.111869,3.790231,3
31771469628858,-0.41156548,9.140582,3.7950168,3
31771472007712,-0.42592242,9.116654,3.7998023,3
31771474386566,-0.4019942,9.116654,3.818945,3
31771476765473,-0.38763726,9.102298,3.804588,3
31771479144327,-0.35413775,9.092726,3.8141594,3
31771481523181,-0.32542387,9.083155,3.7950168,3
31771483902035,-0.3397808,9.097511,3.8093736,3
31771486280941,-0.30149564,9.111869,3.7998023,3
31771488659796,-0.27756742,9.097511,3.790231,3
31771491038598,-0.2440679,9.097511,3.804588,3
31771493417504,-0.22492532,9.111869,3.804588,3
31771495796358,-0.23449662,9.107083,3.804588,3
31771498175264,-0.22492532,9.116654,3.7854455,3
31771500554119,-0.2105684,9.107083,3.790231,3
31771502932973,-0.2105684,9.111869,3.7998023,3
31771505311827,-0.22492532,9.092726,3.8093736,3
31771507690681,-0.2009971,9.097511,3.7998023,3
31771510069587,-0.2009971,9.102298,3.8093736,3
31771512448441,-0.22013968,9.107083,3.7998023,3
31771514827296,-0.23449662,9.097511,3.7854455,3
31771517206150,-0.23449662,9.08794,3.7710886,3
31771519585056,-0.2440679,9.111869,3.7950168,3
31771521963910,-0.25842485,9.145369,3.7998023,3
31771524342764,-0.25842485,9.135797,3.790231,3
31771526721619,-0.26799613,9.116654,3.7998023,3
31771529100525,-0.23928227,9.116654,3.7998023,3
31771531479379,-0.21535404,9.12144,3.8093736,3
31771533858233,-0.19142582,9.135797,3.8093736,3
31771536237087,-0.20578274,9.097511,3.804588,3
31771538615941,-0.18185452,9.097511,3.7998023,3
31771540994848,-0.17228323,9.111869,3.804588,3
31771543373702,-0.16271193,9.102298,3.7998023,3
31771545752556,-0.15792629,9.08794,3.7806597,3
31771548131410,-0.15792629,9.078369,3.790231,3
31771550510264,-0.14356937,9.083155,3.790231,3
31771552889171,-0.14356937,9.097511,3.7758741,3
31771555268025,-0.11485548,9.092726,3.7806597,3
31771557646879,-0.11006984,9.097511,3.7710886,3
31771560025733,-0.11964113,9.107083,3.7710886,3
31771562404639,-0.14356937,9.107083,3.751946,3
31771564783494,-0.13399807,9.111869,3.7806597,3
31771567162348,-0.14356937,9.107083,3.7998023,3
31771569541202,-0.17228323,9.097511,3.7854455,3
31771571920108,-0.20578274,9.097511,3.7758741,3
31771574298962,-0.20578274,9.08794,3.7710886,3
31771576677816,-0.22013968,9.102298,3.7758741,3
31771579056671,-0.26799613,9.111869,3.7710886,3
31771581435525,-0.2727818,9.111869,3.7758741,3
31771583814431,-0.24885355,9.12144,3.7758741,3
31771586193285,-0.27756742,9.097511,3.7615173,3
31771588572139,-0.28713873,9.107083,3.7663028,3
31771590950994,-0.28235307,9.102298,3.7663028,3
31771593329900,-0.28713873,9.097511,3.7758741,3
31771595708754,-0.29192436,9.111869,3.7663028,3
31771598087556,-0.26799613,9.131011,3.7758741,3
31771600466462,-0.2632105,9.111869,3.804588,3
31771602845316,-0.2727818,9.116654,3.7998023,3
31771605224223,-0.2727818,9.102298,3.818945,3
31771607603077,-0.2632105,9.102298,3.8237305,3
31771609981931,-0.25842485,9.107083,3.8285162,3
31771612360785,-0.26799613,9.107083,3.818945,3
31771614739639,-0.27756742,9.102298,3.842873,3
31771617118546,-0.2727818,9.111869,3.8380876,3
31771619497400,-0.24885355,9.107083,3.8285162,3
31771621876254,-0.21535404,9.12144,3.8237305,3
31771624255108,-0.21535404,9.126225,3.8093736,3
31771626634014,-0.2105684,9.12144,3.8141594,3
31771629012869,-0.21535404,9.12144,3.8380876,3
31771631391723,-0.21535404,9.126225,3.8476589,3
31771633770577,-0.19621146,9.111869,3.8333018,3
31771636149483,-0.19142582,9.083155,3.8476589,3
31771638528337,-0.17228323,9.083155,3.8380876,3
31771640907191,-0.148355,9.083155,3.804588,3
31771643286046,-0.14356937,9.102298,3.8093736,3
31771645664900,-0.14356937,9.083155,3.7950168,3
31771648043806,-0.13878371,9.092726,3.7710886,3
31771650422660,-0.14356937,9.092726,3.7806597,3
31771652801514,-0.13399807,9.097511,3.7663028,3
31771655180369,-0.15314065,9.083155,3.7806597,3
31771657559275,-0.18664017,9.102298,3.7950168,3
31771659938129,-0.22013968,9.092726,3.7806597,3
31771662316983,-0.22013968,9.092726,3.7663028,3
31771664695837,-0.22971097,9.08794,3.7663028,3
31771667074691,-0.2440679,9.107083,3.7758741,3
31771669453598,-0.26799613,9.12144,3.7710886,3
31771671832452,-0.3062813,9.135797,3.7710886,3
31771674211306,-0.27756742,9.135797,3.7567315,3
31771676590160,-0.28713873,9.126225,3.7423747,3
31771678969066,-0.28713873,9.12144,3.723232,3
31771681347869,-0.27756742,9.116654,3.7471602,3
31771683726775,-0.28235307,9.12144,3.7615173,3
31771686105629,-0.2440679,9.140582,3.751946,3
31771688484535,-0.23928227,9.135797,3.7663028,3
31771690863389,-0.2009971,9.150154,3.7471602,3
31771693242244,-0.2105684,9.126225,3.751946,3
31771695621098,-0.2105684,9.131011,3.7806597,3
31771697999952,-0.21535404,9.135797,3.7806597,3
31771700378858,-0.2009971,9.102298,3.7758741,3
31771702757712,-0.19142582,9.107083,3.7758741,3
31771705136566,-0.19621146,9.111869,3.7663028,3
31771707515421,-0.21535404,9.092726,3.7663028,3
31771709894327,-0.23449662,9.111869,3.7806597,3
31771712273181,-0.2536392,9.126225,3.7854455,3
31771714652035,-0.25842485,9.111869,3.8093736,3
31771717030889,-0.27756742,9.092726,3.818945,3
31771719409744,-0.28235307,9.08794,3.8333018,3
31771721788650,-0.3062813,9.126225,3.8572302,3
31771724167504,-0.29192436,9.116654,3.871587,3
31771726546358,-0.31106696,9.102298,3.871587,3
31771728925212,-0.2727818,9.126225,3.8524444,3
31771731304066,-0.27756742,9.102298,3.8476589,3
31771733682973,-0.26799613,9.097511,3.818945,3
31771736061827,-0.2536392,9.08794,3.842873,3
31771738440681,-0.2105684,9.102298,3.8668015,3
31771740819535,-0.22492532,9.107083,3.8668015,3
31771743198441,-0.2105684,9.12144,3.8620157,3
31771745577296,-0.16271193,9.131011,3.8333018,3
31771747956150,-0.16749759,9.140582,3.804588,3
31771750335004,-0.13878371,9.131011,3.7950168,3
31771752713858,-0.15314065,9.126225,3.7950168,3
31771755092764,-0.15314065,9.116654,3.7854455,3
31771757471619,-0.16749759,9.111869,3.7998023,3
31771759850473,-0.19142582,9.116654,3.8237305,3
31771762229327,-0.18664017,9.131011,3.818945,3
31771764608233,-0.20578274,9.131011,3.790231,3
31771766987087,-0.22492532,9.135797,3.7615173,3
31771769365941,-0.2440679,9.131011,3.7710886,3
31771771744796,-0.25842485,9.131011,3.7663028,3
31771774123650,-0.2440679,9.140582,3.7950168,3
31771776502556,-0.26799613,9.135797,3.804588,3
31771778881410,-0.2632105,9.15494,3.790231,3
31771781260264,-0.2632105,9.12144,3.7615173,3
31771783639119,-0.24885355,9.107083,3.751946,3
31771786018025,-0.2440679,9.135797,3.737589,3
31771788396879,-0.22013968,9.135797,3.751946,3
31771790775733,-0.19621146,9.131011,3.7663028,3
31771793154587,-0.17228323,9.097511,3.7567315,3
31771795533494,-0.19142582,9.102298,3.7615173,3
31771797912348,-0.19621146,9.107083,3.7663028,3
31771800291202,-0.18185452,9.126225,3.751946,3
31771802670056,-0.19142582,9.097511,3.7423747,3
31771805048910,-0.20578274,9.102298,3.7758741,3
31771807427816,-0.22013968,9.111869,3.7758741,3
31771809806671,-0.22492532,9.12144,3.7663028,3
31771812185525,-0.2105684,9.12144,3.7567315,3
31771814564379,-0.23928227,9.097511,3.7567315,3
31771816943285,-0.2536392,9.097511,3.7615173,3
31771819322139,-0.2727818,9.116654,3.7471602,3
31771821700994,-0.27756742,9.116654,3.7758741,3
31771824079848,-0.28235307,9.131011,3.7950168,3
31771826458754,-0.25842485,9.12144,3.7950168,3
31771828837556,-0.26799613,9.131011,3.7758741,3
31771831216462,-0.25842485,9.126225,3.790231,3
31771833595316,-0.24885355,9.126225,3.8141594,3
31771835974171,-0.22013968,9.126225,3.7998023,3
31771838353077,-0.2009971,9.126225,3.790231,3
31771840731931,-0.17706887,9.131011,3.7950168,3
31771843110785,-0.16749759,9.111869,3.8093736,3
31771845489639,-0.12921242,9.116654,3.8141594,3
31771847868546,-0.124426775,9.083155,3.7998023,3
31771850247400,-0.11964113,9.102298,3.818945,3
31771852626254,-0.148355,9.107083,3.8285162,3
31771855005108,-0.18185452,9.107083,3.8237305,3
31771857383962,-0.19142582,9.073584,3.804588,3
31771859762869,-0.2105684,9.073584,3.804588,3
31771862141723,-0.22971097,9.068798,3.818945,3
31771864520577,-0.24885355,9.078369,3.8285162,3
31771866899431,-0.27756742,9.068798,3.8285162,3
31771869278285,-0.3062813,9.078369,3.8093736,3
31771871657191,-0.3062813,9.116654,3.8093736,3
31771874036046,-0.31106696,9.116654,3.7854455,3
31771876414900,-0.31106696,9.116654,3.7758741,3
31771878793754,-0.31106696,9.116654,3.7806597,3
31771881172660,-0.28235307,9.107083,3.8093736,3
31771883551514,-0.26799613,9.102298,3.8333018,3
31771885930369,-0.2440679,9.116654,3.842873,3
31771888309223,-0.2105684,9.126225,3.818945,3
31771890688077,-0.16271193,9.12144,3.7854455,3
31771893066983,-0.13399807,9.073584,3.7663028,3
31771895445837,-0.11006984,9.078369,3.790231,3
31771897824691,-0.10049855,9.092726,3.8093736,3
31771900203546,-0.1052842,9.131011,3.8285162,3
31771902582452,-0.13399807,9.035298,3.7184465,3
31771904961306,-0.15792629,8.997013,3.694518,3
31771907340160,-0.15314065,9.049655,3.6849468,3
31771909719014,-0.24885355,9.083155,3.7088752,3
31771912097869,-0.26799613,9.040084,3.7471602,3
31771914476775,-0.32063824,9.097511,3.7998023,3
31771916855629,-0.39720857,9.15494,3.7567315,3
31771919234483,-0.47856453,9.150154,3.7567315,3
31771921613389,-0.45942193,9.111869,3.737589,3
31771923992244,-0.526421,9.135797,3.751946,3
31771926371098,-0.5407779,9.150154,3.7710886,3
31771928749952,-0.5407779,9.140582,3.8476589,3
31771931128806,-0.5312066,9.159725,3.8572302,3
31771933507712,-0.4833502,9.145369,3.8620157,3
31771935886566,-0.44027936,9.078369,3.8524444,3
31771938265421,-0.3684947,9.107083,3.8380876,3
31771940644275,-0.29192436,9.116654,3.7950168,3
31771943023129,-0.21535404,9.078369,3.8093736,3
31771945402035,-0.124426775,9.083155,3.8285162,3
31771947780889,-0.086141616,9.102298,3.818945,3
31771950159744,-0.02871387,9.078369,3.818945,3
31771952538598,-0.0047856453,9.08794,3.842873,3
31771954917504,0.014356935,9.107083,3.8141594,3
31771957296358,0.02871387,9.097511,3.7998023,3
31771959675212,0.023928227,9.078369,3.7998023,3
31771962054066,-0.019142581,9.068798,3.7998023,3
31771964432921,-0.047856454,9.092726,3.8237305,3
31771966811827,-0.10049855,9.097511,3.818945,3
31771969190681,-0.17228323,9.083155,3.8285162,3
31771971569535,-0.23449662,9.083155,3.8237305,3
31771973948389,-0.28713873,9.102298,3.804588,3
31771976327244,-0.3493521,9.08794,3.7950168,3
31771978706150,-0.40677986,9.097511,3.7854455,3
31771981084952,-0.44506502,9.111869,3.7806597,3
31771983463858,-0.47856453,9.097511,3.804588,3
31771985842712,-0.49292147,9.102298,3.804588,3
31771988221619,-0.4977071,9.102298,3.8093736,3
31771990600473,-0.5072784,9.126225,3.7998023,3
31771992979327,-0.4642076,9.126225,3.7998023,3
31771995358181,-0.44506502,9.135797,3.7998023,3
31771997737087,-0.41156548,9.140582,3.804588,3
31772000115941,-0.3589234,9.126225,3.8093736,3
31772002494796,-0.29671,9.111869,3.804588,3
31772004873650,-0.24885355,9.12144,3.8093736,3
31772007252504,-0.23928227,9.116654,3.7710886,3
31772009631410,-0.2009971,9.102298,3.7615173,3
31772012010264,-0.18185452,9.126225,3.7615173,3
31772014389119,-0.148355,9.135797,3.790231,3
31772016767973,-0.13399807,9.126225,3.7950168,3
31772019146879,-0.148355,9.12144,3.790231,3
31772021525733,-0.148355,9.116654,3.7710886,3
31772023904587,-0.15792629,9.097511,3.7615173,3
31772026283441,-0.18185452,9.126225,3.7567315,3
31772028662348,-0.2105684,9.140582,3.751946,3
31772031041202,-0.23449662,9.145369,3.7663028,3
31772033420056,-0.2536392,9.126225,3.790231,3
31772035798910,-0.28235307,9.159725,3.790231,3
31772038177764,-0.29671,9.12144,3.7854455,3
31772040556671,-0.33020952,9.126225,3.7806597,3
31772042935525,-0.3589234,9.12144,3.7710886,3
31772045314379,-0.3684947,9.140582,3.7710886,3
31772047693233,-0.3684947,9.116654,3.790231,3
31772050072139,-0.3589234,9.102298,3.790231,3
31772052450994,-0.35413775,9.116654,3.7758741,3
31772054829848,-0.3397808,9.097511,3.7663028,3
31772057208702,-0.31585258,9.107083,3.7471602,3
31772059587556,-0.28713873,9.116654,3.7423747,3
31772061966462,-0.2632105,9.092726,3.7423747,3
31772064345316,-0.25842485,9.107083,3.737589,3
31772066724119,-0.2632105,9.097511,3.737589,3
31772069103025,-0.24885355,9.083155,3.7328033,3
31772071481931,-0.2536392,9.111869,3.7328033,3
31772073860785,-0.2727818,9.131011,3.737589,3
31772076239639,-0.29671,9.145369,3.7471602,3
31772078618494,-0.31585258,9.140582,3.7663028,3
31772080997348,-0.32542387,9.111869,3.7710886,3
31772083376254,-0.3397808,9.12144,3.7998023,3
31772085755108,-0.3397808,9.111869,3.804588,3
31772088133962,-0.38763726,9.111869,3.7950168,3
31772090512816,-0.4019942,9.12144,3.7854455,3
31772092891723,-0.41156548,9.12144,3.7950168,3
31772095270577,-0.42592242,9.12144,3.7998023,3
31772097649431,-0.43070808,9.116654,3.804588,3
31772100028285,-0.43070808,9.111869,3.818945,3
31772102407139,-0.43070808,9.102298,3.8141594,3
31772104786046,-0.39720857,9.102298,3.8093736,3
31772107164900,-0.3589234,9.102298,3.804588,3
31772109543754,-0.3493521,9.107083,3.804588,3
31772111922556,-0.30149564,9.102298,3.818945,3
31772114301514,-0.2727818,9.08794,3.8380876,3
31772116680369,-0.22971097,9.08794,3.8524444,3
31772119059223,-0.19621146,9.083155,3.8524444,3
31772121438077,-0.17228323,9.092726,3.8285162,3
31772123816931,-0.16749759,9.083155,3.8285162,3
31772126195837,-0.12921242,9.102298,3.804588,3
31772128574691,-0.11485548,9.092726,3.8093736,3
31772130953546,-0.124426775,9.097511,3.8093736,3
31772133332400,-0.11964113,9.107083,3.804588,3
31772135711254,-0.14356937,9.126225,3.790231,3
31772138090160,-0.16271193,9.111869,3.7998023,3
31772140469014,-0.18185452,9.12144,3.8093736,3
31772142847869,-0.2009971,9.145369,3.7854455,3
31772145226775,-0.2105684,9.140582,3.790231,3
31772147605629,-0.21535404,9.131011,3.7615173,3
31772149984483,-0.25842485,9.135797,3.7567315,3
31772152363337,-0.2632105,9.131011,3.790231,3
31772154742191,-0.2727818,9.131011,3.8093736,3
31772157121098,-0.29671,9.135797,3.8141594,3
31772159499952,-0.29671,9.131011,3.8476589,3
31772161878806,-0.28235307,9.116654,3.8476589,3
31772164257660,-0.2632105,9.111869,3.842873,3
31772166636566,-0.2536392,9.092726,3.8380876,3
31772169015421,-0.22971097,9.083155,3.818945,3
31772171394275,-0.20578274,9.097511,3.7854455,3
31772173773077,-0.17706887,9.059227,3.7615173,3
31772176151983,-0.15314065,9.068798,3.7423747,3
31772178530889,-0.13399807,9.08794,3.7471602,3
31772180909744,-0.15314065,9.078369,3.751946,3
31772183288598,-0.15314065,9.08794,3.7471602,3
31772185667452,-0.16749759,9.068798,3.737589,3
31772188046358,-0.17228323,9.068798,3.751946,3
31772190425212,-0.19142582,9.097511,3.7471602,3
31772192804066,-0.22492532,9.107083,3.7567315,3
31772195182921,-0.23928227,9.097511,3.7806597,3
31772197561775,-0.2632105,9.102298,3.7854455,3
31772199940681,-0.31106696,9.116654,3.790231,3
31772202319535,-0.33020952,9.135797,3.7806597,3
31772204698389,-0.3589234,9.140582,3.7758741,3
31772207077244,-0.38763726,9.15494,3.7758741,3
31772209456098,-0.37806597,9.145369,3.7854455,3
31772211835004,-0.37328035,9.135797,3.7998023,3
31772214213858,-0.41635114,9.126225,3.804588,3
31772216592712,-0.42592242,9.150154,3.804588,3
31772218971619,-0.35413775,9.145369,3.7950168,3
31772221350473,-0.32542387,9.150154,3.790231,3
31772223729327,-0.3062813,9.164511,3.790231,3
31772226108181,-0.29671,9.159725,3.804588,3
31772228487035,-0.2727818,9.102298,3.8237305,3
31772230865941,-0.22492532,9.035298,3.8093736,3
31772233244796,-0.2727818,9.140582,3.9098723,3
31772235623650,-0.2105684,9.083155,3.885944,3
31772238002504,-0.22971097,9.016156,3.8572302,3
31772240381410,-0.2105684,9.01137,3.790231,3
31772242760264,-0.2009971,9.020942,3.7423747,3
31772245139119,-0.2009971,9.030513,3.7758741,3
31772247517973,-0.22013968,9.020942,3.8141594,3
31772249896827,-0.22492532,9.044869,3.842873,3
31772252275733,-0.19142582,9.059227,3.7854455,3
31772254654535,-0.19142582,9.097511,3.7040894,3
31772257033441,-0.19621146,9.131011,3.6610186,3
31772259412296,-0.16749759,9.159725,3.641876,3
31772261791202,-0.148355,9.12144,3.6897326,3
31772264170056,-0.14356937,9.145369,3.7328033,3
31772266548910,-0.124426775,9.188439,3.7663028,3
31772268927764,-0.11485548,9.217153,3.7854455,3
31772271306619,-0.11485548,9.178867,3.751946,3
31772273685525,-0.12921242,9.183653,3.7184465,3
31772276064379,-0.11485548,9.174082,3.7328033,3
31772278443233,-0.13399807,9.135797,3.723232,3
31772280822087,-0.15314065,9.15494,3.7663028,3
31772283200941,-0.17228323,9.131011,3.790231,3
31772285579848,-0.19621146,9.126225,3.7758741,3
31772287958702,-0.2009971,9.126225,3.7758741,3
31772290337556,-0.22013968,9.131011,3.7710886,3
31772292716410,-0.21535404,9.126225,3.7998023,3
31772295095316,-0.22971097,9.08794,3.804588,3
31772297474171,-0.2440679,9.078369,3.842873,3
31772299853680,-0.2440679,9.08794,3.8620157,3
31772302231753,-0.25842485,9.064013,3.871587,3
31772304610659,-0.2727818,9.064013,3.871587,3
31772306989513,-0.28235307,9.0544405,3.8620157,3
31772309368368,-0.31106696,9.049655,3.8524444,3
31772311746909,-0.30149564,9.073584,3.842873,3
31772314126128,-0.32063824,9.102298,3.8572302,3
31772316504982,-0.3493521,9.0544405,3.8668015,3
31772318883836,-0.37806597,9.0544405,3.8907297,3
31772321262690,-0.37806597,9.040084,3.8285162,3
31772323641545,-0.37328035,9.150154,3.7998023,3
31772326020451,-0.38285163,9.140582,3.7663028,3
31772328399305,-0.38285163,9.116654,3.7710886,3
31772330778159,-0.38285163,9.159725,3.8285162,3
31772333157013,-0.39720857,9.12144,3.900301,3
31772335535920,-0.38285163,9.08794,3.8955152,3
31772337914774,-0.36370903,9.040084,3.8237305,3
31772340293628,-0.3684947,9.083155,3.7567315,3
31772342672482,-0.3493521,9.068798,3.4600215,3
31772345051336,-0.38763726,9.241081,3.4504502,3
31772347430243,-0.32542387,9.12144,3.5413775,3
31772349809097,-0.37328035,9.116654,3.8237305,3
31772352187951,-0.3684947,9.078369,3.9864426,3
31772354566753,-0.3589234,9.030513,3.9960139,3
31772356945711,-0.30149564,9.035298,3.885944,3
31772359324565,-0.28235307,9.150154,3.5557344,3
31772361703420,-0.2009971,9.327223,3.4743786,3
31772364082274,-0.23928227,9.150154,3.5126636,3
31772366461180,-0.2440679,9.269794,3.8285162,3
31772368840034,-0.17228323,9.312865,3.885944,3
31772371218888,-0.2727818,9.126225,3.7088752,3
31772373597743,-0.18664017,9.044869,3.5126636,3
31772375976597,-0.2440679,9.111869,3.6083765,3
31772378355503,-0.24885355,8.9013,3.7950168,3
31772380734357,-0.3062813,8.796016,4.0295134,3
31772383113211,-0.2440679,8.882157,4.106084,3
31772385492065,-0.31106696,9.025727,4.024728,3
31772387870920,-0.24885355,9.140582,3.7998023,3
31772390249826,-0.20578274,9.2793665,3.6323047,3
31772392628680,-0.20578274,9.284152,3.5796626,3
31772395007534,-0.13878371,9.19801,3.6993039,3
31772397386388,-0.047856454,9.183653,3.8907297,3
31772399765295,-0.014356935,9.188439,3.9720855,3
31772402144149,0.0,9.102298,3.9050865,3
31772404523003,0.014356935,9.107083,3.7854455,3
31772406901857,-0.0526421,9.164511,3.6993039,3
31772409280711,-0.15792629,9.188439,3.7423747,3
31772411659618,-0.2440679,9.174082,3.8380876,3
31772414038472,-0.4019942,9.174082,4.0103707,3
31772416417326,-0.5024927,9.140582,4.0869412,3
31772418796180,-0.56470615,9.12144,4.0151563,3
31772421175086,-0.5599205,9.140582,3.8811584,3
31772423553940,-0.5694918,9.145369,3.7567315,3
31772425932795,-0.5072784,9.078369,3.7328033,3
31772428311597,-0.44506502,9.044869,3.7998023,3
31772430690555,-0.42592242,9.049655,3.885944,3
31772433069409,-0.36370903,9.006584,3.9194436,3
31772435448263,-0.27756742,8.992228,3.8572302,3
31772437827118,-0.22971097,8.997013,3.723232,3
31772440205972,-0.20578274,9.016156,3.6083765,3
31772442584878,-0.17706887,9.040084,3.5700915,3
31772444963732,-0.19142582,9.044869,3.603591,3
31772447342586,-0.19142582,9.08794,3.6801612,3
31772449721440,-0.17706887,9.078369,3.7040894,3
31772452100347,-0.19142582,9.126225,3.7040894,3
31772454479201,-0.2105684,9.183653,3.656233,3
31772456858055,-0.26799613,9.188439,3.6275191,3
31772459236909,-0.30149564,9.2075815,3.6610186,3
31772461615763,-0.33499518,9.188439,3.737589,3
31772463994670,-0.40677986,9.183653,3.8093736,3
31772466373524,-0.5072784,9.193225,3.8524444,3
31772468752378,-0.5407779,9.183653,3.8572302,3
31772471131232,-0.5694918,9.140582,3.8093736,3
31772473510138,-0.57906306,9.15494,3.790231,3
31772475888993,-0.55034924,9.174082,3.804588,3
31772478267847,-0.526421,9.183653,3.842873,3
31772480646701,-0.49292147,9.140582,3.885944,3
31772483025607,-0.41635114,9.102298,3.9194436,3
31772485404461,-0.32063824,9.102298,3.9050865,3
31772487783315,-0.22492532,9.092726,3.8620157,3
31772490162170,-0.124426775,9.0544405,3.8141594,3
31772492541024,-0.076570325,9.040084,3.818945,3
31772494919930,-0.038285162,9.016156,3.8620157,3
31772497298784,0.02871387,9.016156,3.9098723,3
31772499677638,0.07178468,9.006584,3.9242291,3
31772502056493,0.06699903,9.020942,3.8955152,3
31772504435399,0.08135597,9.068798,3.8380876,3
31772506814253,0.033499517,9.078369,3.7854455,3
31772509193107,-0.0526421,9.107083,3.7854455,3
31772511571961,-0.14356937,9.097511,3.7998023,3
31772513950868,-0.2632105,9.083155,3.8572302,3
31772516329722,-0.35413775,9.097511,3.8524444,3
31772518708576,-0.4546363,9.131011,3.842873,3
31772521087430,-0.526421,9.15494,3.7615173,3
31772523466284,-0.6221339,9.174082,3.7136607,3
31772525845190,-0.65084773,9.169296,3.6993039,3
31772528224045,-0.6939186,9.159725,3.7280176,3
31772530602899,-0.6987042,9.135797,3.7663028,3
31772532981753,-0.6891329,9.135797,3.7806597,3
31772535360607,-0.63170516,9.131011,3.723232,3
31772537739513,-0.5886344,9.131011,3.6466618,3
31772540118368,-0.5072784,9.12144,3.6131623,3
31772542497222,-0.4354937,9.131011,3.6323047,3
31772544876128,-0.37328035,9.126225,3.6849468,3
31772547254982,-0.29671,9.102298,3.7184465,3
31772549633836,-0.22013968,9.092726,3.723232,3
31772552012690,-0.17228323,9.092726,3.7184465,3
31772554391545,-0.08135597,9.116654,3.694518,3
31772556770451,-0.02871387,9.145369,3.6466618,3
31772559149305,-0.0047856453,9.135797,3.6801612,3
31772561528159,0.019142581,9.116654,3.7328033,3
31772563907013,0.0,9.111869,3.7854455,3
31772566285868,-0.033499517,9.08794,3.804588,3
31772568664774,-0.08135597,9.092726,3.8141594,3
31772571043628,-0.148355,9.102298,3.7998023,3
31772573422482,-0.2440679,9.107083,3.7950168,3
31772575801284,-0.31585258,9.102298,3.8237305,3
31772578180243,-0.38285163,9.116654,3.842873,3
31772580559097,-0.42592242,9.126225,3.871587,3
31772582937951,-0.46899325,9.111869,3.8524444,3
31772585316805,-0.49292147,9.092726,3.8285162,3
31772587695711,-0.47377887,9.097511,3.8093736,3
31772590074565,-0.4354937,9.097511,3.790231,3
31772592453420,-0.41156548,9.12144,3.7998023,3
31772594832274,-0.3589234,9.12144,3.8237305,3
31772597211128,-0.31106696,9.116654,3.8524444,3
31772599590034,-0.25842485,9.102298,3.8763726,3
31772601968888,-0.20578274,9.107083,3.8524444,3
31772604347743,-0.15792629,9.126225,3.8333018,3
31772606726597,-0.14356937,9.092726,3.8093736,3
31772609105503,-0.13878371,9.097511,3.8093736,3
31772611484357,-0.11485548,9.116654,3.8333018,3
31772613863211,-0.11964113,9.131011,3.8380876,3
31772616242065,-0.13399807,9.12144,3.8141594,3
31772618620920,-0.16271193,9.135797,3.7854455,3
31772620999826,-0.2009971,9.131011,3.7710886,3
31772623378680,-0.22492532,9.140582,3.7758741,3
31772625757534,-0.2727818,9.15494,3.790231,3
31772628136388,-0.3493521,9.164511,3.8333018,3
31772630515295,-0.41156548,9.15494,3.8285162,3
31772632894149,-0.44506502,9.131011,3.8141594,3
31772635273003,-0.4833502,9.116654,3.804588,3
31772637651857,-0.52163535,9.097511,3.804588,3
31772640030711,-0.5407779,9.08794,3.8093736,3
31772642409618,-0.53599226,9.08794,3.804588,3
31772644788472,-0.47856453,9.107083,3.7950168,3
31772647167326,-0.4354937,9.116654,3.8093736,3
31772649546180,-0.4019942,9.097511,3.7854455,3
31772651925086,-0.35413775,9.083155,3.7567315,3
31772654303940,-0.29192436,9.083155,3.7710886,3
31772656682795,-0.20578274,9.092726,3.7710886,3
31772659061649,-0.14356937,9.083155,3.7854455,3
31772661440503,-0.08135597,9.059227,3.7998023,3
31772663819409,-0.0526421,9.078369,3.7854455,3
31772666198263,-0.043070808,9.097511,3.7710886,3
31772668577118,-0.02871387,9.102298,3.7471602,3
31772670955972,-0.05742774,9.097511,3.7423747,3
31772673334878,-0.1052842,9.116654,3.751946,3
31772675713732,-0.17228323,9.126225,3.751946,3
31772678092586,-0.22971097,9.116654,3.751946,3
31772680471440,-0.3062813,9.140582,3.7423747,3
31772682850347,-0.36370903,9.159725,3.7615173,3
31772685229201,-0.43070808,9.150154,3.7998023,3
31772687608055,-0.4833502,9.164511,3.818945,3
31772689986909,-0.5407779,9.159725,3.8237305,3
31772692365763,-0.5838487,9.159725,3.8380876,3
31772694744618,-0.5694918,9.135797,3.8572302,3
31772697123524,-0.55034924,9.140582,3.885944,3
31772699502378,-0.526421,9.145369,3.8668015,3
31772701881232,-0.4642076,9.135797,3.8620157,3
31772704260138,-0.41156548,9.126225,3.8524444,3
31772706638993,-0.31106696,9.126225,3.818945,3
31772709017847,-0.22492532,9.140582,3.818945,3
31772711396701,-0.12921242,9.126225,3.8141594,3
31772713775607,-0.043070808,9.107083,3.804588,3
31772716154461,0.043070808,9.08794,3.804588,3
31772718533315,0.09092726,9.111869,3.8285162,3
31772720912170,0.11964113,9.097511,3.8333018,3
31772723291024,0.124426775,9.092726,3.8380876,3
31772725669930,0.11006984,9.068798,3.8620157,3
31772728048784,0.07178468,9.064013,3.8572302,3
31772730427638,0.019142581,9.073584,3.8524444,3
31772732806493,-0.062213387,9.078369,3.8572302,3
31772735185399,-0.13878371,9.073584,3.818945,3
31772737564253,-0.23928227,9.08794,3.7998023,3
31772739943107,-0.31585258,9.08794,3.7806597,3
31772742321961,-0.38285163,9.111869,3.7615173,3
31772744700815,-0.43070808,9.102298,3.7423747,3
31772747079722,-0.47856453,9.131011,3.7567315,3
31772749458576,-0.52163535,9.140582,3.7710886,3
31772751837378,-0.52163535,9.116654,3.7710886,3
31772754216284,-0.51206404,9.12144,3.7710886,3
31772756595138,-0.5024927,9.12144,3.7758741,3
31772758974045,-0.4642076,9.111869,3.8093736,3
31772761352899,-0.42592242,9.111869,3.8333018,3
31772763731753,-0.37328035,9.083155,3.8476589,3
31772766110659,-0.32542387,9.092726,3.8285162,3
31772768489513,-0.26799613,9.126225,3.7950168,3
31772770868368,-0.2009971,9.140582,3.7615173,3
31772773247222,-0.16749759,9.135797,3.7471602,3
31772775626128,-0.12921242,9.126225,3.751946,3
31772778004982,-0.10049855,9.111869,3.7615173,3
31772780383836,-0.086141616,9.135797,3.790231,3
31772782762690,-0.1052842,9.12144,3.7854455,3
31772785141545,-0.1052842,9.116654,3.7998023,3
31772787520451,-0.14356937,9.08794,3.7950168,3
31772789899305,-0.19142582,9.111869,3.804588,3
31772792278159,-0.22492532,9.097511,3.8093736,3
31772794657013,-0.2727818,9.08794,3.8285162,3
31772797035920,-0.32542387,9.059227,3.8093736,3
31772799414774,-0.39720857,9.073584,3.804588,3
31772801793628,-0.43070808,9.078369,3.7567315,3
31772804172482,-0.49292147,9.078369,3.7423747,3
31772806551336,-0.4881358,9.08794,3.7184465,3
31772808930243,-0.5072784,9.102298,3.7184465,3
31772811309097,-0.4977071,9.102298,3.7136607,3
31772813687951,-0.4881358,9.107083,3.7088752,3
31772816066805,-0.44985065,9.135797,3.7328033,3
31772818445659,-0.4019942,9.111869,3.7423747,3
31772820824565,-0.4019942,9.08794,3.7423747,3
31772823203420,-0.3589234,9.116654,3.7615173,3
31772825582274,-0.31585258,9.097511,3.7710886,3
31772827961128,-0.28235307,9.08794,3.7806597,3
31772830340034,-0.23928227,9.107083,3.7567315,3
31772832718888,-0.22971097,9.102298,3.7088752,3
31772835097743,-0.2105684,9.126225,3.6849468,3
31772837476597,-0.22013968,9.111869,3.6610186,3
31772839855503,-0.22013968,9.135797,3.6897326,3
31772842234357,-0.24885355,9.159725,3.7280176,3
31772844613211,-0.22013968,9.164511,3.7471602,3
31772846992065,-0.21535404,9.188439,3.737589,3
31772849370972,-0.22492532,9.150154,3.751946,3
31772851749826,-0.22492532,9.135797,3.7710886,3
31772854128680,-0.22492532,9.140582,3.7998023,3
31772856507534,-0.22971097,9.126225,3.8237305,3
31772858886388,-0.23449662,9.102298,3.8476589,3
31772861265295,-0.20578274,9.073584,3.8620157,3
31772863644149,-0.17228323,9.064013,3.8620157,3
31772866023003,-0.16749759,9.08794,3.8572302,3
31772868401857,-0.16271193,9.097511,3.8333018,3
31772870780763,-0.13878371,9.092726,3.8093736,3
31772873159618,-0.11485548,9.073584,3.818945,3
31772875538472,-0.1052842,9.083155,3.8237305,3
31772877917326,-0.08135597,9.083155,3.8237305,3
31772880296180,-0.08135597,9.097511,3.8380876,3
31772882675086,-0.06699903,9.092726,3.818945,3
31772885053940,-0.06699903,9.083155,3.8093736,3
31772887432795,-0.06699903,9.097511,3.8141594,3
31772889811649,-0.076570325,9.08794,3.8141594,3
31772892190555,-0.11006984,9.08794,3.8285162,3
31772894569409,-0.124426775,9.078369,3.8093736,3
31772896948211,-0.148355,9.097511,3.7950168,3
31772899327118,-0.19142582,9.092726,3.790231,3
31772901705972,-0.23928227,9.111869,3.7663028,3
31772904084826,-0.27756742,9.116654,3.7615173,3
31772906463732,-0.3062813,9.145369,3.7615173,3
31772908842586,-0.3397808,9.145369,3.7710886,3
31772911221440,-0.3589234,9.116654,3.7663028,3
31772913600347,-0.36370903,9.131011,3.737589,3
31772915979149,-0.3684947,9.150154,3.7328033,3
31772918358055,-0.37328035,9.150154,3.7615173,3
31772920736909,-0.3493521,9.140582,3.7758741,3
31772923115815,-0.32063824,9.126225,3.790231,3
31772925494670,-0.31106696,9.12144,3.7950168,3
31772927873524,-0.2727818,9.107083,3.7806597,3
31772930252378,-0.23928227,9.111869,3.751946,3
31772932631284,-0.22013968,9.097511,3.7615173,3
31772935010138,-0.22013968,9.073584,3.7758741,3
31772937388993,-0.2009971,9.083155,3.7758741,3
31772939767847,-0.2009971,9.107083,3.7950168,3
31772942146701,-0.21535404,9.092726,3.7854455,3
31772944525607,-0.2105684,9.08794,3.7806597,3
31772946904461,-0.19142582,9.073584,3.7663028,3
31772949283315,-0.19142582,9.078369,3.7710886,3
31772951662170,-0.18664017,9.083155,3.7758741,3
31772954041076,-0.22492532,9.092726,3.7950168,3
31772956419930,-0.2105684,9.068798,3.804588,3
31772958798784,-0.23928227,9.08794,3.8285162,3
31772961177638,-0.25842485,9.092726,3.8093736,3
31772963556493,-0.2632105,9.078369,3.7854455,3
31772965935399,-0.28713873,9.083155,3.7663028,3
31772968314253,-0.30149564,9.08794,3.7567315,3
31772970693107,-0.3062813,9.102298,3.7471602,3
31772973071961,-0.32063824,9.107083,3.7567315,3
31772975450868,-0.31106696,9.097511,3.7471602,3
31772977829722,-0.34456646,9.102298,3.7328033,3
31772980208576,-0.34456646,9.092726,3.723232,3
31772982587430,-0.33499518,9.107083,3.7280176,3
31772984966284,-0.33499518,9.08794,3.7184465,3
31772987345190,-0.33499518,9.08794,3.723232,3
31772989724045,-0.32542387,9.097511,3.7423747,3
31772992102899,-0.32542387,9.107083,3.7423747,3
31772994481753,-0.3062813,9.116654,3.737589,3
31772996860659,-0.29671,9.131011,3.723232,3
31772999239513,-0.28235307,9.116654,3.7040894,3
31773001618368,-0.26799613,9.126225,3.7136607,3
31773003997222,-0.21535404,9.12144,3.7328033,3
31773006376128,-0.18185452,9.116654,3.7710886,3
31773008754982,-0.16271193,9.107083,3.7663028,3
31773011133836,-0.148355,9.097511,3.7567315,3
31773013512690,-0.12921242,9.097511,3.7567315,3
31773015891545,-0.1052842,9.126225,3.7806597,3
31773018270451,-0.11006984,9.12144,3.7854455,3
31773020649305,-0.10049855,9.116654,3.7806597,3
31773023028159,-0.124426775,9.140582,3.7950168,3
31773025407013,-0.10049855,9.135797,3.818945,3
31773027785920,-0.09571291,9.131011,3.8524444,3
31773030164774,-0.13878371,9.126225,3.8572302,3
31773032543628,-0.13399807,9.092726,3.8907297,3
31773034922482,-0.12921242,9.116654,3.9338005,3
31773037301336,-0.13399807,9.140582,3.9577286,3
31773039680243,-0.11006984,9.107083,3.9433718,3
31773042059097,-0.07178468,9.08794,3.9242291,3
31773044437951,-0.08135597,9.083155,3.8907297,3
31773046816805,-0.05742774,9.092726,3.8668015,3
31773049195711,-0.033499517,9.083155,3.8572302,3
31773051574565,-0.023928227,9.08794,3.8476589,3
31773053953420,-0.009571291,9.102298,3.842873,3
31773056332274,-0.02871387,9.08794,3.842873,3
31773058711180,-0.019142581,9.083155,3.8476589,3
31773061090034,-0.043070808,9.097511,3.8093736,3
31773063468888,-0.1052842,9.083155,3.7854455,3
31773065847743,-0.16271193,9.083155,3.7854455,3
31773068226649,-0.22492532,9.097511,3.7806597,3
31773070605503,-0.31106696,9.102298,3.818945,3
31773072984357,-0.37328035,9.111869,3.8285162,3
31773075363211,-0.45942193,9.097511,3.8237305,3
31773077742065,-0.5312066,9.131011,3.8141594,3
31773080120972,-0.59342,9.126225,3.8093736,3
31773082499826,-0.6364908,9.135797,3.818945,3
31773084878680,-0.6843473,9.150154,3.8093736,3
31773087257534,-0.6891329,9.174082,3.7998023,3
31773089636440,-0.6939186,9.15494,3.7998023,3
31773092015295,-0.6795616,9.174082,3.7806597,3
31773094394149,-0.61734825,9.150154,3.7854455,3
31773096773003,-0.59342,9.15494,3.8141594,3
31773099151857,-0.5455636,9.159725,3.818945,3
31773101530763,-0.4642076,9.12144,3.7998023,3
31773103909618,-0.3684947,9.107083,3.7758741,3
31773106288472,-0.27756742,9.092726,3.7854455,3
31773108667326,-0.19142582,9.073584,3.7758741,3
31773111046232,-0.1052842,9.073584,3.7710886,3
31773113425086,-0.019142581,9.083155,3.7663028,3
31773115803940,0.043070808,9.092726,3.7567315,3
31773118182795,0.07178468,9.078369,3.751946,3
31773120561649,0.1052842,9.092726,3.7615173,3
31773122940555,0.13878371,9.08794,3.7663028,3
31773125319409,0.10049855,9.08794,3.7615173,3
31773127698263,0.08135597,9.073584,3.7567315,3
31773130077118,0.019142581,9.107083,3.7710886,3
31773132456024,-0.05742774,9.107083,3.7854455,3
31773134834878,-0.14356937,9.102298,3.7998023,3
31773137213732,-0.2440679,9.12144,3.7998023,3
31773139592586,-0.33020952,9.126225,3.790231,3
31773141971493,-0.40677986,9.140582,3.7854455,3
31773144350347,-0.47377887,9.150154,3.7854455,3
31773146729201,-0.5072784,9.183653,3.8141594,3
31773149108055,-0.526421,9.183653,3.818945,3
31773151486909,-0.5312066,9.188439,3.8093736,3
