t_ns,ax,ay,az,accuracy
20775023181320,-0.9619147,8.953942,4.1587257,3
20775025557934,-0.94277215,8.925228,4.254439,3
20775027936945,-0.95712906,8.886943,4.2687955,3
20775030315903,-0.9236295,8.906086,4.2352962,3
20775032694861,-0.91405827,8.896515,4.173083,3
20775035073872,-0.8805587,8.896515,4.115655,3
20775037452830,-0.8805587,8.882157,4.0965123,3
20775039831788,-0.8662018,8.863015,4.1491547,3
20775042210747,-0.8566305,8.843872,4.2017965,3
20775044589757,-0.8039884,8.82473,4.273581,3
20775046968715,-0.7609176,8.82473,4.273581,3
20775049347726,-0.7369894,8.843872,4.2352962,3
20775051726684,-0.7178468,8.867801,4.197011,3
20775054105642,-0.66999036,8.872586,4.182654,3
20775056484236,-0.71306115,8.877372,4.211368,3
20775058863611,-0.6795616,8.886943,4.2831526,3
20775061242622,-0.65084773,8.891729,4.3262234,3
20775063621580,-0.66041905,8.896515,4.316652,3
20775066000174,-0.63170516,8.920443,4.2831526,3
20775068379549,-0.65084773,8.920443,4.23051,3
20775070758507,-0.61734825,8.9108715,4.1922255,3
20775073137465,-0.6269195,8.877372,4.206582,3
20775075516476,-0.6269195,8.853444,4.2017965,3
20775077895434,-0.64606214,8.839087,4.2161536,3
20775080274392,-0.66999036,8.819944,4.2017965,3
20775082653403,-0.6795616,8.805588,4.168297,3
20775085032361,-0.7082755,8.805588,4.1108694,3
20775087411320,-0.74177504,8.796016,4.1108694,3
20775089790330,-0.7752745,8.819944,4.1108694,3
20775092169288,-0.8422736,8.810373,4.1347976,3
20775094548247,-0.8709874,8.800801,4.130012,3
20775096927257,-0.9092726,8.800801,4.139583,3
20775099306163,-0.94277215,8.82473,4.15394,3
20775101685174,-0.9954142,8.85823,4.168297,3
20775104064184,-1.0001999,8.896515,4.1635113,3
20775106443142,-1.0241281,8.906086,4.1922255,3
20775108822101,-1.0336994,8.9348,4.197011,3
20775111201111,-1.0432707,8.944371,4.197011,3
20775113580070,-1.0145568,8.949157,4.2017965,3
20775115959028,-1.0193424,8.968299,4.2257247,3
20775118338038,-0.9619147,8.949157,4.2352962,3
20775120716997,-0.9284152,8.958728,4.240082,3
20775123096007,-0.8853444,8.949157,4.23051,3
20775125474965,-0.8279166,8.9348,4.2161536,3
20775127853924,-0.7752745,8.958728,4.211368,3
20775130232882,-0.7369894,8.9348,4.249653,3
20775132611892,-0.6891329,8.882157,4.273581,3
20775134990851,-0.6891329,8.877372,4.302295,3
20775137369861,-0.66041905,8.853444,4.2831526,3
20775139748820,-0.6891329,8.848659,4.278367,3
20775142127778,-0.70348984,8.843872,4.254439,3
20775144506788,-0.72263247,8.819944,4.240082,3
20775146885747,-0.7752745,8.805588,4.220939,3
20775149264705,-0.85184485,8.800801,4.2017965,3
20775151643715,-0.9092726,8.819944,4.197011,3
20775154022622,-0.9762716,8.839087,4.206582,3
20775156401632,-1.0576276,8.839087,4.220939,3
20775158780642,-1.134198,8.839087,4.23051,3
20775161159601,-1.1676974,8.82473,4.2257247,3
20775163538559,-1.2059826,8.848659,4.220939,3
20775165917570,-1.2490535,8.829515,4.2017965,3
20775168296528,-1.2346965,8.848659,4.2017965,3
20775170675486,-1.2251252,8.872586,4.206582,3
20775173054497,-1.2011969,8.85823,4.197011,3
20775175433455,-1.1485549,8.867801,4.206582,3
20775177812413,-1.1006985,8.906086,4.206582,3
20775180191424,-1.0049855,8.939586,4.2017965,3
20775182570382,-0.9236295,8.9348,4.173083,3
20775184949392,-0.8470592,8.9348,4.1491547,3
20775187328351,-0.7848458,8.939586,4.1443686,3
20775189707309,-0.71306115,8.9348,4.15394,3
20775192086320,-0.65084773,8.930014,4.1587257,3
20775194465278,-0.59342,8.920443,4.173083,3
20775196844236,-0.55513483,8.896515,4.15394,3
20775199223247,-0.53599226,8.9108715,4.1347976,3
20775201602205,-0.5312066,8.891729,4.125226,3
20775203981163,-0.5455636,8.877372,4.115655,3
20775206360174,-0.59342,8.843872,4.1108694,3
20775208739132,-0.6652047,8.834301,4.130012,3
20775211118090,-0.72263247,8.848659,4.1204405,3
20775213497101,-0.79441714,8.839087,4.106084,3
20775215876059,-0.8757731,8.891729,4.091727,3
20775218255017,-0.9236295,8.915657,4.0773697,3
20775220634028,-1.0097711,8.9013,4.101298,3
20775223012986,-1.0624132,8.925228,4.1587257,3
20775225391945,-1.1294123,8.9013,4.1874394,3
20775227770955,-1.1820544,8.920443,4.2161536,3
20775230149913,-1.2346965,8.9348,4.23051,3
20775232528872,-1.2203395,8.939586,4.240082,3
20775234907830,-1.253839,8.963513,4.23051,3
20775237286840,-1.253839,8.973084,4.2592244,3
20775239665799,-1.2346965,8.973084,4.3118663,3
20775242044809,-1.1820544,8.977871,4.3501515,3
20775244423767,-1.1246266,8.987442,4.354937,3
20775246802726,-1.0671989,8.992228,4.3405805,3
20775249181736,-0.95712906,8.968299,4.331009,3
20775251560695,-0.8566305,8.949157,4.331009,3
20775253939653,-0.7369894,8.9013,4.3262234,3
20775256318663,-0.6412765,8.867801,4.3645086,3
20775258697622,-0.57427746,8.843872,4.3932223,3
20775261076580,-0.51206404,8.82473,4.3788652,3
20775263455590,-0.4546363,8.834301,4.321438,3
20775265834549,-0.41635114,8.819944,4.254439,3
20775268213559,-0.43070808,8.819944,4.1635113,3
20775270592517,-0.41635114,8.834301,4.1587257,3
20775272971476,-0.44027936,8.82473,4.173083,3
20775275350486,-0.5024927,8.829515,4.168297,3
20775277729445,-0.5694918,8.848659,4.168297,3
20775280108403,-0.66041905,8.886943,4.1347976,3
20775282487413,-0.7609176,8.9108715,4.0869412,3
20775284866372,-0.8422736,8.930014,3.991228,3
20775287245330,-0.9236295,8.930014,3.9720855,3
20775289624340,-1.0336994,8.949157,3.9816568,3
20775292003299,-1.105484,8.949157,4.0151563,3
20775294382257,-1.1772687,8.958728,4.024728,3
20775296761267,-1.253839,8.920443,4.0103707,3
20775299140226,-1.3016955,8.925228,3.9816568,3
20775301519184,-1.3208381,8.930014,3.9290147,3
20775303898195,-1.3160524,8.915657,3.9146578,3
20775306277153,-1.2921243,8.872586,3.9242291,3
20775308656163,-1.253839,8.853444,3.9625144,3
20775311035122,-1.2107682,8.848659,3.9720855,3
20775313414080,-1.1246266,8.834301,3.9625144,3
20775315793090,-1.052842,8.82473,4.0007997,3
20775318172049,-1.0097711,8.815159,4.0103707,3
20775320551007,-0.9379865,8.815159,4.024728,3
20775322930017,-0.89013004,8.82473,4.058227,3
20775325308976,-0.8662018,8.82473,4.0965123,3
20775327687934,-0.86141616,8.85823,4.1491547,3
20775330066945,-0.8566305,8.877372,4.1587257,3
20775332445903,-0.8662018,8.867801,4.1874394,3
20775334824861,-0.89491564,8.915657,4.2161536,3
20775337203872,-0.9284152,8.930014,4.2592244,3
20775339582830,-0.9619147,8.953942,4.302295,3
20775341961788,-0.9810573,8.939586,4.316652,3
20775344340799,-1.0193424,8.930014,4.321438,3
20775346719757,-1.0193424,8.9348,4.345366,3
20775349098715,-1.0049855,8.920443,4.3645086,3
20775351477726,-0.9906286,8.920443,4.3740797,3
20775353856684,-0.9667004,8.915657,4.3645086,3
20775356235642,-0.93320084,8.9013,4.345366,3
20775358614653,-0.8853444,8.896515,4.359723,3
20775360993611,-0.86141616,8.872586,4.354937,3
20775363372517,-0.80877405,8.872586,4.3405805,3
20775365751580,-0.75613195,8.872586,4.316652,3
20775368130538,-0.7082755,8.882157,4.3118663,3
20775370509497,-0.66999036,8.9013,4.278367,3
20775372888507,-0.6652047,8.920443,4.2592244,3
20775375267465,-0.6556334,8.968299,4.2687955,3
20775377646424,-0.66041905,8.968299,4.2687955,3
20775380025434,-0.67477596,8.9826565,4.254439,3
20775382404392,-0.72263247,8.997013,4.220939,3
20775384783403,-0.76570326,9.016156,4.2017965,3
20775387162361,-0.8135597,9.020942,4.1778684,3
20775389541320,-0.8662018,9.016156,4.168297,3
20775391920330,-0.95712906,9.01137,4.125226,3
20775394299288,-0.98584294,9.020942,4.0965123,3
20775396678247,-1.0097711,9.016156,4.0534415,3
20775399057257,-1.0671989,9.030513,4.0103707,3
20775401436215,-1.1102697,9.025727,4.005585,3
20775403815174,-1.119841,9.025727,4.024728,3
20775406194184,-1.105484,9.020942,4.0390844,3
20775408573142,-1.105484,9.006584,4.048656,3
20775410952101,-1.105484,8.987442,4.0390844,3
20775413331111,-1.0624132,8.973084,4.0534415,3
20775415710070,-1.0241281,8.9348,4.0295134,3
20775418089028,-0.9906286,8.930014,4.0103707,3
20775420468038,-0.93320084,8.896515,3.9960139,3
20775422846997,-0.86141616,8.853444,4.005585,3
20775425225955,-0.8422736,8.843872,4.063013,3
20775427604965,-0.82313097,8.872586,4.125226,3
20775429983924,-0.8279166,8.906086,4.130012,3
20775432362882,-0.81834537,8.9348,4.0438704,3
20775434741892,-0.79920274,8.944371,3.9577286,3
20775437120851,-0.8135597,8.963513,3.9433718,3
20775439499757,-0.8566305,8.958728,3.9768713,3
20775441878767,-0.90448695,8.9013,4.019942,3
20775444257778,-0.9379865,8.834301,4.0965123,3
20775446636788,-0.95712906,8.7673025,4.168297,3
20775449015747,-0.9906286,8.724232,4.2257247,3
20775451394705,-1.0289137,8.700303,4.2448673,3
20775453773715,-1.0480564,8.748159,4.26401,3
20775456152674,-1.0863415,8.800801,4.26401,3
20775458531580,-1.105484,8.853444,4.249653,3
20775460910642,-1.1246266,8.9108715,4.2257247,3
20775463289601,-1.1294123,8.949157,4.2161536,3
20775465668559,-1.1389836,8.963513,4.2448673,3
20775468047570,-1.134198,8.949157,4.2687955,3
20775470426528,-1.0959128,8.925228,4.316652,3
20775472805486,-1.038485,8.896515,4.345366,3
20775475184497,-1.0049855,8.915657,4.354937,3
20775477563455,-0.9523434,8.9013,4.354937,3
20775479942413,-0.8997013,8.877372,4.3357944,3
20775482321424,-0.8327023,8.834301,4.354937,3
20775484700382,-0.7704889,8.810373,4.3405805,3
20775487079340,-0.71306115,8.800801,4.331009,3
20775489458351,-0.66041905,8.82473,4.3070807,3
20775491837309,-0.6125626,8.810373,4.2927237,3
20775494216267,-0.5599205,8.819944,4.273581,3
20775496595278,-0.5455636,8.834301,4.278367,3
20775498974236,-0.5694918,8.867801,4.3070807,3
20775501353195,-0.5599205,8.863015,4.321438,3
20775503732205,-0.5838487,8.891729,4.331009,3
20775506111163,-0.63170516,8.925228,4.3501515,3
20775508490174,-0.6652047,8.925228,4.287938,3
20775510869132,-0.71306115,8.9348,4.1922255,3
20775513248090,-0.7752745,8.915657,4.115655,3
20775515627049,-0.83748794,8.930014,4.063013,3
20775518006059,-0.89013004,8.953942,4.072584,3
20775520385017,-0.90448695,8.958728,4.091727,3
20775522764028,-0.9379865,8.949157,4.0965123,3
20775525142986,-0.9906286,8.930014,4.0965123,3
20775527521945,-1.0097711,8.958728,4.048656,3
20775529900903,-1.0241281,8.987442,4.005585,3
20775532279861,-1.0241281,8.992228,4.005585,3
20775534658872,-0.9906286,8.977871,4.024728,3
20775537037882,-0.9954142,9.006584,4.115655,3
20775539416840,-0.9619147,9.006584,4.1635113,3
20775541795799,-0.91405827,8.987442,4.2017965,3
20775544174809,-0.8662018,8.958728,4.173083,3
20775546553767,-0.81834537,8.949157,4.1635113,3
20775548932726,-0.7609176,8.9108715,4.1635113,3
20775551311736,-0.71306115,8.872586,4.1874394,3
20775553690695,-0.6891329,8.85823,4.1922255,3
20775556069653,-0.66999036,8.872586,4.2017965,3
20775558448663,-0.6795616,8.843872,4.220939,3
20775560827622,-0.6891329,8.839087,4.182654,3
20775563206580,-0.7369894,8.853444,4.1491547,3
20775565585590,-0.7752745,8.877372,4.139583,3
20775567964549,-0.79920274,8.872586,4.1491547,3
20775570343507,-0.83748794,8.867801,4.182654,3
20775572722517,-0.85184485,8.886943,4.2017965,3
20775575101424,-0.89491564,8.886943,4.197011,3
20775577480434,-0.9284152,8.867801,4.2257247,3
20775579859445,-0.94277215,8.85823,4.2257247,3
20775582238403,-0.9667004,8.863015,4.211368,3
20775584617361,-0.9810573,8.848659,4.2257247,3
20775586996372,-0.9619147,8.853444,4.240082,3
20775589375330,-0.9523434,8.877372,4.2352962,3
20775591754288,-0.94277215,8.9013,4.254439,3
20775594133299,-0.91405827,8.896515,4.240082,3
20775596512257,-0.9092726,8.891729,4.206582,3
20775598891267,-0.8805587,8.9013,4.1874394,3
20775601270226,-0.8422736,8.9013,4.1922255,3
20775603649184,-0.79441714,8.877372,4.197011,3
20775606028195,-0.7369894,8.839087,4.1922255,3
20775608407153,-0.67477596,8.815159,4.182654,3
20775610786111,-0.6556334,8.79123,4.15394,3
20775613165122,-0.6364908,8.7577305,4.115655,3
20775615544080,-0.59342,8.776874,4.0965123,3
20775617923038,-0.5694918,8.79123,4.115655,3
20775620302049,-0.5694918,8.7673025,4.125226,3
20775622681007,-0.5455636,8.776874,4.1108694,3
20775625059965,-0.5168497,8.819944,4.0965123,3
20775627438976,-0.5312066,8.9108715,4.15394,3
20775629817934,-0.5982057,8.925228,4.197011,3
20775632196840,-0.61734825,8.963513,4.197011,3
20775634575903,-0.7082755,8.992228,4.1778684,3
20775636954861,-0.7848458,9.001799,4.1587257,3
20775639333820,-0.8805587,8.9826565,4.2161536,3
20775641712830,-0.9762716,8.992228,4.331009,3
20775644091788,-1.0576276,8.968299,4.4410787,3
20775646470747,-1.119841,8.953942,4.465007,3
20775648849757,-1.1533405,8.958728,4.402794,3
20775651228715,-1.18684,8.9348,4.287938,3
20775653607674,-1.2059826,8.925228,4.2257247,3
20775655986684,-1.1724831,8.939586,4.2448673,3
20775658365642,-1.1485549,8.9013,4.3118663,3
20775660744653,-1.134198,8.915657,4.3788652,3
20775663123611,-1.105484,8.9108715,4.369294,3
20775665502570,-1.0624132,8.891729,4.316652,3
20775667881580,-1.0001999,8.9108715,4.249653,3
20775670260538,-0.95712906,8.906086,4.1778684,3
20775672639497,-0.9236295,8.906086,4.2017965,3
20775675018507,-0.8709874,8.886943,4.2448673,3
20775677397465,-0.81834537,8.920443,4.273581,3
20775679776424,-0.81834537,8.925228,4.2592244,3
20775682155434,-0.8039884,8.944371,4.173083,3
20775684534392,-0.8039884,8.9348,4.091727,3
20775686913351,-0.82313097,8.920443,4.0534415,3
20775689292361,-0.89013004,8.920443,4.072584,3
20775691671320,-0.9523434,8.925228,4.15394,3
20775694050278,-1.0336994,8.930014,4.197011,3
20775696429288,-1.0671989,8.915657,4.1922255,3
20775698808247,-1.1294123,8.9108715,4.1443686,3
20775701187205,-1.1772687,8.939586,4.0534415,3
20775703566215,-1.2251252,8.958728,3.991228,3
20775705945174,-1.2299109,8.939586,4.0151563,3
20775708324132,-1.2394822,8.930014,4.091727,3
20775710703142,-1.2203395,8.944371,4.173083,3
20775713082101,-1.1581261,8.953942,4.2161536,3
20775715461111,-1.0719845,8.920443,4.211368,3
20775717840070,-0.9619147,8.9013,4.173083,3
20775720219028,-0.85184485,8.9013,4.1491547,3
20775722598038,-0.7513463,8.882157,4.1443686,3
20775724976997,-0.6412765,8.848659,4.1874394,3
20775727355955,-0.49292147,8.805588,4.2448673,3
20775729734965,-0.39720857,8.786445,4.3118663,3
20775732113924,-0.26799613,8.776874,4.3070807,3
20775734492882,-0.18185452,8.752945,4.2831526,3
20775736871892,-0.13399807,8.772088,4.2592244,3
20775739250851,-0.10049855,8.762517,4.2687955,3
20775741629809,-0.062213387,8.7577305,4.3118663,3
20775744008820,-0.10049855,8.733803,4.3357944,3
20775746387726,-0.11006984,8.724232,4.359723,3
20775748766736,-0.14356937,8.7673025,4.3645086,3
20775751145747,-0.2009971,8.796016,4.354937,3
20775753524705,-0.26799613,8.805588,4.3405805,3
20775755903663,-0.3493521,8.848659,4.3262234,3
20775758282674,-0.4546363,8.863015,4.331009,3
20775760661632,-0.55034924,8.872586,4.316652,3
20775763040590,-0.6412765,8.9013,4.2927237,3
20775765419601,-0.7082755,8.896515,4.249653,3
20775767798559,-0.7896315,8.906086,4.220939,3
20775770177517,-0.8662018,8.9108715,4.211368,3
20775772556528,-0.9284152,8.906086,4.206582,3
20775774935486,-0.971486,8.906086,4.1922255,3
20775777314445,-1.0097711,8.920443,4.1874394,3
20775779693455,-1.0241281,8.930014,4.1491547,3
20775782072361,-0.9954142,8.963513,4.125226,3
20775784451372,-0.971486,8.977871,4.125226,3
20775786830382,-0.89491564,8.987442,4.106084,3
20775789209340,-0.79920274,9.006584,4.125226,3
20775791588351,-0.7178468,8.997013,4.173083,3
20775793967309,-0.6125626,8.977871,4.182654,3
20775796346267,-0.51206404,9.001799,4.1922255,3
20775798725226,-0.41156548,9.006584,4.1587257,3
20775801104236,-0.34456646,9.025727,4.139583,3
20775803483195,-0.31106696,9.006584,4.125226,3
20775805862205,-0.3062813,8.997013,4.1204405,3
20775808241163,-0.29671,8.997013,4.139583,3
20775810620122,-0.32542387,9.006584,4.1778684,3
20775812999132,-0.3397808,8.977871,4.220939,3
20775815378090,-0.4019942,8.9348,4.254439,3
20775817757049,-0.4642076,8.939586,4.26401,3
20775820136059,-0.526421,8.9013,4.2831526,3
20775822515017,-0.59342,8.891729,4.331009,3
20775824893976,-0.65084773,8.819944,4.3788652,3
20775827272934,-0.6939186,8.79123,4.402794,3
20775829651945,-0.75613195,8.752945,4.4075794,3
20775832030903,-0.75613195,8.729017,4.354937,3
20775834409913,-0.7369894,8.71466,4.3262234,3
20775836788872,-0.7465607,8.752945,4.2687955,3
20775839167830,-0.7609176,8.805588,4.26401,3
20775841546840,-0.7848458,8.810373,4.2592244,3
20775843925799,-0.7848458,8.815159,4.254439,3
20775846304757,-0.8039884,8.867801,4.254439,3
20775848683767,-0.8327023,8.891729,4.249653,3
20775851062726,-0.8422736,8.906086,4.2257247,3
20775853441736,-0.8853444,8.930014,4.206582,3
20775855820695,-0.9284152,8.949157,4.197011,3
20775858199653,-1.0097711,8.963513,4.2017965,3
20775860578611,-1.0719845,8.9826565,4.1922255,3
20775862957622,-1.105484,8.997013,4.182654,3
20775865336580,-1.18684,9.006584,4.1778684,3
20775867715590,-1.2203395,8.968299,4.1778684,3
20775870094549,-1.2586247,8.953942,4.1778684,3
20775872473507,-1.3064811,8.925228,4.1635113,3
20775874852517,-1.3064811,8.9108715,4.1874394,3
20775877231476,-1.2634103,8.872586,4.182654,3
20775879610434,-1.2346965,8.834301,4.1922255,3
20775881989445,-1.1676974,8.834301,4.1778684,3
20775884368403,-1.1006985,8.829515,4.1635113,3
20775886747361,-1.0001999,8.863015,4.1347976,3
20775889126372,-0.89013004,8.872586,4.115655,3
20775891505330,-0.7896315,8.867801,4.0965123,3
20775893884288,-0.72263247,8.843872,4.091727,3
20775896263299,-0.6556334,8.82473,4.091727,3
20775898642257,-0.5982057,8.843872,4.106084,3
20775901021215,-0.56470615,8.85823,4.106084,3
20775903400226,-0.5599205,8.867801,4.106084,3
20775905779184,-0.57427746,8.867801,4.125226,3
20775908158142,-0.5886344,8.863015,4.139583,3
20775910537153,-0.6029913,8.891729,4.173083,3
20775912916111,-0.63170516,8.906086,4.206582,3
20775915295070,-0.70348984,8.944371,4.240082,3
20775917674080,-0.6987042,8.939586,4.273581,3
20775920053038,-0.7178468,8.915657,4.273581,3
20775922432049,-0.6939186,8.925228,4.321438,3
20775924811007,-0.6652047,8.896515,4.3645086,3
20775927189913,-0.6269195,8.877372,4.3740797,3
20775929568976,-0.5694918,8.85823,4.3932223,3
20775931947934,-0.5455636,8.819944,4.3932223,3
20775934326892,-0.49292147,8.805588,4.3740797,3
20775936705903,-0.44506502,8.810373,4.345366,3
20775939084861,-0.40677986,8.800801,4.3070807,3
20775941463820,-0.35413775,8.786445,4.2687955,3
20775943842830,-0.33499518,8.796016,4.2448673,3
20775946221788,-0.3062813,8.839087,4.2352962,3
20775948600747,-0.31585258,8.85823,4.23051,3
20775950979757,-0.3684947,8.882157,4.2161536,3
20775953358715,-0.42592242,8.896515,4.206582,3
20775955737674,-0.5168497,8.920443,4.23051,3
20775958116684,-0.63170516,8.939586,4.2257247,3
20775960495642,-0.7609176,8.973084,4.206582,3
20775962874601,-0.8853444,8.992228,4.1778684,3
20775965253611,-0.971486,8.997013,4.1491547,3
20775967632570,-1.0767702,9.016156,4.15394,3
20775970011528,-1.1389836,9.016156,4.1635113,3
20775972390538,-1.2059826,9.01137,4.15394,3
20775974769497,-1.2490535,9.016156,4.173083,3
20775977148455,-1.2442678,9.020942,4.173083,3
20775979527465,-1.2059826,8.997013,4.1491547,3
20775981906424,-1.1581261,8.987442,4.125226,3
20775984285382,-1.0911272,8.973084,4.115655,3
20775986664392,-0.98584294,8.973084,4.1108694,3
20775989043351,-0.8853444,8.963513,4.0965123,3
20775991422361,-0.7513463,8.977871,4.101298,3
20775993801320,-0.6269195,9.001799,4.082155,3
20775996180278,-0.5694918,8.9826565,4.0677986,3
20775998559288,-0.52163535,8.963513,4.034299,3
20776000938247,-0.4546363,8.977871,4.0295134,3
20776003317205,-0.4546363,8.949157,4.063013,3
20776005696215,-0.4833502,8.9348,4.082155,3
20776008075174,-0.5312066,8.958728,4.101298,3
20776010454132,-0.6125626,8.958728,4.0869412,3
20776012833142,-0.6987042,8.963513,4.082155,3
20776015212101,-0.7848458,8.958728,4.0677986,3
20776017591059,-0.8853444,8.973084,4.0677986,3
20776019970070,-0.9810573,8.963513,4.0965123,3
20776022349028,-1.0815558,8.968299,4.1347976,3
20776024727986,-1.1389836,8.977871,4.173083,3
20776027106997,-1.18684,8.963513,4.1778684,3
20776029485955,-1.2011969,8.963513,4.206582,3
20776031864913,-1.2011969,8.953942,4.197011,3
20776034243924,-1.1629118,8.930014,4.1874394,3
20776036622882,-1.0719845,8.9348,4.211368,3
20776039001840,-0.98584294,8.920443,4.2257247,3
20776041380851,-0.8757731,8.9013,4.2352962,3
20776043759809,-0.7752745,8.882157,4.2448673,3
20776046138767,-0.65084773,8.85823,4.197011,3
20776048517778,-0.5072784,8.834301,4.1922255,3
20776050896736,-0.42592242,8.82473,4.1587257,3
20776053275747,-0.34456646,8.839087,4.130012,3
20776055654705,-0.27756742,8.85823,4.101298,3
20776058033663,-0.24885355,8.867801,4.1108694,3
20776060412674,-0.2536392,8.882157,4.1204405,3
20776062791632,-0.3062813,8.9013,4.101298,3
20776065170590,-0.3684947,8.915657,4.072584,3
20776067549601,-0.46899325,8.920443,4.034299,3
20776069928559,-0.56470615,8.944371,3.9960139,3
20776072307517,-0.6795616,8.968299,4.019942,3
20776074686528,-0.80877405,8.968299,4.019942,3
20776077065486,-0.9092726,9.001799,4.058227,3
20776079444445,-1.0193424,9.025727,4.106084,3
20776081823455,-1.0767702,9.044869,4.130012,3
20776084202413,-1.105484,9.049655,4.15394,3
20776086581372,-1.1006985,9.064013,4.1587257,3
20776088960382,-1.0576276,9.083155,4.173083,3
20776091339340,-0.9762716,9.064013,4.197011,3
20776093718299,-0.90448695,9.049655,4.2448673,3
20776096097309,-0.7369894,9.040084,4.287938,3
20776098476267,-0.6029913,9.025727,4.3070807,3
20776100855226,-0.4211368,9.01137,4.302295,3
20776103234236,-0.28713873,8.953942,4.2927237,3
20776105613195,-0.13878371,8.906086,4.287938,3
20776107992153,-0.0047856453,8.896515,4.2927237,3
20776110371163,0.10049855,8.863015,4.3118663,3
20776112750122,0.17706887,8.843872,4.3118663,3
20776115129132,0.2105684,8.834301,4.3118663,3
20776117508090,0.23449662,8.843872,4.278367,3
20776119887049,0.22492532,8.810373,4.2352962,3
20776122266059,0.12921242,8.805588,4.197011,3
20776124645017,0.0047856453,8.79123,4.2017965,3
20776127023976,-0.1052842,8.79123,4.2161536,3
20776129402986,-0.2632105,8.796016,4.2257247,3
20776131781945,-0.44506502,8.815159,4.2161536,3
20776134160903,-0.60777694,8.843872,4.1874394,3
20776136539913,-0.7609176,8.886943,4.106084,3
20776138918872,-0.93320084,8.863015,4.0438704,3
20776141297830,-1.0336994,8.810373,3.9625144,3
20776143676840,-1.0863415,8.815159,3.6514473,3
20776146055799,-1.1581261,8.7673025,3.1250265,3
20776148434757,-1.3016955,8.719446,3.1393833,3
20776150813767,-1.1246266,9.107083,3.9673,3
20776153192726,-1.1533405,9.15494,4.493721,3
20776155571684,-1.3064811,8.872586,4.4458647,3
20776157950695,-0.9284152,8.949157,4.063013,3
20776160329653,-0.7896315,9.064013,3.3547373,3
20776162708611,-0.91405827,8.949157,2.981457,3
20776165087622,-0.67477596,9.083155,3.5030923,3
20776167466580,-0.37806597,9.221938,4.3357944,3
20776169845590,-0.51206404,9.0544405,4.74736,3
20776172224549,-0.38763726,8.925228,4.910072,3
20776174603507,-0.047856454,9.040084,4.733003,3
20776176982517,-0.16271193,9.092726,4.2257247,3
20776179361476,-0.22013968,8.968299,3.8476589,3
20776181740434,-0.023928227,8.9108715,3.9194436,3
20776184119445,-0.14356937,8.896515,4.1491547,3
20776186498403,-0.42592242,8.71466,4.359723,3
20776188877361,-0.46899325,8.6141615,4.5320063,3
20776191256372,-0.55513483,8.633304,4.359723,3
20776193635330,-0.90448695,8.695518,3.952943,3
20776196014288,-1.0815558,8.700303,3.6801612,3
20776198393299,-1.1676974,8.695518,3.723232,3
20776200772257,-1.4596218,8.724232,4.0295134,3
20776203151215,-1.6941184,8.719446,4.4458647,3
20776205530226,-1.7324036,8.729017,4.7138605,3
20776207909132,-1.861616,8.810373,4.6707897,3
20776210288142,-1.9477576,8.925228,4.402794,3
20776212667153,-1.8520447,8.949157,4.1491547,3
20776215046111,-1.7802601,9.025727,4.063013,3
20776217425070,-1.6654046,9.083155,4.1108694,3
20776219804080,-1.5074782,9.073584,4.321438,3
20776222183038,-1.2442678,9.016156,4.479364,3
20776224561997,-1.0193424,9.001799,4.479364,3
20776226941007,-0.7896315,8.997013,4.3118663,3
20776229319965,-0.4977071,9.006584,4.0438704,3
20776231698924,-0.26799613,8.997013,3.804588,3
20776234077934,-0.10049855,8.973084,3.7615173,3
20776236456892,0.05742774,8.920443,3.9146578,3
20776238835851,0.16749759,8.843872,4.1635113,3
20776241214861,0.18185452,8.819944,4.3501515,3
20776243593820,0.19142582,8.776874,4.402794,3
20776245972830,0.16749759,8.781659,4.331009,3
20776248351788,0.062213387,8.829515,4.23051,3
20776250730747,-0.076570325,8.930014,4.249653,3
20776253109705,-0.17706887,8.963513,4.398008,3
20776255488715,-0.33020952,8.949157,4.6037908,3
20776257867674,-0.51206404,8.977871,4.7425747,3
20776260246684,-0.6412765,9.01137,4.7282176,3
20776262625642,-0.7465607,9.006584,4.5559344,3
20776265004601,-0.8566305,9.025727,4.359723,3
20776267383611,-0.91884387,9.016156,4.2687955,3
20776269762570,-0.9284152,9.001799,4.3070807,3
20776272141528,-0.9619147,8.963513,4.4315076,3
20776274520538,-0.91884387,8.915657,4.5320063,3
20776276899497,-0.83748794,8.886943,4.56072,3
20776279278455,-0.7704889,8.85823,4.465007,3
20776281657465,-0.6364908,8.848659,4.321438,3
20776284036424,-0.4881358,8.839087,4.206582,3
20776286415382,-0.37328035,8.810373,4.2017965,3
20776288794392,-0.24885355,8.786445,4.2687955,3
20776291173351,-0.14356937,8.772088,4.3501515,3
20776293552309,-0.10049855,8.796016,4.3740797,3
20776295931320,-0.043070808,8.819944,4.2975097,3
20776298310278,-0.0047856453,8.819944,4.1491547,3
20776300689236,-0.023928227,8.896515,4.0295134,3
20776303068247,-0.009571291,8.920443,3.9720855,3
20776305447205,-0.062213387,8.915657,3.9720855,3
20776307826215,-0.13878371,8.872586,4.0103707,3
20776310205174,-0.23928227,8.829515,4.005585,3
20776312584132,-0.33499518,8.776874,3.9625144,3
20776314963090,-0.4642076,8.834301,3.9720855,3
20776317342101,-0.56470615,8.987442,3.991228,3
20776319721059,-0.6652047,9.111869,3.9290147,3
20776322100070,-0.8039884,9.135797,3.804588,3
20776324479028,-0.8422736,9.083155,3.7710886,3
20776326857986,-0.8853444,9.001799,3.8572302,3
20776329236997,-0.98584294,8.896515,4.0438704,3
20776331615955,-1.0049855,8.872586,4.23051,3
20776333994913,-0.9619147,8.867801,4.316652,3
20776336373924,-0.9762716,8.886943,4.273581,3
20776338752882,-0.9619147,8.896515,4.1778684,3
20776341131840,-0.89491564,8.891729,4.115655,3
20776343510851,-0.85184485,8.891729,4.1347976,3
20776345889809,-0.7704889,8.877372,4.2017965,3
20776348268820,-0.6891329,8.848659,4.26401,3
20776350647778,-0.6987042,8.834301,4.254439,3
20776353026736,-0.6843473,8.848659,4.2017965,3
20776355405695,-0.66999036,8.839087,4.168297,3
20776357784705,-0.6843473,8.810373,4.206582,3
20776360163663,-0.74177504,8.796016,4.2927237,3
20776362542674,-0.8135597,8.805588,4.421936,3
20776364921580,-0.8662018,8.805588,4.5320063,3
20776367300590,-0.9236295,8.839087,4.5655055,3
20776369679601,-0.95712906,8.877372,4.4602213,3
20776372058559,-0.9762716,8.9013,4.3501515,3
20776374437517,-0.971486,8.886943,4.2448673,3
20776376816528,-0.95712906,8.872586,4.2975097,3
20776379195486,-0.91884387,8.853444,4.3836513,3
20776381574445,-0.91405827,8.872586,4.402794,3
20776383953455,-0.90448695,8.953942,4.4410787,3
20776386332413,-0.89013004,8.977871,4.536792,3
20776388711372,-0.7800602,8.944371,4.45065,3
20776391090382,-0.7704889,9.016156,4.206582,3
20776393469340,-0.70348984,9.073584,4.0151563,3
20776395848299,-0.6125626,9.025727,3.9673,3
20776398227309,-0.55034924,8.9826565,4.0965123,3
20776400606267,-0.4977071,8.973084,4.273581,3
20776402985226,-0.43070808,8.920443,4.3645086,3
20776405364236,-0.38763726,8.882157,4.2975097,3
20776407743195,-0.39720857,8.872586,4.1443686,3
20776410122153,-0.3684947,8.853444,4.0151563,3
20776412501163,-0.37328035,8.82473,3.9625144,3
20776414880122,-0.41635114,8.805588,4.0295134,3
20776417259132,-0.44506502,8.776874,4.130012,3
20776419638090,-0.4881358,8.752945,4.1635113,3
20776422017049,-0.526421,8.800801,4.130012,3
20776424396007,-0.57906306,8.886943,4.034299,3
20776426775017,-0.6269195,8.939586,3.9481573,3
20776429153976,-0.6891329,8.997013,3.8955152,3
20776431532986,-0.7465607,9.016156,3.9577286,3
20776433911945,-0.82313097,9.006584,4.1108694,3
20776436290903,-0.91884387,8.992228,4.2687955,3
20776438669913,-1.0289137,9.020942,4.3836513,3
20776441048872,-1.0863415,9.025727,4.3836513,3
20776443427830,-1.1246266,9.006584,4.3262234,3
20776445806840,-1.2107682,9.001799,4.2927237,3
20776448185799,-1.2251252,9.01137,4.316652,3
20776450564757,-1.253839,9.001799,4.359723,3
20776452943767,-1.2634103,8.968299,4.4410787,3
20776455322726,-1.253839,8.968299,4.4554358,3
20776457701684,-1.2011969,8.939586,4.402794,3
20776460080695,-1.1294123,8.9348,4.2975097,3
20776462459653,-1.105484,8.915657,4.220939,3
20776464838611,-1.0145568,8.9108715,4.2017965,3
20776467217622,-0.8997013,8.882157,4.23051,3
20776469596580,-0.8039884,8.882157,4.316652,3
20776471975538,-0.7178468,8.85823,4.359723,3
20776474354549,-0.64606214,8.886943,4.3405805,3
20776476733507,-0.53599226,8.891729,4.278367,3
20776479112465,-0.4642076,8.930014,4.173083,3
20776481491476,-0.41156548,8.963513,4.1204405,3
20776483870434,-0.36370903,8.939586,4.1108694,3
20776486249445,-0.3397808,8.9348,4.1443686,3
20776488628403,-0.31106696,8.930014,4.1874394,3
20776491007361,-0.30149564,8.953942,4.220939,3
20776493386372,-0.3397808,8.953942,4.23051,3
20776495765330,-0.4019942,8.953942,4.182654,3
20776498144288,-0.4546363,8.949157,4.091727,3
20776500523299,-0.51206404,8.939586,4.019942,3
20776502902257,-0.56470615,8.9108715,3.9960139,3
20776505281215,-0.6364908,8.886943,4.058227,3
20776507660226,-0.6891329,8.867801,4.173083,3
20776510039184,-0.7082755,8.815159,4.240082,3
20776512418142,-0.76570326,8.810373,4.1635113,3
20776514797153,-0.8039884,8.839087,4.0438704,3
20776517176111,-0.7896315,8.819944,4.005585,3
20776519555070,-0.7704889,8.82473,4.019942,3
20776521934080,-0.76570326,8.834301,4.106084,3
20776524313038,-0.72741807,8.839087,4.1778684,3
20776526691997,-0.6891329,8.863015,4.106084,3
20776529071007,-0.6652047,8.939586,3.952943,3
20776531449965,-0.5982057,8.953942,3.8093736,3
20776533828976,-0.56470615,8.944371,3.7758741,3
20776536207934,-0.5407779,8.963513,3.8907297,3
20776538586892,-0.51206404,8.973084,4.082155,3
20776540965903,-0.47856453,8.9108715,4.15394,3
20776543344861,-0.47377887,8.958728,4.0965123,3
20776545723820,-0.47377887,9.040084,3.9338005,3
20776548102830,-0.44985065,9.025727,3.8237305,3
20776550481788,-0.43070808,9.044869,3.7854455,3
20776552860747,-0.43070808,9.040084,3.8620157,3
20776555239757,-0.44985065,9.020942,4.0103707,3
20776557618715,-0.44506502,8.977871,4.15394,3
20776559997674,-0.4546363,8.9826565,4.316652,3
20776562376684,-0.4546363,8.939586,4.398008,3
20776564755642,-0.4642076,8.939586,4.3501515,3
20776567134601,-0.44027936,8.973084,4.2352962,3
20776569513611,-0.4211368,9.001799,4.139583,3
20776571892570,-0.41156548,8.9826565,4.182654,3
20776574271528,-0.41635114,8.973084,4.3405805,3
20776576650538,-0.42592242,8.973084,4.4985065,3
20776579029497,-0.41635114,8.973084,4.551149,3
20776581408403,-0.4211368,8.973084,4.4315076,3
20776583787465,-0.41156548,9.01137,4.2448673,3
20776586166424,-0.38285163,9.044869,4.15394,3
20776588545382,-0.3924229,9.01137,4.1922255,3
20776590924392,-0.42592242,8.968299,4.3740797,3
20776593303351,-0.43070808,8.930014,4.6372905,3
20776595682361,-0.40677986,8.891729,4.699504,3
20776598061320,-0.4211368,8.9108715,4.599005,3
20776600440278,-0.4211368,8.963513,4.388437,3
20776602819288,-0.40677986,8.977871,4.197011,3
20776605198247,-0.37328035,8.963513,4.0965123,3
20776607577205,-0.38285163,8.953942,4.1922255,3
20776609956215,-0.35413775,8.891729,4.359723,3
20776612335174,-0.35413775,8.829515,4.465007,3
20776614714132,-0.3684947,8.819944,4.4602213,3
20776617093142,-0.3062813,8.805588,4.3118663,3
20776619472101,-0.30149564,8.796016,4.0869412,3
20776621851059,-0.2632105,8.819944,3.9960139,3
20776624230070,-0.22492532,8.772088,4.034299,3
20776626609028,-0.18664017,8.738588,4.115655,3
20776628987986,-0.19621146,8.776874,4.1635113,3
20776631366997,-0.13399807,8.829515,4.130012,3
20776633745955,-0.08135597,8.863015,4.005585,3
20776636124913,-0.08135597,8.896515,3.9098723,3
20776638503924,-0.043070808,8.968299,3.8763726,3
20776640882882,-0.019142581,8.949157,3.900301,3
20776643261840,-0.047856454,8.853444,4.0965123,3
20776645640851,0.014356935,8.829515,4.3357944,3
20776648019809,0.047856454,8.815159,4.388437,3
20776650398820,0.038285162,8.9108715,4.197011,3
20776652777778,0.033499517,8.963513,3.9768713,3
20776655156736,0.08135597,8.863015,3.8811584,3
20776657535747,0.08135597,8.82473,4.0103707,3
20776659914705,0.062213387,8.85823,4.2927237,3
20776662293663,0.0526421,8.891729,4.45065,3
20776664672674,-0.019142581,8.939586,4.3836513,3
20776667051632,-0.05742774,8.997013,4.1778684,3
20776669430590,-0.124426775,9.049655,3.9577286,3
20776671809549,-0.18664017,9.064013,3.9146578,3
20776674188559,-0.2727818,9.059227,4.063013,3
20776676567517,-0.38763726,9.044869,4.3405805,3
20776678946528,-0.5072784,9.049655,4.5272202,3
20776681325486,-0.6221339,9.097511,4.508078,3
20776683704445,-0.7322037,9.135797,4.3645086,3
20776686083455,-0.7800602,9.12144,4.1874394,3
20776688462361,-0.7848458,9.150154,4.1635113,3
20776690841320,-0.8327023,9.111869,4.240082,3
20776693220382,-0.8757731,9.064013,4.398008,3
20776695599340,-0.8853444,8.997013,4.5320063,3
20776697978299,-0.8709874,8.944371,4.5942197,3
20776700357309,-0.8135597,8.930014,4.493721,3
20776702736267,-0.74177504,8.930014,4.3070807,3
20776705115278,-0.70348984,8.949157,4.1778684,3
20776707494236,-0.59342,8.867801,4.115655,3
20776709873195,-0.52163535,8.867801,4.173083,3
20776712252205,-0.44985065,8.843872,4.2975097,3
20776714631163,-0.37806597,8.781659,4.3645086,3
20776717010122,-0.32063824,8.796016,4.354937,3
20776719389132,-0.2727818,8.867801,4.206582,3
20776721768090,-0.24885355,8.9013,3.952943,3
20776724147049,-0.23449662,8.949157,3.8141594,3
20776726526059,-0.26799613,8.9348,3.8524444,3
20776728905017,-0.32542387,8.925228,4.048656,3
20776731283976,-0.33020952,8.9108715,4.206582,3
20776733662986,-0.3924229,8.9108715,4.2687955,3
20776736041945,-0.41635114,8.930014,4.1874394,3
20776738420903,-0.42592242,8.9108715,3.900301,3
20776740799913,-0.5072784,8.925228,3.6801612,3
20776743178872,-0.5072784,8.886943,3.6801612,3
20776745557830,-0.56470615,8.819944,3.9098723,3
20776747936840,-0.6269195,8.752945,4.1347976,3
20776750315799,-0.72263247,8.786445,4.2352962,3
20776752694757,-0.74177504,8.843872,4.101298,3
20776755073767,-0.7369894,8.886943,3.8476589,3
20776757452726,-0.7609176,8.925228,3.6993039,3
20776759831736,-0.72741807,8.9108715,3.7663028,3
20776762210695,-0.6939186,8.834301,4.072584,3
20776764589653,-0.64606214,8.7577305,4.4315076,3
20776766968663,-0.57906306,8.776874,4.651647,3
20776769347622,-0.47377887,8.810373,4.570291,3
20776771726580,-0.4019942,8.886943,4.249653,3
20776774105590,-0.33499518,8.973084,3.9481573,3
20776776484549,-0.22971097,8.963513,3.885944,3
20776778863507,-0.2009971,8.930014,4.0773697,3
20776781242517,-0.148355,8.877372,4.369294,3
20776783621476,-0.1052842,8.872586,4.5655055,3
20776786000434,-0.06699903,8.877372,4.469793,3
20776788379445,-0.062213387,8.915657,4.197011,3
20776790758403,-0.02871387,8.925228,3.9577286,3
20776793137361,0.0047856453,8.891729,3.9050865,3
20776795516372,-0.033499517,8.853444,4.125226,3
20776797895330,-0.086141616,8.853444,4.388437,3
20776800274288,-0.13878371,8.863015,4.4889355,3
20776802653299,-0.20578274,8.872586,4.321438,3
20776805032257,-0.2727818,8.9013,4.0534415,3
20776807411215,-0.29671,8.9108715,3.8763726,3
20776809790226,-0.32542387,8.920443,3.885944,3
20776812169184,-0.3924229,8.886943,4.063013,3
20776814548195,-0.4019942,8.85823,4.273581,3
20776816927153,-0.43070808,8.839087,4.4075794,3
20776819306111,-0.43070808,8.872586,4.354937,3
20776821685122,-0.3924229,8.953942,4.173083,3
20776824064080,-0.33020952,9.016156,3.9768713,3
20776826443038,-0.2536392,9.030513,3.8811584,3
20776828822049,-0.18185452,9.006584,3.9673,3
20776831200955,-0.124426775,8.958728,4.2017965,3
20776833579965,-0.062213387,8.925228,4.4171505,3
20776835958976,-0.033499517,8.920443,4.4602213,3
20776838337934,0.038285162,8.920443,4.331009,3
20776840716892,0.086141616,8.939586,4.1778684,3
20776843095903,0.124426775,8.968299,4.1108694,3
20776845474861,0.15314065,8.963513,4.206582,3
20776847853820,0.14356937,8.9348,4.354937,3
20776850232830,0.124426775,8.925228,4.4889355,3
20776852611788,0.10049855,8.920443,4.503292,3
20776854990747,0.10049855,8.939586,4.388437,3
20776857369757,0.07178468,8.968299,4.1874394,3
20776859748715,0.014356935,8.968299,4.0677986,3
20776862127726,-0.033499517,8.920443,4.125226,3
20776864506684,-0.033499517,8.877372,4.2831526,3
20776866885642,-0.09092726,8.886943,4.4458647,3
20776869264653,-0.11964113,8.920443,4.4745784,3
20776871643611,-0.11964113,8.930014,4.316652,3
20776874022570,-0.10049855,8.930014,4.115655,3
20776876401580,-0.05742774,8.9348,4.019942,3
20776878780538,0.009571291,8.930014,4.058227,3
20776881159497,0.038285162,8.953942,4.240082,3
20776883538507,0.11964113,8.891729,4.2975097,3
20776885917465,0.148355,8.9108715,4.402794,3
20776888296424,0.14356937,8.953942,4.369294,3
20776890675434,0.148355,8.9108715,4.173083,3
20776893054392,0.16271193,8.939586,4.130012,3
20776895433351,0.09571291,8.920443,4.1347976,3
20776897812361,-0.019142581,8.915657,4.23051,3
20776900191320,-0.06699903,8.963513,4.45065,3
20776902570278,-0.11006984,8.944371,4.5894337,3
20776904949288,-0.2009971,8.9348,4.508078,3
20776907328247,-0.2440679,8.958728,4.3645086,3
20776909707205,-0.23928227,8.977871,4.197011,3
20776912086215,-0.22971097,8.9826565,4.091727,3
20776914465174,-0.16271193,8.9108715,4.0869412,3
20776916844184,-0.02871387,8.896515,4.316652,3
20776919223142,-0.033499517,8.705089,4.398008,3
20776921602101,0.038285162,8.595019,4.3357944,3
20776923981059,0.2632105,8.705089,4.2592244,3
20776926360070,0.41635114,8.705089,4.125226,3
20776928739028,0.42592242,8.633304,4.0534415,3
20776931118038,0.53599226,8.671589,4.130012,3
20776933496997,0.6412765,8.82473,4.3118663,3
20776935875955,0.5838487,8.810373,4.402794,3
20776938254913,0.47856453,8.834301,4.421936,3
20776940633924,0.4833502,8.939586,4.316652,3
20776943012882,0.41156548,9.064013,4.1587257,3
20776945391892,0.148355,9.073584,4.0438704,3
20776947770851,-0.09571291,9.092726,4.0390844,3
20776950149861,-0.2105684,9.15494,4.082155,3
20776952528820,-0.41635114,9.150154,4.173083,3
20776954907778,-0.6843473,9.08794,4.240082,3
20776957286736,-0.8805587,9.135797,4.211368,3
20776959665747,-1.0049855,9.183653,4.1587257,3
20776962044705,-1.1485549,9.169296,4.0869412,3
20776964423663,-1.282553,9.116654,4.091727,3
20776966802674,-1.3304094,9.097511,4.1778684,3
20776969181632,-1.3112668,9.083155,4.3118663,3
20776971560642,-1.268196,9.044869,4.3836513,3
20776973939601,-1.1772687,9.006584,4.369294,3
20776976318559,-1.0049855,8.987442,4.302295,3
20776978697570,-0.7752745,9.020942,4.211368,3
20776981076528,-0.5694918,9.020942,4.1922255,3
20776983455486,-0.38763726,9.01137,4.197011,3
20776985834497,-0.17228323,8.992228,4.23051,3
20776988213455,0.05742774,8.997013,4.240082,3
20776990592465,0.22013968,8.977871,4.2352962,3
20776992971424,0.3493521,8.949157,4.197011,3
20776995350382,0.47377887,8.992228,4.1347976,3
20776997729340,0.5312066,9.01137,4.0965123,3
20777000108351,0.51206404,9.001799,4.0965123,3
20777002487309,0.4354937,8.968299,4.139583,3
20777004866320,0.3397808,8.949157,4.182654,3
20777007245278,0.148355,8.920443,4.2161536,3
20777009624236,-0.062213387,8.867801,4.2017965,3
20777012003247,-0.23928227,8.829515,4.1922255,3
20777014382205,-0.41635114,8.82473,4.1778684,3
20777016761163,-0.55513483,8.805588,4.168297,3
20777019140174,-0.7082755,8.762517,4.1778684,3
20777021519132,-0.81834537,8.743374,4.206582,3
20777023898090,-0.8805587,8.762517,4.2352962,3
20777026277101,-0.90448695,8.729017,4.2448673,3
20777028656059,-0.89013004,8.709874,4.2017965,3
20777031035017,-0.79441714,8.724232,4.1635113,3
20777033414028,-0.6364908,8.752945,4.1587257,3
20777035792986,-0.4546363,8.724232,4.125226,3
20777038171945,-0.29192436,8.719446,4.130012,3
20777040550955,-0.07178468,8.743374,4.130012,3
20777042929913,0.15792629,8.762517,4.1108694,3
20777045308924,0.38763726,8.7673025,4.0869412,3
20777047687882,0.55513483,8.748159,4.0534415,3
20777050066840,0.70348984,8.7577305,4.0534415,3
20777052445851,0.79920274,8.7577305,4.058227,3
20777054824809,0.7848458,8.772088,4.0773697,3
20777057203767,0.7609176,8.7673025,4.101298,3
20777059582778,0.6939186,8.815159,4.130012,3
20777061961736,0.55034924,8.853444,4.15394,3
20777064340695,0.37328035,8.867801,4.1874394,3
20777066719705,0.17706887,8.877372,4.2161536,3
20777069098663,-0.0047856453,8.9013,4.23051,3
20777071477622,-0.17228323,8.925228,4.254439,3
20777073856632,-0.35413775,8.9348,4.26401,3
20777076235590,-0.46899325,8.9826565,4.273581,3
20777078614549,-0.5455636,9.020942,4.2927237,3
20777080993559,-0.61734825,9.040084,4.302295,3
20777083372517,-0.65084773,9.030513,4.2975097,3
20777085751476,-0.6269195,9.059227,4.3118663,3
20777088130486,-0.55513483,9.068798,4.321438,3
20777090509445,-0.44506502,9.0544405,4.316652,3
20777092888455,-0.31585258,9.049655,4.287938,3
20777095267413,-0.17706887,9.0544405,4.2687955,3
20777097646372,-0.009571291,9.030513,4.249653,3
20777100025382,0.13399807,9.049655,4.2257247,3
20777102404340,0.25842485,9.049655,4.2161536,3
20777104783299,0.3589234,9.030513,4.2017965,3
20777107162309,0.43070808,9.020942,4.182654,3
20777109541267,0.4833502,9.006584,4.1443686,3
20777111920226,0.4881358,8.992228,4.139583,3
20777114299236,0.526421,8.9108715,4.0965123,3
20777116678195,0.07178468,8.6141615,4.082155,3
20777119057153,-0.086141616,8.958728,4.5798626,3
20777121436163,0.4881358,9.513863,4.627719,3
20777123815122,0.42592242,8.939586,3.818945,3
20777126194080,-0.47856453,8.977871,3.938586,3
20777128573090,-0.3589234,9.126225,3.656233,3
20777130952049,-0.086141616,9.437292,3.8333018,3
20777133331007,-0.5886344,9.044869,4.3357944,3
20777135709965,-0.72263247,8.322237,4.4458647,3
20777138088976,-0.6412765,8.676374,4.694718,3
20777140467986,-0.85184485,8.949157,4.6325045,3
20777142846840,-0.80877405,8.796016,4.2592244,3
20777145225903,-0.3589234,8.733803,4.024728,3
20777147604913,-0.11006984,8.877372,4.125226,3
20777149983872,0.05742774,8.863015,4.2161536,3
20777152362830,0.41635114,9.068798,4.4075794,3
20777154741840,0.46899325,9.202796,4.402794,3
20777157120799,0.3397808,8.968299,4.2352962,3
20777159499757,0.41156548,8.786445,4.048656,3
20777161878767,0.047856454,8.958728,4.1491547,3
20777164257726,-0.023928227,9.092726,4.278367,3
20777166636684,0.047856454,8.872586,4.273581,3
20777169015695,0.2009971,8.810373,4.3836513,3
20777171394653,0.09092726,8.930014,4.3501515,3
20777173773611,0.17228323,8.997013,3.9864426,3
20777176152622,-0.019142581,9.164511,3.871587,3
20777178531580,-0.49292147,9.102298,3.804588,3
20777180910590,-0.5982057,8.815159,3.8141594,3
20777183289549,-0.6269195,8.867801,4.2352962,3
20777185668507,-0.9236295,8.800801,4.551149,3
20777188047517,-1.2729816,8.63809,4.723432,3
20777190426476,-1.2059826,8.685946,4.833502,3
20777192805434,-0.9810573,8.71466,4.5894337,3
20777195184445,-0.72263247,8.829515,4.321438,3
20777197563403,-0.3684947,8.906086,4.082155,3
20777199942361,-0.17706887,9.044869,4.1347976,3
20777202321372,0.31585258,9.116654,4.1347976,3
20777204700330,0.8709874,9.068798,4.2017965,3
20777207079288,1.1485549,8.872586,4.3645086,3
20777209458247,1.2059826,8.748159,4.345366,3
20777211837257,1.6462619,9.020942,4.2687955,3
20777214216215,2.617748,9.135797,4.1778684,3
20777216595226,1.7611175,8.657232,4.0295134,3
20777218974184,1.4404793,8.403593,3.7854455,3
20777221353142,1.9477576,8.915657,3.6753755,3
20777223732153,1.3639089,8.920443,3.7423747,3
20777226111111,0.56470615,8.30788,3.656233,3
20777228490122,0.5838487,8.350951,3.6179478,3
20777230869080,0.74177504,9.073584,4.034299,3
20777233248038,-0.16749759,8.729017,3.885944,3
20777235627049,-0.7704889,8.480164,3.818945,3
20777238006007,-0.5024927,8.9013,4.0103707,3
20777240384965,-0.72741807,9.102298,4.101298,3
20777242763976,-1.1581261,8.762517,4.0534415,3
20777245142934,-1.3351951,8.829515,4.2448673,3
20777247521892,-1.1916257,9.092726,4.354937,3
20777249900903,-1.4356936,9.030513,4.23051,3
20777252279861,-1.3304094,8.920443,4.1491547,3
20777254658820,-1.0815558,9.068798,4.2017965,3
20777257037830,-0.9379865,9.092726,4.168297,3
20777259416788,-0.63170516,8.987442,4.1108694,3
20777261795747,-0.16749759,9.001799,4.1874394,3
20777264174757,0.086141616,9.01137,4.2448673,3
20777266553715,0.38763726,8.930014,4.220939,3
20777268932726,0.85184485,8.958728,4.197011,3
20777271311684,1.0815558,9.040084,4.1874394,3
20777273690642,1.1581261,8.963513,4.168297,3
20777276069653,1.3016955,8.963513,4.211368,3
20777278448611,1.3926228,9.078369,4.287938,3
20777280827570,1.1006985,9.035298,4.2975097,3
20777283206580,0.81834537,9.016156,4.2831526,3
20777285585538,0.70348984,9.126225,4.3118663,3
20777287964445,0.42592242,9.217153,4.302295,3
20777290343507,0.038285162,9.12144,4.2927237,3
20777292722465,-0.16271193,9.126225,4.345366,3
20777295101424,-0.33020952,9.265009,4.4410787,3
20777297480434,-0.57427746,9.236296,4.4458647,3
20777299859392,-0.7800602,9.159725,4.4554358,3
20777302238403,-0.7752745,9.19801,4.4554358,3
20777304617361,-0.7848458,9.284152,4.4410787,3
20777306996320,-0.8135597,9.202796,4.412365,3
20777309375278,-0.7178468,9.164511,4.359723,3
20777311754288,-0.5312066,9.193225,4.3740797,3
20777314133247,-0.3397808,9.150154,4.3836513,3
20777316512257,-0.07178468,9.0544405,4.354937,3
20777318891215,0.23449662,9.044869,4.3645086,3
20777321270174,0.5024927,9.01137,4.2831526,3
20777323649184,0.7848458,8.939586,4.197011,3
20777326028142,1.0624132,8.9108715,4.168297,3
20777328407101,1.2299109,8.872586,4.1922255,3
20777330786111,1.282553,8.82473,4.211368,3
20777333165070,1.3734802,8.810373,4.240082,3
20777335544028,1.3591232,8.82473,4.220939,3
20777337923038,1.2155539,8.810373,4.125226,3
20777340301997,1.0719845,8.829515,4.0773697,3
20777342680955,0.8566305,8.9108715,4.0773697,3
20777345059965,0.5886344,8.906086,4.058227,3
20777347438924,0.29192436,8.930014,4.106084,3
20777349817934,0.13878371,8.958728,4.125226,3
20777352196892,-0.014356935,9.006584,4.0965123,3
20777354575851,-0.18185452,9.001799,4.072584,3
20777356954861,-0.25842485,8.992228,4.0438704,3
20777359333820,-0.2632105,9.025727,4.005585,3
20777361712778,-0.3062813,9.030513,3.938586,3
20777364091788,-0.2727818,8.963513,3.9050865,3
20777366470747,-0.15314065,8.963513,3.8763726,3
20777368849757,0.014356935,8.953942,3.8620157,3
20777371228715,0.05742774,8.915657,3.8333018,3
20777373607674,0.22013968,8.829515,3.7710886,3
20777375986736,0.37806597,8.877372,3.7567315,3
20777378365642,0.43070808,8.848659,3.7423747,3
20777380744601,0.4642076,8.7673025,3.751946,3
20777383123559,0.55034924,8.786445,3.804588,3
20777385502570,0.53599226,8.839087,3.8907297,3
20777387881528,0.41156548,8.800801,3.952943,3
20777390260486,0.3589234,8.815159,4.0007997,3
20777392639497,0.22971097,8.863015,4.048656,3
20777395018455,0.019142581,8.872586,4.115655,3
20777397397465,-0.13878371,8.85823,4.197011,3
20777399776424,-0.25842485,8.939586,4.26401,3
20777402155382,-0.38285163,8.949157,4.2448673,3
20777404534392,-0.49292147,8.9013,4.23051,3
20777406913351,-0.59342,8.920443,4.249653,3
20777409292309,-0.64606214,8.9826565,4.273581,3
20777411671320,-0.6795616,8.9348,4.287938,3
20777414050278,-0.6364908,8.886943,4.316652,3
20777416429236,-0.55513483,8.930014,4.345366,3
20777418808247,-0.4642076,8.949157,4.331009,3
20777421187205,-0.35413775,8.886943,4.331009,3
20777423566163,-0.19142582,8.85823,4.3357944,3
20777425945174,-0.033499517,8.896515,4.354937,3
20777428324132,0.09571291,8.863015,4.3405805,3
20777430703090,0.22971097,8.834301,4.3405805,3
20777433082101,0.3397808,8.863015,4.331009,3
20777435461059,0.37806597,8.872586,4.3262234,3
20777437840070,0.3589234,8.834301,4.2831526,3
20777440219028,0.35413775,8.877372,4.273581,3
20777442597986,0.27756742,8.891729,4.287938,3
20777444976997,0.13878371,8.867801,4.316652,3
20777447355903,-0.014356935,8.877372,4.359723,3
20777449734913,-0.124426775,8.896515,4.3788652,3
20777452113924,-0.2440679,8.9013,4.3501515,3
20777454492882,-0.38763726,8.9013,4.321438,3
20777456871840,-0.53599226,8.920443,4.302295,3
20777459250851,-0.6221339,8.9348,4.287938,3
20777461629809,-0.66999036,8.953942,4.2975097,3
20777464008715,-0.6987042,8.963513,4.316652,3
20777466387778,-0.7082755,8.977871,4.3070807,3
20777468766736,-0.6939186,8.977871,4.2687955,3
20777471145695,-0.57906306,9.006584,4.240082,3
20777473524705,-0.47377887,9.016156,4.1778684,3
20777475903663,-0.33020952,9.001799,4.1874394,3
20777478282674,-0.13878371,9.016156,4.2017965,3
20777480661632,0.076570325,9.006584,4.211368,3
20777483040590,0.2440679,9.001799,4.220939,3
20777485419601,0.44027936,8.9826565,4.182654,3
20777487798559,0.61734825,8.977871,4.130012,3
20777490177517,0.72741807,8.968299,4.082155,3
20777492556528,0.79920274,8.963513,4.048656,3
20777494935486,0.82313097,8.9826565,4.0773697,3
20777497314445,0.8039884,8.973084,4.101298,3
20777499693455,0.67477596,8.973084,4.139583,3
20777502072413,0.5072784,8.9826565,4.1443686,3
20777504451372,0.3493521,9.030513,4.130012,3
20777506830382,0.15314065,9.073584,4.1204405,3
20777509209340,-0.047856454,9.092726,4.139583,3
20777511588351,-0.2009971,9.107083,4.168297,3
20777513967309,-0.30149564,9.107083,4.211368,3
20777516346267,-0.4354937,9.126225,4.2975097,3
20777518725278,-0.5168497,9.092726,4.3118663,3
20777521104236,-0.52163535,9.083155,4.2927237,3
20777523483195,-0.51206404,9.064013,4.26401,3
20777525862205,-0.44985065,9.01137,4.23051,3
20777528241163,-0.3684947,8.939586,4.2257247,3
20777530620122,-0.23449662,8.9013,4.26401,3
20777532999132,-0.06699903,8.877372,4.278367,3
20777535378090,0.08135597,8.819944,4.2927237,3
20777537757101,0.24885355,8.781659,4.287938,3
20777540136059,0.41635114,8.776874,4.287938,3
20777542515017,0.53599226,8.743374,4.2831526,3
20777544894028,0.6364908,8.705089,4.302295,3
20777547272986,0.6843473,8.681161,4.3262234,3
20777549651945,0.6987042,8.662018,4.3405805,3
20777552030903,0.65084773,8.642876,4.331009,3
20777554409913,0.56470615,8.671589,4.388437,3
20777556788872,0.526421,8.63809,4.3357944,3
20777559167882,0.35413775,8.623733,4.287938,3
20777561546840,0.2105684,8.695518,4.302295,3
20777563925799,-0.014356935,8.724232,4.2927237,3
20777566304809,-0.26799613,8.7577305,4.3788652,3
20777568683767,-0.4881358,8.805588,4.465007,3
20777571062726,-0.67477596,8.906086,4.5320063,3
20777573441736,-0.8709874,9.016156,4.5320063,3
20777575820695,-1.0001999,9.111869,4.4458647,3
20777578199653,-1.0097711,9.217153,4.354937,3
20777580578663,-1.0576276,9.303294,4.3070807,3
20777582957622,-0.9954142,9.375079,4.287938,3
20777585336632,-0.8662018,9.470792,4.278367,3
20777587715590,-0.6987042,9.533006,4.23051,3
20777590094549,-0.51206404,9.533006,4.115655,3
20777592473559,-0.32063824,9.537791,4.024728,3
20777594852517,-0.11006984,9.561719,3.9625144,3
20777597231424,0.13399807,9.466006,3.8763726,3
20777599610486,0.38285163,9.408579,3.8524444,3
20777601989445,0.6029913,9.332008,3.8572302,3
20777604368403,0.7896315,9.23151,3.8524444,3
20777606747413,0.9619147,9.135797,3.8093736,3
20777609126372,1.0719845,9.083155,3.7423747,3
20777611505382,1.134198,9.030513,3.6801612,3
20777613884340,1.1533405,8.9826565,3.6323047,3
20777616263299,1.1102697,8.963513,3.603591,3
20777618642309,0.9954142,8.930014,3.6083765,3
20777621021267,0.8662018,8.863015,3.6323047,3
20777623400226,0.6891329,8.819944,3.6753755,3
20777625779236,0.5024927,8.848659,3.7567315,3
20777628158195,0.32063824,8.815159,3.7328033,3
20777630537153,0.11964113,8.829515,3.7423747,3
20777632916163,-0.09092726,8.815159,3.7854455,3
20777635295122,-0.22971097,8.877372,3.8476589,3
20777637674080,-0.3493521,8.949157,4.005585,3
20777640053090,-0.41635114,8.848659,4.106084,3
20777642432049,-0.4211368,8.867801,4.2257247,3
20777644811007,-0.29671,8.9108715,4.211368,3
20777647190017,-0.124426775,8.930014,4.168297,3
20777649568976,0.062213387,8.863015,4.130012,3
20777651947934,0.27756742,8.781659,4.1778684,3
20777654326945,0.52163535,8.729017,4.278367,3
20777656705903,0.6987042,8.662018,4.3788652,3
20777659084913,0.8997013,8.647661,4.4410787,3
20777661463872,1.0336994,8.6141615,4.4315076,3
20777663842830,1.105484,8.556734,4.426722,3
20777666221840,1.1150553,8.508878,4.4315076,3
20777668600799,1.119841,8.504091,4.4841495,3
20777670979757,1.0911272,8.518449,4.551149,3
20777673358767,1.0049855,8.489735,4.6037908,3
20777675737726,0.9092726,8.532805,4.6085763,3
20777678116684,0.79920274,8.595019,4.613362,3
20777680495695,0.6891329,8.63809,4.599005,3
20777682874653,0.61734825,8.71466,4.575077,3
20777685253611,0.57906306,8.800801,4.5415773,3
20777687632622,0.57427746,8.834301,4.5320063,3
20777690011528,0.59342,8.886943,4.517649,3
20777692390590,0.66999036,8.9348,4.5272202,3
20777694769549,0.7513463,8.9826565,4.517649,3
20777697148507,0.8853444,8.997013,4.479364,3
20777699527517,1.0671989,8.987442,4.4315076,3
20777701906476,1.253839,9.020942,4.3645086,3
20777704285434,1.3830515,8.987442,4.321438,3
20777706664445,1.5361922,8.992228,4.3262234,3
20777709043403,1.7228323,8.958728,4.388437,3
20777711422361,1.847259,8.939586,4.45065,3
20777713801372,1.9525433,8.953942,4.4458647,3
20777716180330,2.0865414,9.006584,4.369294,3
20777718559288,2.1391835,9.044869,4.2687955,3
20777720938299,2.1631117,9.083155,4.206582,3
20777723317257,2.1822543,9.126225,4.197011,3
20777725696267,2.1391835,9.15494,4.240082,3
20777728075226,2.0003998,9.174082,4.254439,3
20777730454184,1.9286151,9.226724,4.1874394,3
20777732833195,1.8041883,9.317652,4.1443686,3
20777735212153,1.6271194,9.341579,4.082155,3
20777737591111,1.4452649,9.322437,4.024728,3
20777739970122,1.3256238,9.375079,4.072584,3
20777742349080,1.18684,9.379865,4.1204405,3
20777744728038,1.0241281,9.379865,4.1874394,3
20777747107049,0.94755775,9.360723,4.206582,3
20777749486007,0.8997013,9.355937,4.211368,3
20777751864965,0.81834537,9.327223,4.168297,3
20777754243976,0.76570326,9.293723,4.15394,3
20777756622934,0.7848458,9.30808,4.1587257,3
20777759001945,0.82313097,9.2793665,4.173083,3
20777761380903,0.83748794,9.250652,4.2017965,3
20777763759861,0.9236295,9.23151,4.1778684,3
20777766138872,0.9906286,9.226724,4.173083,3
20777768517830,1.052842,9.178867,4.125226,3
20777770896788,1.0959128,9.150154,4.0965123,3
20777773275799,1.18684,9.102298,4.082155,3
20777775654757,1.2203395,9.102298,4.0965123,3
20777778033715,1.2346965,9.059227,4.091727,3
20777780412726,1.2634103,9.035298,4.1108694,3
20777782791684,1.2729816,9.006584,4.0869412,3
20777785170642,1.253839,8.973084,4.019942,3
20777787549653,1.2107682,8.973084,3.9960139,3
20777789928611,1.2011969,8.920443,3.9577286,3
20777792307570,1.1676974,8.886943,3.952943,3
20777794686580,1.1150553,8.834301,3.9481573,3
20777797065538,1.1246266,8.810373,3.9433718,3
20777799444549,1.1437693,8.752945,3.938586,3
20777801823507,1.1437693,8.700303,3.900301,3
20777804202465,1.1820544,8.709874,3.8811584,3
20777806581476,1.2634103,8.685946,3.8476589,3
20777808960434,1.3208381,8.662018,3.842873,3
20777811339392,1.3639089,8.633304,3.8524444,3
20777813718403,1.4739788,8.590233,3.8524444,3
20777816097361,1.5266209,8.566305,3.8380876,3
20777818476320,1.5696917,8.537591,3.8237305,3
20777820855330,1.6031911,8.551949,3.7998023,3
20777823234288,1.6414764,8.547162,3.7710886,3
20777825613247,1.6654046,8.532805,3.7758741,3
20777827992257,1.6223338,8.56152,3.842873,3
20777830371215,1.564906,8.547162,3.8811584,3
20777832750174,1.4835501,8.52802,3.8907297,3
20777835129184,1.4931214,8.575876,3.9146578,3
20777837508142,1.4261223,8.599805,3.9194436,3
20777839887153,1.3304094,8.633304,3.9146578,3
20777842266111,1.2969099,8.652447,3.9098723,3
20777844645070,1.268196,8.71466,3.9768713,3
20777847024080,1.2155539,8.700303,4.019942,3
20777849403038,1.2299109,8.695518,4.048656,3
20777851781997,1.2490535,8.719446,4.048656,3
20777854161007,1.282553,8.719446,4.0103707,3
20777856539965,1.3160524,8.676374,4.005585,3
20777858918924,1.3639089,8.690732,4.019942,3
20777861297934,1.430908,8.71466,4.0390844,3
20777863676892,1.4596218,8.671589,4.082155,3
20777866055903,1.4739788,8.676374,4.139583,3
20777868434809,1.5457634,8.681161,4.139583,3
20777870813820,1.5696917,8.700303,4.125226,3
20777873192830,1.5409778,8.719446,4.1347976,3
20777875571788,1.5170496,8.729017,4.1347976,3
20777877950747,1.4835501,8.695518,4.1778684,3
20777880329705,1.4356936,8.681161,4.2352962,3
20777882708715,1.4117653,8.719446,4.2592244,3
20777885087674,1.4117653,8.733803,4.2687955,3
20777887466684,1.3734802,8.762517,4.211368,3
20777889845642,1.2969099,8.762517,4.173083,3
20777892224653,1.2969099,8.743374,4.1443686,3
20777894603611,1.2969099,8.800801,4.1491547,3
20777896982570,1.2777673,8.834301,4.1443686,3
20777899361580,1.2873386,8.848659,4.173083,3
20777901740538,1.2873386,8.877372,4.1874394,3
20777904119497,1.3016955,8.906086,4.182654,3
20777906498507,1.3256238,8.925228,4.15394,3
20777908877465,1.3447664,8.930014,4.168297,3
20777911256424,1.3639089,8.920443,4.2017965,3
20777913635434,1.3974084,8.953942,4.249653,3
20777916014392,1.4069797,8.9108715,4.3118663,3
20777918393403,1.3926228,8.9013,4.345366,3
20777920772361,1.3782659,8.896515,4.3357944,3
20777923151320,1.3974084,8.915657,4.3070807,3
20777925530330,1.3686945,8.896515,4.287938,3
20777927909236,1.3112668,8.9013,4.2448673,3
20777930288247,1.2394822,8.915657,4.2352962,3
20777932667257,1.134198,8.886943,4.254439,3
20777935046215,1.052842,8.853444,4.2687955,3
20777937425174,0.94755775,8.863015,4.278367,3
20777939804184,0.82313097,8.843872,4.2592244,3
20777942183142,0.7369894,8.839087,4.2448673,3
20777944562101,0.63170516,8.85823,4.23051,3
20777946941111,0.51206404,8.834301,4.2352962,3
20777949320070,0.4546363,8.829515,4.254439,3
20777951699028,0.4019942,8.819944,4.26401,3
20777954078038,0.36370903,8.815159,4.2448673,3
20777956456997,0.3397808,8.819944,4.220939,3
20777958835955,0.3397808,8.848659,4.2017965,3
20777961214965,0.33020952,8.872586,4.197011,3
20777963593924,0.3589234,8.85823,4.197011,3
20777965972934,0.37806597,8.872586,4.2257247,3
20777968351892,0.41635114,8.891729,4.2161536,3
20777970730851,0.4881358,8.925228,4.2161536,3
20777973109861,0.5838487,8.9348,4.206582,3
20777975488820,0.66041905,8.968299,4.2017965,3
20777977867778,0.7513463,8.968299,4.23051,3
20777980246788,0.85184485,8.939586,4.254439,3
20777982625747,0.9092726,8.930014,4.278367,3
20777985004757,0.98584294,8.949157,4.26401,3
20777987383715,1.0719845,8.953942,4.2352962,3
20777989762674,1.105484,8.963513,4.2017965,3
20777992141684,1.1102697,8.958728,4.2017965,3
20777994520642,1.105484,8.963513,4.173083,3
20777996899601,1.0767702,8.958728,4.173083,3
20777999278559,1.0097711,8.939586,4.206582,3
20778001657570,0.91884387,8.949157,4.2017965,3
20778004036528,0.83748794,8.963513,4.2017965,3
20778006415538,0.7800602,8.944371,4.168297,3
20778008794497,0.72263247,8.973084,4.1443686,3
20778011173455,0.64606214,8.963513,4.1491547,3
20778013552465,0.57906306,9.001799,4.1491547,3
20778015931424,0.56470615,8.992228,4.1635113,3
20778018310382,0.5168497,9.01137,4.1874394,3
20778020689392,0.5024927,9.025727,4.1874394,3
20778023068299,0.52163535,8.997013,4.197011,3
20778025447361,0.5455636,8.997013,4.197011,3
20778027826320,0.5886344,9.016156,4.211368,3
20778030205278,0.6269195,9.006584,4.1922255,3
20778032584288,0.7178468,8.9826565,4.2017965,3
20778034963247,0.8135597,8.953942,4.254439,3
20778037342205,0.8853444,8.925228,4.2687955,3
20778039721215,0.9667004,8.891729,4.2687955,3
20778042100174,1.0097711,8.867801,4.240082,3
20778044479132,1.0624132,8.85823,4.2161536,3
20778046858142,1.0863415,8.839087,4.211368,3
20778049237101,1.1102697,8.834301,4.220939,3
20778051616111,1.0815558,8.819944,4.197011,3
20778053995070,1.0671989,8.79123,4.1874394,3
20778056374028,1.038485,8.748159,4.168297,3
20778058752986,0.9954142,8.733803,4.125226,3
20778061131997,0.95712906,8.71466,4.106084,3
20778063510955,0.9284152,8.676374,4.072584,3
20778065889965,0.8997013,8.695518,4.063013,3
20778068268924,0.91405827,8.700303,4.072584,3
20778070647882,0.94277215,8.71466,4.024728,3
20778073026892,0.9810573,8.733803,3.9720855,3
20778075405799,0.9954142,8.762517,3.9433718,3
20778077784809,1.0241281,8.810373,3.871587,3
20778080163820,1.0576276,8.848659,3.842873,3
20778082542778,1.0815558,8.853444,3.8524444,3
20778084921736,1.0911272,8.9108715,3.9146578,3
20778087300747,1.0719845,8.930014,3.938586,3
20778089679705,1.052842,8.9826565,3.952943,3
20778092058715,1.038485,9.016156,3.900301,3
20778094437674,0.98584294,9.083155,3.8668015,3
20778096816632,0.9236295,9.145369,3.871587,3
20778099195642,0.8566305,9.19801,3.8811584,3
20778101574601,0.7752745,9.241081,3.938586,3
20778103953559,0.7082755,9.317652,4.005585,3
20778106332570,0.63170516,9.379865,4.0438704,3
20778108711528,0.55513483,9.370294,4.0103707,3
20778111090486,0.5024927,9.413364,3.9816568,3
20778113469497,0.4642076,9.370294,3.9720855,3
20778115848455,0.42592242,9.38465,4.048656,3
20778118227413,0.41635114,9.355937,4.0869412,3
20778120606424,0.4546363,9.303294,4.082155,3
20778122985382,0.45942193,9.303294,4.1204405,3
20778125364392,0.4833502,9.288938,4.1922255,3
20778127743351,0.55513483,9.140582,4.0965123,3
20778130122309,0.526421,9.016156,3.9864426,3
20778132501320,0.5886344,8.987442,3.9194436,3
20778134880278,0.46899325,8.992228,4.0965123,3
20778137259236,0.3684947,8.843872,4.3405805,3
20778139638247,0.20578274,8.662018,4.3645086,3
20778142017205,0.1052842,8.781659,4.3788652,3
20778144396163,0.0047856453,8.733803,4.1635113,3
20778146775174,-0.09092726,8.671589,4.058227,3
20778149154132,-0.18185452,8.63809,4.0677986,3
20778151533142,-0.17706887,8.628518,4.2448673,3
20778153912101,-0.18185452,8.336594,4.1491547,3
20778156291007,-0.19621146,8.52802,4.4410787,3
20778158670070,-0.13399807,8.46102,4.4315076,3
20778161049028,-0.29671,8.360522,4.3788652,3
20778163427986,-0.35413775,8.427522,4.3118663,3
20778165806997,-0.39720857,8.547162,4.23051,3
20778168185955,-0.44506502,8.489735,4.106084,3
20778170564965,-0.5455636,8.532805,4.1587257,3
20778172943924,-0.526421,8.585447,4.287938,3
20778175322882,-0.5599205,8.599805,4.4410787,3
20778177701892,-0.4977071,8.532805,4.4841495,3
20778180080851,-0.38763726,8.590233,4.4985065,3
20778182459809,-0.23449662,8.671589,4.4745784,3
20778184838820,-0.124426775,8.652447,4.388437,3
20778187217778,0.0,8.695518,4.402794,3
20778189596736,0.148355,8.800801,4.56072,3
20778191975747,0.25842485,8.815159,4.6564326,3
20778194354705,0.3589234,8.738588,4.6085763,3
20778196733663,0.4977071,8.843872,4.5655055,3
20778199112674,0.55513483,8.729017,4.331009,3
20778201491632,0.6412765,8.810373,4.369294,3
20778203870642,0.65084773,8.743374,4.3788652,3
20778206249601,0.64606214,8.843872,4.7425747,3
20778208628559,0.63170516,8.748159,4.871787,3
20778211007570,0.6652047,8.776874,4.938786,3
20778213386528,0.6891329,8.843872,4.871787,3
20778215765486,0.7322037,8.79123,4.6468616,3
20778218144497,0.75613195,8.930014,4.575077,3
20778220523455,0.7848458,8.810373,4.4171505,3
20778222902413,0.7848458,8.886943,4.584648,3
20778225281424,0.7848458,8.719446,4.599005,3
20778227660382,0.81834537,8.7577305,4.8095737,3
20778230039392,0.8566305,8.709874,4.9196434,3
20778232418351,0.9284152,8.662018,4.8861437,3
20778234797309,1.0241281,8.642876,4.7569313,3
20778237176320,1.1294123,8.609376,4.613362,3
20778239555278,1.18684,8.575876,4.584648,3
20778241934236,1.2634103,8.49452,4.6372905,3
20778244313247,1.3639089,8.46102,4.847859,3
20778246692205,1.4500505,8.422736,4.9866424,3
20778249071163,1.5266209,8.360522,5.0249276,3
20778251450174,1.5936198,8.346166,5.015356,3
20778253829132,1.6319051,8.327023,4.9340005,3
20778256208090,1.6510476,8.298309,4.8861437,3
20778258587101,1.6558332,8.269595,4.9579287,3
20778260966059,1.6462619,8.331808,5.096712,3
20778263345070,1.6701902,8.355737,5.1206403,3
20778265724028,1.6845472,8.398808,4.962714,3
20778268102986,1.7084754,8.499306,4.666004,3
20778270481997,1.7515461,8.609376,4.398008,3
20778272860955,1.7706888,8.590233,4.220939,3
20778275239913,2.0721843,8.130812,3.9577286,3
20778277618924,1.2346965,8.551949,4.254439,3
20778279997882,1.861616,8.355737,3.034099,3
20778282376840,1.2634103,9.188439,3.5030923,3
20778284755851,1.2442678,9.303294,4.091727,3
20778287134809,0.41156548,9.140582,5.0105705,3
20778289513767,0.81834537,9.140582,5.7810597,3
20778291892778,1.7611175,9.040084,5.4221363,3
20778294271736,1.5074782,9.370294,4.718646,3
20778296650747,1.6175481,9.403793,3.4983068,3
20778299029705,1.4644074,9.796216,3.1202407,3
20778301408663,1.7898313,9.695718,3.101098,3
20778303787674,1.6558332,9.403793,3.6801612,3
20778306166632,1.5744773,9.346365,4.369294,3
20778308545590,1.550549,9.336794,4.4458647,3
20778310924601,0.8805587,9.60479,4.1635113,3
20778313303559,1.3495519,8.427522,2.6321049,3
20778315682517,0.21535404,8.666803,2.5938199,3
20778318061528,0.75613195,9.006584,1.6271194,3
20778320440382,1.052842,8.063812,1.1006985,3
20778322819497,-1.4644074,7.9920278,3.278167,3
20778325198455,-0.038285162,8.896515,4.058227,3
20778327577413,-0.82313097,9.164511,4.2975097,3
20778329956424,-0.7369894,8.250452,4.3118663,3
20778332335382,-0.98584294,7.537391,3.952943,3
20778334714340,0.0526421,9.700503,4.981857,3
20778337093351,0.25842485,9.126225,4.503292,3
20778339472309,0.11006984,8.580662,4.627719,3
20778341851267,1.3639089,9.236296,5.144569,3
20778344230278,1.7898313,9.97807,5.4317074,3
20778346609236,2.2971098,9.08794,4.766503,3
20778348988247,2.3401806,8.987442,4.723432,3
20778351367205,3.182454,9.848858,4.910072,3
20778353746163,3.2159536,9.542577,4.5798626,3
20778356125174,2.7996025,9.164511,4.5272202,3
20778358504132,2.6991038,9.265009,4.4602213,3
20778360883090,2.292324,9.547362,4.517649,3
20778363262101,1.5170496,9.260223,4.536792,3
20778365641059,0.7609176,8.748159,4.4075794,3
20778368020017,0.5168497,9.001799,4.7282176,3
20778370399028,0.22971097,8.815159,4.699504,3
20778372777986,-0.08135597,8.3174515,4.56072,3
20778375156945,-0.4019942,8.312666,4.6229334,3
20778377535955,-0.89491564,8.3174515,4.493721,3
20778379914913,-1.3495519,8.097312,4.2927237,3
20778382293924,-1.7706888,8.097312,4.173083,3
20778384672882,-1.9669002,8.288737,4.139583,3
20778387051840,-1.9812572,8.312666,4.388437,3
20778389430851,-1.5170496,7.987242,4.536792,3
20778391809809,-1.0576276,8.054241,4.6899323,3
20778394188715,-0.64606214,8.145168,4.685147,3
20778396567778,-0.27756742,8.073383,4.4745784,3
20778398946736,0.13878371,8.236095,4.3118663,3
20778401325695,0.66999036,8.508878,4.254439,3
20778403704705,1.0001999,8.547162,4.3262234,3
20778406083663,1.4596218,8.518449,4.4410787,3
20778408462674,1.8376877,8.695518,4.469793,3
20778410841632,2.0673988,8.776874,4.369294,3
20778413220590,2.1104696,8.7577305,4.072584,3
20778415599601,2.0817556,8.896515,3.8572302,3
20778417978559,2.0673988,9.020942,3.7663028,3
20778420357517,1.8951155,9.020942,3.804588,3
20778422736528,1.7802601,9.030513,3.8907297,3
20778425115486,1.430908,9.12144,3.9673,3
20778427494445,1.0815558,9.15494,3.8763726,3
20778429873455,0.5838487,9.068798,3.6466618,3
20778432252413,0.0526421,9.092726,3.656233,3
20778434631372,-0.29671,9.078369,3.7040894,3
20778437010382,-0.6891329,9.135797,3.7854455,3
20778439389288,-0.8757731,9.332008,3.9673,3
20778441768351,-1.0001999,9.408579,4.0677986,3
20778444147309,-1.0767702,9.365508,4.0773697,3
20778446526267,-0.971486,9.23151,3.9577286,3
20778448905278,-0.7322037,9.255438,3.9816568,3
20778451284236,-0.36370903,9.102298,3.9050865,3
20778453663195,-0.0047856453,9.068798,3.9242291,3
20778456042205,0.41156548,9.040084,3.9338005,3
20778458421163,0.66041905,9.135797,4.0151563,3
20778460800174,0.8662018,9.131011,4.058227,3
20778463179132,1.0719845,9.064013,4.125226,3
20778465558090,1.2394822,9.08794,4.254439,3
20778467937049,1.5074782,9.025727,4.3070807,3
20778470316059,1.727618,9.006584,4.331009,3
20778472695017,1.9094725,9.01137,4.2687955,3
20778475074028,1.9190438,9.073584,4.1778684,3
20778477452986,1.7802601,9.092726,4.0965123,3
20778479831945,1.5361922,9.131011,4.1491547,3
20778482210955,1.2059826,9.107083,4.2592244,3
20778484589913,0.94277215,9.102298,4.4554358,3
20778486968872,0.6125626,9.064013,4.618148,3
20778489347882,0.36370903,9.049655,4.6707897,3
20778491726840,0.0526421,9.0544405,4.5894337,3
20778494105851,-0.18185452,9.0544405,4.4315076,3
20778496484809,-0.3684947,9.083155,4.3501515,3
20778498863767,-0.4211368,9.078369,4.3740797,3
20778501242778,-0.3493521,9.073584,4.503292,3
20778503621736,-0.11006984,9.064013,4.5272202,3
20778506000695,0.17706887,9.035298,4.4315076,3
20778508379705,0.46899325,9.049655,4.2831526,3
20778510758663,0.7369894,9.001799,4.0965123,3
20778513137674,0.9284152,8.953942,4.048656,3
20778515516632,1.134198,8.877372,4.082155,3
20778517895590,1.3399807,8.796016,4.249653,3
20778520274601,1.5218352,8.733803,4.3836513,3
20778522653559,1.6797615,8.724232,4.4171505,3
20778525032517,1.7515461,8.762517,4.3070807,3
20778527411528,1.6941184,8.709874,3.9673,3
20778529790486,1.4979069,9.020942,4.0295134,3
20778532169445,1.4739788,8.886943,4.0295134,3
20778534548455,1.2299109,8.896515,4.3070807,3
20778536927413,1.119841,8.930014,4.3740797,3
20778539306372,1.1581261,9.202796,4.402794,3
20778541685382,0.9810573,9.035298,3.900301,3
20778544064340,0.81834537,9.293723,3.7663028,3
20778546443351,0.5599205,9.102298,3.5413775,3
20778548822309,0.6029913,9.265009,3.991228,3
20778551201267,0.34456646,9.135797,4.1922255,3
20778553580278,0.34456646,9.040084,4.2687955,3
20778555959236,0.28235307,9.245867,4.048656,3
20778558338195,0.20578274,9.260223,3.4121652,3
20778560717205,0.33020952,9.15494,2.9958138,3
20778563096163,0.086141616,9.389436,3.2015967,3
20778565475174,0.124426775,9.767502,3.5365918,3
20778567854132,0.17706887,9.336794,3.507878,3
20778570233090,0.39720857,9.466006,4.0295134,3
20778572612101,0.70348984,9.461221,4.0151563,3
20778574991059,1.0815558,9.403793,3.9673,3
20778577370017,1.2921243,9.035298,4.0534415,3
20778579749028,1.3399807,9.126225,4.469793,3
20778582127986,1.5936198,9.040084,4.752146,3
20778584506945,1.7850457,9.001799,5.326423,3
20778586885955,1.7802601,8.298309,5.1493545,3
20778589264913,1.5840486,8.49452,5.3216376,3
20778591643872,1.5170496,8.796016,5.2689953,3
20778594022882,1.0193424,8.422736,4.666004,3
20778596401840,0.41156548,8.532805,4.3645086,3
20778598780851,0.19142582,8.705089,3.7710886,3
20778601159809,0.038285162,8.85823,3.4504502,3
20778603538767,-0.2009971,8.642876,3.2733815,3
20778605917778,-0.25842485,8.56152,3.2638102,3
20778608296736,-0.11964113,8.63809,3.3690944,3
20778610675695,-0.22492532,8.556734,3.4408789,3
20778613054705,-0.31585258,8.609376,3.6083765,3
20778615433663,-0.31585258,8.7577305,3.8093736,3
20778617812622,-0.20578274,8.752945,4.034299,3
20778620191632,0.02871387,8.681161,4.316652,3
20778622570590,0.32063824,8.786445,4.651647,3
20778624949601,0.6843473,8.819944,4.752146,3
20778627328559,1.0049855,8.848659,4.723432,3
20778629707517,1.3351951,8.920443,4.5320063,3
20778632086528,1.6031911,9.001799,4.26401,3
20778634465486,1.8329022,9.01137,4.0965123,3
20778636844445,2.091327,9.020942,3.9816568,3
20778639223455,2.201397,9.078369,4.0103707,3
20778641602413,2.201397,9.016156,4.048656,3
20778643981372,2.105684,8.949157,4.0869412,3
20778646360382,1.8711873,8.906086,4.048656,3
20778648739340,1.5553347,8.939586,4.0007997,3
20778651118351,1.2155539,8.944371,3.9050865,3
20778653497309,0.89013004,8.915657,3.8524444,3
20778655876267,0.52163535,8.930014,3.8668015,3
20778658255278,0.15792629,8.872586,3.8620157,3
20778660634236,-0.22013968,8.958728,3.991228,3
20778663013195,-0.37806597,8.987442,4.0773697,3
20778665392205,-0.6269195,8.973084,4.091727,3
20778667771163,-0.71306115,9.016156,4.0773697,3
20778670150122,-0.6125626,9.040084,4.0007997,3
20778672529132,-0.5072784,9.059227,3.9242291,3
20778674908090,-0.39720857,9.0544405,4.0151563,3
20778677287101,-0.22013968,9.016156,4.173083,3
20778679666059,-0.062213387,8.944371,4.287938,3
20778682045017,0.124426775,8.968299,4.369294,3
20778684424028,0.40677986,9.020942,4.345366,3
20778686802986,0.64606214,9.035298,4.168297,3
20778689181945,0.8709874,9.068798,4.063013,3
20778691560955,1.0767702,9.092726,4.034299,3
20778693939913,1.2634103,9.174082,4.115655,3
20778696318872,1.3351951,9.169296,4.254439,3
20778698697882,1.3926228,9.169296,4.354937,3
20778701076840,1.3639089,9.226724,4.359723,3
20778703455799,1.3112668,9.260223,4.2448673,3
20778705834809,1.1964114,9.303294,4.2017965,3
20778708213767,1.0336994,9.312865,4.254439,3
20778710592778,0.83748794,9.265009,4.3740797,3
20778712971736,0.66999036,9.245867,4.584648,3
20778715350695,0.57427746,9.193225,4.685147,3
20778717729705,0.47377887,9.135797,4.6372905,3
20778720108663,0.43070808,9.12144,4.426722,3
20778722487622,0.4833502,9.073584,4.240082,3
20778724866632,0.5599205,8.949157,4.091727,3
20778727245590,0.6364908,8.829515,4.0534415,3
20778729624601,0.6652047,8.733803,4.0677986,3
20778732003559,0.7609176,8.633304,4.0965123,3
20778734382517,0.8422736,8.523234,4.0438704,3
20778736761528,0.8853444,8.465807,3.9673,3
20778739140486,0.94277215,8.422736,3.842873,3
20778741519445,0.98584294,8.398808,3.737589,3
20778743898455,0.9954142,8.322237,3.6323047,3
20778746277413,0.9954142,8.298309,3.5413775,3
20778748656372,0.9379865,8.303095,3.6370904,3
20778751035382,0.7752745,8.322237,3.6753755,3
20778753414340,0.6652047,8.398808,3.5557344,3
20778755793351,0.6795616,8.877372,3.737589,3
20778758172309,0.70348984,8.906086,3.9625144,3
20778760551267,0.53599226,8.484949,3.9338005,3
20778762930278,0.6843473,9.016156,4.024728,3
20778765309236,1.0289137,9.145369,3.5030923,3
20778767688195,1.0145568,8.681161,3.0005996,3
20778770067205,1.1485549,8.800801,3.1633115,3
20778772446163,1.2251252,9.178867,3.641876,3
20778774825122,1.3208381,8.997013,4.072584,3
20778777204132,1.2442678,8.944371,4.5942197,3
20778779583090,1.3016955,9.107083,4.6755753,3
20778781962101,1.4500505,9.255438,4.5942197,3
20778784341059,1.402194,9.150154,4.599005,3
20778786720017,1.4835501,9.102298,4.800002,3
20778789099028,1.3447664,9.341579,5.3359947,3
20778791477986,1.3256238,9.265009,5.7810597,3
20778793856945,1.2921243,9.092726,5.9437714,3
20778796235955,1.18684,9.427721,5.8624153,3
20778798614913,0.94277215,8.958728,4.8526444,3
20778800993924,0.49292147,8.647661,4.302295,3
20778803372882,0.22013968,8.7673025,4.249653,3
20778805751840,-0.3924229,8.633304,4.402794,3
20778808130851,-1.1246266,8.322237,4.8047876,3
20778810509809,-1.5936198,8.34138,5.020142,3
20778812888767,-1.8711873,8.49452,4.599005,3
20778815267778,-1.942972,8.413164,3.8572302,3
20778817646736,-1.9908284,8.250452,3.2542388,3
20778820025695,-2.0003998,8.298309,2.981457,3
20778822404705,-1.8520447,8.408379,3.2350962,3
20778824783663,-1.6558332,8.427522,3.7998023,3
20778827162674,-1.4261223,8.532805,4.26401,3
20778829541632,-1.1150553,8.705089,4.398008,3
20778831920590,-0.6364908,8.930014,4.4315076,3
20778834299601,-0.047856454,8.9348,4.412365,3
20778836678559,0.44985065,8.977871,4.6085763,3
20778839057517,1.1916257,9.08794,4.948357,3
20778841436528,1.9908284,9.135797,5.163711,3
20778843815486,2.6416762,9.2075815,5.1014977,3
20778846194497,3.3116665,9.284152,4.5894337,3
20778848573455,3.8093736,9.346365,3.9242291,3
20778850952413,4.1491547,9.303294,3.3882368,3
20778853331424,4.15394,9.260223,3.182454,3
20778855710382,3.8237305,9.288938,3.2973096,3
20778858089340,3.1728828,9.2075815,3.603591,3
20778860468351,2.4789643,9.068798,3.8380876,3
20778862847309,1.5553347,9.0544405,3.818945,3
20778865226267,0.6891329,9.044869,3.6323047,3
20778867605278,-0.05742774,9.001799,3.5174494,3
20778869984236,-0.7369894,9.020942,3.5844483,3
20778872363195,-1.3974084,9.020942,3.8237305,3
20778874742205,-1.9190438,9.044869,4.125226,3
20778877121163,-2.292324,9.078369,4.345366,3
20778879500174,-2.5746772,9.102298,4.3501515,3
20778881879132,-2.7230322,9.102298,4.249653,3
20778884258090,-2.7278178,9.15494,4.173083,3
20778886637101,-2.5986054,9.15494,4.220939,3
20778889016059,-2.3114667,9.097511,4.4554358,3
20778891395017,-1.8376877,9.083155,4.7377887,3
20778893774028,-1.2490535,9.083155,4.910072,3
20778896152986,-0.52163535,9.078369,4.871787,3
20778898531997,0.37328035,9.030513,4.699504,3
20778900910955,1.4213367,9.025727,4.479364,3
20778903289913,2.4071796,8.992228,4.321438,3
20778905668924,3.1489546,8.867801,4.287938,3
20778908047830,3.6849468,8.7673025,4.206582,3
20778910426840,3.8763726,8.992228,4.5894337,3
20778912805851,4.101298,8.748159,4.5894337,3
20778915184809,3.6993039,8.652447,4.4458647,3
20778917563767,3.5557344,8.805588,4.019942,3
20778919942778,3.0915267,8.953942,3.5892339,3
20778922321736,2.4646072,8.839087,3.330809,3
20778924700747,1.7084754,8.709874,3.5126636,3
20778927079705,1.0767702,8.685946,3.9864426,3
20778929458663,0.36370903,8.685946,4.4075794,3
20778931837674,-0.31585258,8.71466,4.584648,3
20778934216632,-0.8279166,8.815159,4.436293,3
20778936595590,-1.3543376,8.896515,4.1587257,3
20778938974601,-1.713261,8.963513,4.0007997,3
20778941353559,-1.8951155,8.977871,4.1108694,3
20778943732570,-1.9525433,9.020942,4.4171505,3
20778946111528,-1.7946169,8.992228,4.651647,3
20778948490486,-1.4404793,9.030513,4.6803613,3
20778950869497,-0.9284152,9.083155,4.4171505,3
20778953248455,-0.33020952,9.08794,3.9673,3
20778955627413,0.41635114,9.073584,3.7136607,3
20778958006424,1.18684,9.025727,3.6753755,3
20778960385382,1.9094725,8.973084,3.9194436,3
20778962764340,2.5603201,8.886943,4.273581,3
20778965143351,3.1154552,8.834301,4.5272202,3
20778967522309,3.4217365,8.829515,4.5655055,3
20778969901267,3.6083765,8.815159,4.398008,3
20778972280278,3.6466618,8.810373,4.2352962,3
20778974659236,3.5174494,8.800801,4.1443686,3
20778977038195,3.1058838,8.82473,4.173083,3
20778979417205,2.5268207,8.796016,4.2975097,3
20778981796163,1.8807586,8.800801,4.426722,3
20778984175174,1.1820544,8.800801,4.4554358,3
20778986554132,0.5024927,8.829515,4.369294,3
20778988933090,-0.038285162,8.839087,4.26401,3
20778991312101,-0.4642076,8.853444,4.254439,3
20778993691059,-0.83748794,8.853444,4.3405805,3
20778996070070,-1.0959128,8.805588,4.465007,3
20778998449028,-1.2299109,8.805588,4.56072,3
20779000827986,-1.2299109,8.815159,4.5655055,3
20779003206997,-1.119841,8.85823,4.4458647,3
20779005585955,-0.85184485,8.886943,4.3118663,3
20779007964913,-0.4642076,8.872586,4.1874394,3
20779010343924,-0.02871387,8.891729,4.182654,3
20779012722882,0.4546363,8.867801,4.23051,3
20779015101840,0.9284152,8.85823,4.321438,3
20779017480851,1.3830515,8.839087,4.3262234,3
20779019859809,1.7180467,8.853444,4.2448673,3
20779022238820,2.0147567,8.867801,4.139583,3
20779024617778,2.2157538,8.872586,4.0534415,3
20779026996736,2.2827528,8.872586,4.0295134,3
20779029375747,2.254039,8.843872,4.0438704,3
20779031754705,2.062613,8.834301,4.101298,3
20779034133663,1.7180467,8.843872,4.115655,3
20779036512674,1.3016955,8.867801,4.101298,3
20779038891632,0.8709874,8.848659,4.0534415,3
20779041270590,0.44027936,8.843872,4.005585,3
20779043649601,0.014356935,8.843872,4.0103707,3
20779046028559,-0.34456646,8.863015,4.0677986,3
20779048407570,-0.6269195,8.867801,4.15394,3
20779050786528,-0.8470592,8.906086,4.1922255,3
20779053165486,-0.971486,8.944371,4.220939,3
20779055544497,-1.0001999,8.977871,4.168297,3
20779057923455,-0.9762716,8.987442,4.0965123,3
20779060302413,-0.86141616,9.001799,4.0438704,3
20779062681424,-0.6412765,9.001799,4.048656,3
20779065060382,-0.40677986,8.9826565,4.0869412,3
20779067439392,-0.14356937,8.949157,4.125226,3
20779069818351,0.14356937,8.973084,4.1347976,3
20779072197309,0.41156548,8.949157,4.115655,3
20779074576320,0.64606214,8.930014,4.063013,3
20779076955278,0.8279166,8.930014,4.063013,3
20779079334236,0.94277215,8.9348,4.0869412,3
20779081713247,0.9954142,8.944371,4.1347976,3
20779084092205,0.971486,8.939586,4.1874394,3
20779086471163,0.8757731,8.930014,4.206582,3
20779088850174,0.70348984,8.9348,4.182654,3
20779091229132,0.5024927,8.958728,4.1587257,3
20779093608142,0.27756742,8.973084,4.1635113,3
20779095987101,0.038285162,8.997013,4.211368,3
20779098366059,-0.16749759,9.035298,4.278367,3
20779100745070,-0.34456646,9.020942,4.331009,3
20779103124028,-0.47856453,9.025727,4.3788652,3
20779105502986,-0.5599205,9.01137,4.369294,3
20779107881997,-0.5455636,9.030513,4.3357944,3
20779110260955,-0.4833502,9.01137,4.287938,3
20779112639913,-0.37328035,8.992228,4.302295,3
20779115018924,-0.16749759,8.968299,4.316652,3
20779117397882,0.02871387,8.958728,4.3501515,3
20779119776892,0.24885355,8.9348,4.359723,3
20779122155851,0.5024927,8.886943,4.3501515,3
20779124534809,0.7369894,8.877372,4.278367,3
20779126913820,0.9236295,8.872586,4.2352962,3
20779129292778,1.0624132,8.853444,4.220939,3
20779131671736,1.1772687,8.843872,4.240082,3
20779134050747,1.2442678,8.839087,4.249653,3
20779136429705,1.2442678,8.848659,4.2831526,3
20779138808663,1.2394822,8.867801,4.287938,3
20779141187674,1.1629118,8.891729,4.254439,3
20779143566632,1.0432707,8.891729,4.23051,3
20779145945642,0.9092726,8.915657,4.2161536,3
20779148324601,0.7704889,8.9108715,4.2352962,3
20779150703559,0.63170516,8.920443,4.2448673,3
20779153082570,0.5407779,8.939586,4.2448673,3
20779155461528,0.43070808,8.953942,4.220939,3
20779157840486,0.3684947,8.958728,4.211368,3
20779160219497,0.3062813,8.953942,4.1778684,3
20779162598455,0.3684947,8.977871,4.125226,3
20779164977465,0.43070808,8.992228,4.1108694,3
20779167356424,0.4977071,8.977871,4.125226,3
20779169735382,0.5886344,8.973084,4.130012,3
20779172114392,0.6843473,8.992228,4.125226,3
20779174493351,0.79441714,8.973084,4.091727,3
20779176872309,0.8805587,8.944371,4.101298,3
20779179251320,0.971486,8.949157,4.0677986,3
20779181630278,0.9667004,8.939586,4.0773697,3
20779184009236,0.98584294,8.9348,4.1108694,3
20779186388247,0.95712906,8.920443,4.1347976,3
20779188767205,0.89491564,8.9108715,4.168297,3
20779191146163,0.7752745,8.925228,4.1491547,3
20779193525174,0.6269195,8.9348,4.1443686,3
20779195904132,0.52163535,8.939586,4.1347976,3
20779198283142,0.41156548,8.930014,4.168297,3
20779200662101,0.32542387,8.925228,4.182654,3
20779203041059,0.23449662,8.939586,4.211368,3
20779205420070,0.15792629,8.944371,4.2352962,3
20779207799028,0.1052842,8.944371,4.240082,3
20779210177986,0.047856454,8.958728,4.2257247,3
20779212556997,0.047856454,8.9348,4.240082,3
20779214935955,0.062213387,8.915657,4.240082,3
20779217314965,0.10049855,8.891729,4.249653,3
20779219693924,0.17228323,8.877372,4.2448673,3
20779222072882,0.23928227,8.877372,4.249653,3
20779224451892,0.3062813,8.877372,4.2161536,3
20779226830851,0.3493521,8.906086,4.2161536,3
20779229209809,0.39720857,8.920443,4.1922255,3
20779231588820,0.40677986,8.9108715,4.2017965,3
20779233967778,0.41156548,8.920443,4.197011,3
20779236346788,0.37806597,8.925228,4.211368,3
20779238725747,0.32542387,8.920443,4.2257247,3
20779241104705,0.26799613,8.930014,4.240082,3
20779243483715,0.17228323,8.968299,4.2352962,3
20779245862674,0.11964113,8.949157,4.220939,3
20779248241632,0.047856454,8.958728,4.2161536,3
20779250620642,0.009571291,8.949157,4.2017965,3
20779252999601,-0.019142581,8.968299,4.2017965,3
20779255378559,-0.06699903,8.958728,4.1778684,3
20779257757570,-0.062213387,8.9348,4.173083,3
20779260136528,-0.023928227,8.939586,4.168297,3
20779262515538,0.043070808,8.925228,4.15394,3
20779264894497,0.09571291,8.9013,4.1587257,3
20779267273455,0.20578274,8.877372,4.1587257,3
20779269652465,0.31585258,8.9108715,4.1635113,3
20779272031424,0.44506502,8.9013,4.168297,3
20779274410382,0.5455636,8.882157,4.168297,3
20779276789392,0.6891329,8.9013,4.197011,3
20779279168351,0.7609176,8.877372,4.206582,3
20779281547361,0.8662018,8.843872,4.220939,3
20779283926320,0.9523434,8.85823,4.220939,3
20779286305278,0.971486,8.872586,4.220939,3
20779288684288,0.9667004,8.85823,4.2161536,3
20779291063247,0.94277215,8.867801,4.197011,3
20779293442205,0.9284152,8.896515,4.197011,3
20779295821215,0.86141616,8.9013,4.1922255,3
20779298200174,0.81834537,8.920443,4.1922255,3
20779300579080,0.72263247,8.925228,4.211368,3
20779302958142,0.6269195,8.925228,4.220939,3
20779305337101,0.55513483,8.925228,4.211368,3
20779307716059,0.5024927,8.949157,4.2161536,3
20779310095070,0.42592242,8.963513,4.1874394,3
20779312474028,0.41156548,8.963513,4.2017965,3
20779314853038,0.4019942,8.977871,4.220939,3
20779317231997,0.40677986,8.958728,4.23051,3
20779319610955,0.42592242,8.949157,4.211368,3
20779321989965,0.4642076,8.963513,4.220939,3
20779324368924,0.4977071,8.958728,4.2257247,3
20779326747882,0.526421,8.949157,4.220939,3
20779329126892,0.55034924,8.953942,4.2017965,3
20779331505851,0.5886344,8.949157,4.220939,3
20779333884861,0.60777694,8.953942,4.240082,3
20779336263820,0.6412765,8.9348,4.2448673,3
20779338642778,0.63170516,8.930014,4.2448673,3
20779341021788,0.60777694,8.958728,4.254439,3
20779343400747,0.5838487,8.944371,4.23051,3
20779345779705,0.5455636,8.930014,4.220939,3
20779348158715,0.5168497,8.925228,4.2448673,3
20779350537674,0.4881358,8.953942,4.240082,3
20779352916632,0.47377887,8.944371,4.23051,3
20779355295642,0.44985065,8.958728,4.2257247,3
20779357674601,0.3924229,8.953942,4.240082,3
20779360053611,0.3924229,8.958728,4.2352962,3
20779362432570,0.40677986,8.949157,4.2257247,3
20779364811528,0.4211368,8.944371,4.2257247,3
20779367190538,0.44985065,8.9348,4.2448673,3
20779369569497,0.4833502,8.920443,4.2352962,3
20779371948455,0.52163535,8.925228,4.254439,3
20779374327465,0.56470615,8.920443,4.240082,3
20779376706424,0.61734825,8.939586,4.220939,3
20779379085382,0.6795616,8.953942,4.206582,3
20779381464392,0.7178468,8.944371,4.2161536,3
20779383843351,0.7465607,8.9348,4.211368,3
20779386222361,0.72741807,8.939586,4.197011,3
20779388601320,0.7369894,8.958728,4.1922255,3
20779390980278,0.74177504,8.968299,4.206582,3
20779393359288,0.7178468,8.958728,4.1874394,3
20779395738247,0.6939186,8.963513,4.1874394,3
20779398117257,0.64606214,8.953942,4.1635113,3
20779400496215,0.5982057,8.963513,4.1635113,3
20779402875174,0.5455636,8.992228,4.173083,3
20779405254184,0.53599226,8.977871,4.15394,3
20779407633142,0.47377887,8.953942,4.1443686,3
20779410012101,0.44985065,8.939586,4.139583,3
20779412391111,0.44027936,8.977871,4.0965123,3
20779414770070,0.4354937,8.958728,4.082155,3
20779417149028,0.42592242,8.958728,4.0773697,3
20779419528038,0.44506502,8.958728,4.0534415,3
20779421906997,0.4642076,8.958728,4.019942,3
20779424286007,0.46899325,8.958728,3.9960139,3
20779426664965,0.4881358,8.944371,3.9768713,3
20779429043924,0.4977071,8.930014,3.9816568,3
20779431422934,0.51206404,8.9348,3.9720855,3
20779433801892,0.49292147,8.920443,3.9864426,3
20779436180851,0.47377887,8.9348,3.991228,3
20779438559861,0.44985065,8.939586,4.019942,3
20779440938820,0.41156548,8.939586,4.034299,3
20779443317778,0.37806597,8.9348,4.058227,3
20779445696788,0.36370903,8.925228,4.091727,3
20779448075747,0.3397808,8.920443,4.115655,3
20779450454757,0.29192436,8.944371,4.1491547,3
20779452833715,0.25842485,8.949157,4.168297,3
20779455212674,0.2440679,8.949157,4.182654,3
20779457591684,0.23928227,8.987442,4.211368,3
20779459970590,0.21535404,8.992228,4.206582,3
20779462349601,0.20578274,8.973084,4.2161536,3
20779464728611,0.21535404,8.968299,4.2161536,3
20779467107570,0.22492532,8.963513,4.2161536,3
20779469486580,0.2440679,8.939586,4.2257247,3
20779471865538,0.2632105,8.906086,4.206582,3
20779474244445,0.29192436,8.906086,4.197011,3
20779476623507,0.34456646,8.891729,4.1874394,3
20779479002465,0.39720857,8.896515,4.1922255,3
20779481381424,0.44027936,8.863015,4.197011,3
20779483760434,0.4881358,8.85823,4.1874394,3
20779486139392,0.4977071,8.843872,4.168297,3
20779488518403,0.5168497,8.815159,4.182654,3
20779490897361,0.526421,8.776874,4.173083,3
20779493276320,0.5168497,8.810373,4.1491547,3
20779495655330,0.5312066,8.82473,4.130012,3
20779498034288,0.5168497,8.829515,4.139583,3
20779500413247,0.5024927,8.834301,4.1108694,3
20779502792257,0.4977071,8.829515,4.101298,3
20779505171215,0.4546363,8.82473,4.1204405,3
20779507550174,0.44506502,8.829515,4.1204405,3
20779509929184,0.43070808,8.867801,4.1347976,3
20779512308142,0.4211368,8.85823,4.15394,3
20779514687101,0.3924229,8.896515,4.1491547,3
20779517066111,0.38763726,8.915657,4.168297,3
20779519445070,0.37806597,8.896515,4.2017965,3
20779521824080,0.38285163,8.920443,4.2352962,3
20779524203038,0.37806597,8.915657,4.2448673,3
20779526581997,0.38285163,8.925228,4.2448673,3
20779528961007,0.37806597,8.930014,4.273581,3
20779531339965,0.37806597,8.9348,4.2687955,3
20779533718924,0.40677986,8.944371,4.2927237,3
20779536097934,0.41635114,8.9348,4.2975097,3
20779538476892,0.43070808,8.925228,4.3070807,3
20779540855903,0.44985065,8.939586,4.2927237,3
20779543234861,0.4354937,8.949157,4.2831526,3
20779545613820,0.4642076,8.9348,4.302295,3
20779547992830,0.4642076,8.930014,4.3118663,3
20779550371788,0.47377887,8.930014,4.2927237,3
20779552750747,0.46899325,8.930014,4.2975097,3
20779555129757,0.4642076,8.9348,4.2831526,3
20779557508715,0.45942193,8.925228,4.278367,3
20779559887674,0.42592242,8.925228,4.273581,3
20779562266684,0.4354937,8.925228,4.2687955,3
20779564645642,0.39720857,8.920443,4.249653,3
20779567024653,0.3924229,8.930014,4.249653,3
20779569403611,0.3924229,8.920443,4.2352962,3
20779571782570,0.37806597,8.930014,4.211368,3
20779574161580,0.3589234,8.9348,4.1874394,3
20779576540538,0.33499518,8.949157,4.1874394,3
20779578919497,0.31106696,8.930014,4.1922255,3
20779581298507,0.31585258,8.930014,4.197011,3
20779583677465,0.32542387,8.9348,4.1778684,3
20779586056476,0.3493521,8.944371,4.1922255,3
20779588435434,0.37806597,8.906086,4.1778684,3
20779590814340,0.3924229,8.925228,4.1778684,3
20779593193403,0.43070808,8.896515,4.1635113,3
20779595572361,0.44506502,8.9013,4.1635113,3
20779597951320,0.49292147,8.9108715,4.1778684,3
20779600330330,0.5455636,8.891729,4.182654,3
20779602709288,0.56470615,8.9108715,4.197011,3
20779605088299,0.5838487,8.906086,4.2017965,3
20779607467257,0.59342,8.9108715,4.182654,3
20779609846215,0.61734825,8.906086,4.211368,3
20779612225226,0.6412765,8.9108715,4.211368,3
20779614604184,0.66999036,8.9108715,4.211368,3
20779616983142,0.66041905,8.915657,4.2352962,3
20779619362153,0.66999036,8.930014,4.2352962,3
20779621741111,0.65084773,8.906086,4.23051,3
20779624120070,0.65084773,8.925228,4.23051,3
20779626499028,0.60777694,8.920443,4.240082,3
20779628878038,0.6221339,8.920443,4.240082,3
20779631256997,0.6029913,8.920443,4.273581,3
20779633636007,0.5838487,8.915657,4.278367,3
20779636014965,0.5599205,8.9348,4.2831526,3
20779638393976,0.55034924,8.953942,4.287938,3
20779640772934,0.5455636,8.939586,4.2927237,3
20779643151892,0.5407779,8.949157,4.287938,3
20779645530903,0.53599226,8.953942,4.2975097,3
20779647909861,0.5455636,8.925228,4.302295,3
20779650288872,0.5455636,8.920443,4.302295,3
20779652667830,0.56470615,8.9013,4.321438,3
20779655046788,0.5599205,8.915657,4.3357944,3
20779657425799,0.60777694,8.9013,4.3118663,3
20779659804757,0.6269195,8.886943,4.302295,3
20779662183715,0.60777694,8.877372,4.302295,3
20779664562726,0.6269195,8.872586,4.2831526,3
20779666941684,0.6652047,8.877372,4.2592244,3
20779669320642,0.6795616,8.872586,4.2352962,3
20779671699653,0.6987042,8.872586,4.2017965,3
20779674078611,0.7178468,8.877372,4.182654,3
20779676457622,0.7082755,8.872586,4.1443686,3
20779678836580,0.72263247,8.877372,4.0869412,3
20779681215538,0.70348984,8.886943,4.063013,3
20779683594549,0.70348984,8.882157,4.058227,3
20779685973507,0.6939186,8.882157,4.058227,3
20779688352465,0.6652047,8.886943,4.0438704,3
20779690731476,0.6364908,8.896515,4.0534415,3
20779693110434,0.60777694,8.896515,4.063013,3
20779695489445,0.5886344,8.925228,4.082155,3
20779697868403,0.55034924,8.906086,4.106084,3
20779700247361,0.52163535,8.9013,4.125226,3
20779702626372,0.5312066,8.9013,4.1491547,3
20779705005330,0.49292147,8.925228,4.182654,3
20779707384288,0.46899325,8.939586,4.211368,3
20779709763299,0.44027936,8.944371,4.220939,3
20779712142205,0.44985065,8.930014,4.240082,3
20779714521215,0.4642076,8.920443,4.2592244,3
20779716900226,0.46899325,8.906086,4.2831526,3
20779719279184,0.5024927,8.891729,4.3070807,3
20779721658195,0.56470615,8.872586,4.302295,3
20779724037153,0.6029913,8.896515,4.302295,3
20779726416111,0.6269195,8.9013,4.2927237,3
20779728795122,0.6795616,8.872586,4.302295,3
20779731174080,0.71306115,8.843872,4.316652,3
20779733553038,0.7369894,8.848659,4.316652,3
20779735932049,0.7609176,8.863015,4.302295,3
20779738311007,0.7800602,8.872586,4.2975097,3
20779740689965,0.7896315,8.853444,4.2975097,3
20779743068976,0.7704889,8.85823,4.3118663,3
20779745447934,0.7800602,8.867801,4.3118663,3
20779747826945,0.76570326,8.863015,4.316652,3
20779750205903,0.72263247,8.863015,4.2927237,3
20779752584861,0.70348984,8.843872,4.3070807,3
20779754963872,0.6795616,8.839087,4.3118663,3
20779757342830,0.64606214,8.839087,4.3118663,3
20779759721840,0.6412765,8.834301,4.321438,3
20779762100799,0.6269195,8.834301,4.3262234,3
20779764479757,0.6221339,8.872586,4.316652,3
20779766858767,0.6221339,8.877372,4.287938,3
20779769237726,0.61734825,8.891729,4.2831526,3
20779771616684,0.60777694,8.877372,4.2687955,3
20779773995695,0.63170516,8.872586,4.249653,3
20779776374653,0.6556334,8.896515,4.254439,3
20779778753611,0.66041905,8.915657,4.2257247,3
20779781132622,0.66999036,8.920443,4.2161536,3
20779783511580,0.6939186,8.944371,4.2017965,3
20779785890538,0.7082755,8.953942,4.197011,3
20779788269549,0.7082755,8.958728,4.173083,3
20779790648507,0.67477596,8.944371,4.1635113,3
20779793027517,0.66041905,8.9348,4.1491547,3
20779795406476,0.6364908,8.9348,4.1635113,3
20779797785434,0.6029913,8.939586,4.1443686,3
20779800164445,0.56470615,8.944371,4.15394,3
20779802543403,0.4977071,8.949157,4.1635113,3
20779804922361,0.44985065,8.939586,4.1491547,3
20779807301372,0.39720857,8.939586,4.1491547,3
20779809680330,0.37806597,8.944371,4.1635113,3
20779812059340,0.3589234,8.953942,4.1635113,3
20779814438299,0.3493521,8.958728,4.1874394,3
20779816817257,0.33499518,8.953942,4.173083,3
20779819196267,0.35413775,8.949157,4.173083,3
20779821575226,0.3924229,8.9348,4.168297,3
20779823954184,0.4211368,8.9348,4.182654,3
20779826333195,0.46899325,8.920443,4.173083,3
20779828712153,0.51206404,8.915657,4.1922255,3
20779831091163,0.5599205,8.896515,4.1922255,3
20779833470122,0.59342,8.915657,4.168297,3
20779835849080,0.6125626,8.920443,4.1635113,3
20779838228090,0.6125626,8.925228,4.173083,3
20779840607049,0.6364908,8.891729,4.1635113,3
20779842986007,0.6556334,8.915657,4.1443686,3
20779845365017,0.6412765,8.915657,4.1635113,3
20779847743976,0.61734825,8.920443,4.173083,3
20779850122986,0.5599205,8.906086,4.173083,3
20779852501945,0.526421,8.920443,4.173083,3
20779854880903,0.5024927,8.930014,4.1778684,3
20779857259913,0.4546363,8.939586,4.1922255,3
20779859638872,0.4211368,8.944371,4.197011,3
20779862017830,0.38285163,8.920443,4.2017965,3
20779864396840,0.3589234,8.915657,4.2161536,3
20779866775799,0.37806597,8.906086,4.2161536,3
20779869154757,0.42592242,8.906086,4.2352962,3
20779871533767,0.44506502,8.906086,4.240082,3
20779873912726,0.526421,8.915657,4.249653,3
20779876291736,0.57906306,8.9108715,4.249653,3
20779878670695,0.64606214,8.891729,4.254439,3
20779881049653,0.6843473,8.9108715,4.249653,3
20779883428663,0.7178468,8.896515,4.254439,3
20779885807622,0.7704889,8.886943,4.2448673,3
20779888186580,0.79920274,8.882157,4.2592244,3
20779890565590,0.79920274,8.886943,4.2592244,3
20779892944549,0.7752745,8.872586,4.2448673,3
20779895323559,0.7465607,8.9013,4.2592244,3
20779897702517,0.6843473,8.896515,4.2448673,3
20779900081476,0.6125626,8.9013,4.240082,3
20779902460486,0.53599226,8.9013,4.249653,3
20779904839445,0.45942193,8.9108715,4.2161536,3
20779907218403,0.37806597,8.915657,4.206582,3
20779909597413,0.34456646,8.925228,4.197011,3
20779911976372,0.28235307,8.925228,4.1778684,3
20779914355330,0.28235307,8.939586,4.168297,3
20779916734340,0.25842485,8.953942,4.1587257,3
20779919113299,0.27756742,8.963513,4.15394,3
20779921492309,0.28235307,8.973084,4.125226,3
20779923871267,0.30149564,8.953942,4.1443686,3
20779926250226,0.3684947,8.949157,4.1443686,3
20779928629236,0.42592242,8.9348,4.125226,3
20779931008195,0.47377887,8.9348,4.1108694,3
20779933387153,0.5168497,8.920443,4.101298,3
20779935766163,0.56470615,8.920443,4.082155,3
20779938145122,0.59342,8.9108715,4.106084,3
20779940524080,0.60777694,8.925228,4.082155,3
20779942903038,0.5886344,8.9013,4.0869412,3
20779945282049,0.5838487,8.872586,4.0965123,3
20779947661007,0.57427746,8.867801,4.115655,3
20779950040017,0.5455636,8.867801,4.139583,3
20779952418976,0.49292147,8.872586,4.139583,3
20779954797986,0.4642076,8.891729,4.139583,3
20779957176945,0.4354937,8.867801,4.1491547,3
20779959555903,0.38763726,8.877372,4.1587257,3
20779961934913,0.37806597,8.891729,4.1635113,3
20779964313872,0.38763726,8.886943,4.220939,3
20779966692882,0.37328035,8.872586,4.220939,3
20779969071840,0.42592242,8.896515,4.240082,3
20779971450799,0.4642076,8.886943,4.2352962,3
20779973829809,0.4977071,8.886943,4.2448673,3
20779976208767,0.51206404,8.886943,4.23051,3
20779978587726,0.55513483,8.9013,4.240082,3
20779980966736,0.5886344,8.9108715,4.249653,3
20779983345695,0.64606214,8.925228,4.2592244,3
20779985724653,0.6556334,8.920443,4.26401,3
20779988103663,0.6652047,8.9348,4.254439,3
20779990482622,0.66999036,8.925228,4.26401,3
20779992861632,0.66999036,8.930014,4.2592244,3
20779995240590,0.6221339,8.920443,4.278367,3
20779997619549,0.5838487,8.920443,4.2831526,3
20779999998559,0.5407779,8.9013,4.2927237,3
20780002377517,0.51206404,8.949157,4.273581,3
20780004756476,0.47377887,8.963513,4.273581,3
20780007135486,0.4211368,8.944371,4.278367,3
20780009514445,0.40677986,8.930014,4.254439,3
20780011893455,0.38285163,8.930014,4.2352962,3
20780014272413,0.37328035,8.939586,4.2448673,3
20780016651372,0.36370903,8.944371,4.2448673,3
20780019030382,0.37328035,8.9348,4.2161536,3
20780021409340,0.38763726,8.930014,4.1922255,3
20780023788299,0.41156548,8.925228,4.1874394,3
20780026167309,0.44027936,8.944371,4.1635113,3
20780028546267,0.47856453,8.944371,4.1587257,3
20780030925226,0.5072784,8.939586,4.1587257,3
20780033304236,0.5407779,8.915657,4.15394,3
20780035683195,0.5838487,8.930014,4.1491547,3
20780038062205,0.61734825,8.930014,4.15394,3
20780040441163,0.63170516,8.939586,4.139583,3
20780042820122,0.6364908,8.930014,4.168297,3
20780045199132,0.6412765,8.915657,4.1635113,3
20780047578090,0.65084773,8.9013,4.1874394,3
20780049957049,0.6412765,8.925228,4.2017965,3
20780052336059,0.63170516,8.925228,4.206582,3
20780054715017,0.59342,8.915657,4.2017965,3
20780057094028,0.55513483,8.9108715,4.1874394,3
20780059472986,0.5407779,8.886943,4.2017965,3
20780061851945,0.5407779,8.9108715,4.1922255,3
20780064230955,0.53599226,8.925228,4.2017965,3
20780066609913,0.5168497,8.906086,4.211368,3
20780068988872,0.5168497,8.886943,4.197011,3
20780071367882,0.51206404,8.896515,4.206582,3
20780073746840,0.5024927,8.906086,4.197011,3
20780076125851,0.4977071,8.906086,4.182654,3
20780078504809,0.4977071,8.9108715,4.1922255,3
20780080883767,0.526421,8.9108715,4.1874394,3
20780083262778,0.52163535,8.9013,4.197011,3
20780085641736,0.52163535,8.9108715,4.197011,3
20780088020695,0.51206404,8.915657,4.1922255,3
20780090399705,0.5072784,8.906086,4.1778684,3
20780092778663,0.5168497,8.920443,4.182654,3
20780095157622,0.5072784,8.949157,4.206582,3
20780097536632,0.47856453,8.930014,4.1922255,3
20780099915590,0.4546363,8.944371,4.182654,3
20780102294601,0.43070808,8.963513,4.182654,3
20780104673559,0.3924229,8.949157,4.182654,3
20780107052517,0.40677986,8.963513,4.1874394,3
20780109431528,0.37806597,8.953942,4.1922255,3
20780111810486,0.37806597,8.953942,4.1922255,3
20780114189445,0.36370903,8.953942,4.1922255,3
20780116568455,0.37806597,8.958728,4.2017965,3
20780118947413,0.37806597,8.944371,4.1874394,3
20780121326424,0.38763726,8.939586,4.182654,3
20780123705382,0.40677986,8.920443,4.173083,3
20780126084340,0.41635114,8.930014,4.197011,3
20780128463351,0.4354937,8.9108715,4.1922255,3
20780130842309,0.43070808,8.906086,4.1922255,3
20780133221267,0.4354937,8.9013,4.1874394,3
20780135600278,0.45942193,8.891729,4.2017965,3
20780137979236,0.4546363,8.877372,4.2017965,3
20780140358247,0.47377887,8.882157,4.1874394,3
20780142737205,0.46899325,8.891729,4.1874394,3
20780145116163,0.4642076,8.872586,4.1778684,3
20780147495174,0.47856453,8.886943,4.1635113,3
20780149874132,0.46899325,8.9108715,4.197011,3
20780152253090,0.4881358,8.9348,4.197011,3
20780154632101,0.49292147,8.920443,4.211368,3
20780157011059,0.4833502,8.906086,4.2161536,3
20780159390017,0.47377887,8.896515,4.2161536,3
20780161769028,0.4881358,8.920443,4.2161536,3
20780164147986,0.47856453,8.9013,4.206582,3
20780166526945,0.47377887,8.896515,4.211368,3
20780168905955,0.49292147,8.9108715,4.2161536,3
20780171284913,0.52163535,8.925228,4.2257247,3
20780173663924,0.52163535,8.915657,4.2161536,3
20780176042882,0.5312066,8.906086,4.2161536,3
20780178421840,0.52163535,8.9108715,4.2161536,3
20780180800851,0.5312066,8.9348,4.2161536,3
20780183179809,0.51206404,8.920443,4.23051,3
20780185558820,0.52163535,8.906086,4.2161536,3
20780187937778,0.52163535,8.915657,4.1874394,3
20780190316736,0.5072784,8.939586,4.206582,3
20780192695747,0.49292147,8.920443,4.2161536,3
20780195074705,0.46899325,8.930014,4.206582,3
20780197453663,0.4642076,8.920443,4.206582,3
20780199832674,0.44506502,8.906086,4.211368,3
20780202211632,0.41635114,8.925228,4.220939,3
20780204590590,0.43070808,8.925228,4.2161536,3
20780206969601,0.4354937,8.920443,4.2017965,3
20780209348507,0.42592242,8.9108715,4.206582,3
20780211727570,0.41635114,8.906086,4.2352962,3
20780214106528,0.41635114,8.891729,4.240082,3
20780216485486,0.44027936,8.9013,4.23051,3
20780218864497,0.4642076,8.9013,4.206582,3
20780221243455,0.4833502,8.9108715,4.206582,3
20780223622413,0.5072784,8.896515,4.1922255,3
20780226001424,0.51206404,8.9108715,4.1922255,3
20780228380382,0.526421,8.9348,4.2017965,3
20780230759392,0.53599226,8.939586,4.23051,3
20780233138351,0.5312066,8.920443,4.23051,3
20780235517309,0.5407779,8.9348,4.220939,3
20780237896320,0.5407779,8.9348,4.211368,3
20780240275278,0.5599205,8.925228,4.2257247,3
20780242654236,0.5455636,8.915657,4.2352962,3
20780245033247,0.52163535,8.9108715,4.2448673,3
20780247412205,0.49292147,8.9108715,4.249653,3
20780249791215,0.47856453,8.9013,4.249653,3
20780252170174,0.46899325,8.9013,4.254439,3
20780254549132,0.44027936,8.9013,4.26401,3
20780256928142,0.43070808,8.925228,4.26401,3
20780259307101,0.4211368,8.915657,4.254439,3
20780261686059,0.42592242,8.930014,4.254439,3
20780264065070,0.40677986,8.925228,4.26401,3
20780266444028,0.43070808,8.925228,4.2352962,3
20780268822986,0.42592242,8.920443,4.23051,3
20780271201997,0.4211368,8.925228,4.23051,3
20780273580955,0.4546363,8.925228,4.2161536,3
20780275959913,0.4546363,8.930014,4.211368,3
20780278338924,0.46899325,8.953942,4.2017965,3
20780280717882,0.4642076,8.949157,4.197011,3
20780283096892,0.47856453,8.939586,4.173083,3
20780285475851,0.4642076,8.925228,4.173083,3
20780287854809,0.4546363,8.925228,4.197011,3
20780290233820,0.4354937,8.939586,4.1922255,3
20780292612778,0.41635114,8.9348,4.1635113,3
20780294991736,0.3924229,8.920443,4.1587257,3
20780297370747,0.37806597,8.9348,4.1587257,3
20780299749705,0.3397808,8.949157,4.1587257,3
20780302128715,0.3397808,8.949157,4.168297,3
20780304507674,0.32542387,8.944371,4.1635113,3
20780306886632,0.30149564,8.9348,4.1778684,3
20780309265642,0.3062813,8.939586,4.1874394,3
20780311644601,0.32542387,8.939586,4.168297,3
20780314023611,0.30149564,8.939586,4.1491547,3
20780316402570,0.3493521,8.925228,4.1443686,3
20780318781528,0.35413775,8.920443,4.1491547,3
20780321160538,0.39720857,8.915657,4.15394,3
20780323539497,0.43070808,8.930014,4.1491547,3
20780325918403,0.4833502,8.925228,4.1635113,3
20780328297465,0.49292147,8.906086,4.15394,3
20780330676424,0.5072784,8.920443,4.1491547,3
20780333055382,0.51206404,8.930014,4.15394,3
20780335434392,0.4881358,8.920443,4.1635113,3
20780337813351,0.4833502,8.915657,4.173083,3
20780340192309,0.49292147,8.915657,4.1922255,3
20780342571320,0.4833502,8.920443,4.1874394,3
20780344950278,0.4546363,8.920443,4.211368,3
20780347329288,0.42592242,8.9108715,4.206582,3
20780349708247,0.3924229,8.925228,4.2161536,3
20780352087205,0.37328035,8.906086,4.220939,3
20780354466215,0.37328035,8.925228,4.249653,3
20780356845174,0.36370903,8.920443,4.26401,3
20780359224132,0.3493521,8.930014,4.2592244,3
20780361603142,0.3397808,8.9108715,4.2687955,3
20780363982101,0.34456646,8.920443,4.273581,3
20780366361111,0.37328035,8.930014,4.278367,3
20780368740017,0.38763726,8.9348,4.278367,3
20780371119028,0.41156548,8.944371,4.254439,3
20780373498038,0.4642076,8.915657,4.2448673,3
20780375876997,0.49292147,8.915657,4.249653,3
20780378255955,0.49292147,8.915657,4.254439,3
20780380634965,0.526421,8.906086,4.240082,3
20780383013924,0.5599205,8.906086,4.2161536,3
20780385392934,0.55034924,8.9108715,4.206582,3
20780387771892,0.57427746,8.9108715,4.2161536,3
20780390150851,0.59342,8.9108715,4.2161536,3
20780392529861,0.5886344,8.896515,4.2161536,3
20780394908767,0.56470615,8.886943,4.220939,3
20780397287778,0.5407779,8.882157,4.2257247,3
20780399666788,0.5312066,8.891729,4.206582,3
20780402045747,0.526421,8.9013,4.197011,3
20780404424757,0.5407779,8.9108715,4.1778684,3
20780406803715,0.5312066,8.925228,4.197011,3
20780409182674,0.49292147,8.925228,4.206582,3
20780411561684,0.47377887,8.906086,4.206582,3
20780413940642,0.49292147,8.891729,4.1778684,3
20780416319601,0.5072784,8.896515,4.206582,3
20780418698611,0.5312066,8.9013,4.206582,3
20780421077570,0.5312066,8.882157,4.197011,3
20780423456528,0.56470615,8.891729,4.1874394,3
20780425835538,0.5694918,8.896515,4.1635113,3
20780428214497,0.57906306,8.891729,4.168297,3
20780430593507,0.5886344,8.886943,4.173083,3
20780432972465,0.59342,8.882157,4.1778684,3
20780435351424,0.6029913,8.9013,4.182654,3
20780437730434,0.6125626,8.906086,4.168297,3
20780440109392,0.61734825,8.9108715,4.1491547,3
20780442488351,0.57427746,8.915657,4.15394,3
20780444867361,0.56470615,8.930014,4.15394,3
20780447246320,0.52163535,8.915657,4.1635113,3
20780449625330,0.49292147,8.9108715,4.1635113,3
20780452004288,0.45942193,8.9348,4.1635113,3
20780454383247,0.4354937,8.949157,4.1635113,3
20780456762257,0.3924229,8.949157,4.1587257,3
20780459141215,0.3589234,8.963513,4.1635113,3
20780461520174,0.33499518,8.949157,4.173083,3
20780463899184,0.32063824,8.958728,4.1778684,3
20780466278142,0.31585258,8.968299,4.2017965,3
20780468657101,0.32063824,8.939586,4.2017965,3
20780471036111,0.32542387,8.944371,4.211368,3
20780473415070,0.34456646,8.925228,4.211368,3
20780475794080,0.3493521,8.9013,4.2161536,3
20780478173038,0.38763726,8.915657,4.23051,3
20780480551997,0.4019942,8.9013,4.23051,3
20780482931007,0.40677986,8.891729,4.2352962,3
20780485309965,0.42592242,8.872586,4.254439,3
20780487688924,0.4211368,8.872586,4.240082,3
20780490067934,0.41635114,8.891729,4.2448673,3
20780492446892,0.43070808,8.882157,4.240082,3
20780494825851,0.39720857,8.882157,4.249653,3
20780497204861,0.37806597,8.891729,4.240082,3
20780499583820,0.38763726,8.915657,4.2257247,3
20780501962830,0.37806597,8.920443,4.206582,3
20780504341788,0.35413775,8.9108715,4.206582,3
20780506720695,0.32542387,8.9348,4.1922255,3
20780509099757,0.3062813,8.9108715,4.1922255,3
20780511478715,0.30149564,8.9108715,4.1922255,3
20780513857726,0.28713873,8.939586,4.1778684,3
20780516236684,0.29671,8.9348,4.1635113,3
20780518615642,0.32063824,8.944371,4.168297,3
20780520994653,0.33499518,8.958728,4.173083,3
20780523373611,0.3397808,8.968299,4.1587257,3
20780525752570,0.38285163,8.968299,4.1587257,3
20780528131580,0.38763726,8.953942,4.1587257,3
20780530510538,0.4019942,8.953942,4.1491547,3
20780532889497,0.40677986,8.963513,4.1587257,3
20780535268507,0.44506502,8.973084,4.1443686,3
20780537647465,0.44985065,8.958728,4.1347976,3
20780540026476,0.45942193,8.958728,4.1491547,3
20780542405434,0.44506502,8.973084,4.1587257,3
20780544784392,0.41635114,8.9348,4.1778684,3
20780547163403,0.41635114,8.9348,4.1778684,3
20780549542361,0.4019942,8.9348,4.1874394,3
20780551921320,0.38285163,8.9348,4.197011,3
20780554300330,0.36370903,8.939586,4.211368,3
20780556679288,0.32542387,8.944371,4.2161536,3
20780559058247,0.33020952,8.939586,4.220939,3
20780561437257,0.33499518,8.9108715,4.2257247,3
20780563816215,0.34456646,8.915657,4.2448673,3
20780566195226,0.33020952,8.930014,4.240082,3
20780568574184,0.3397808,8.915657,4.240082,3
20780570953142,0.36370903,8.906086,4.2448673,3
20780573332153,0.3589234,8.891729,4.249653,3
20780575711111,0.3924229,8.896515,4.249653,3
20780578090070,0.42592242,8.9013,4.249653,3
20780580469080,0.4354937,8.9013,4.23051,3
20780582848038,0.4211368,8.930014,4.2161536,3
20780585227049,0.4546363,8.9013,4.2257247,3
20780587606007,0.45942193,8.882157,4.220939,3
20780589984965,0.4546363,8.886943,4.2257247,3
20780592363976,0.44985065,8.9013,4.2161536,3
20780594742934,0.44985065,8.906086,4.2161536,3
20780597121892,0.44985065,8.915657,4.197011,3
20780599500903,0.44506502,8.925228,4.2017965,3
20780601879861,0.42592242,8.930014,4.1874394,3
20780604258820,0.4354937,8.925228,4.2017965,3
20780606637830,0.4211368,8.930014,4.2017965,3
20780609016788,0.39720857,8.925228,4.211368,3
20780611395799,0.37806597,8.920443,4.2257247,3
20780613774757,0.3684947,8.906086,4.211368,3
20780616153715,0.37806597,8.9108715,4.2161536,3
20780618532726,0.3493521,8.925228,4.2257247,3
20780620911684,0.34456646,8.896515,4.211368,3
20780623290642,0.32542387,8.882157,4.211368,3
20780625669653,0.33499518,8.872586,4.197011,3
20780628048611,0.31106696,8.886943,4.1922255,3
20780630427622,0.3062813,8.886943,4.197011,3
20780632806580,0.32542387,8.891729,4.1922255,3
20780635185538,0.36370903,8.915657,4.1922255,3
20780637564549,0.3589234,8.925228,4.2017965,3
20780639943507,0.37328035,8.939586,4.1922255,3
20780642322465,0.3684947,8.953942,4.1874394,3
20780644701476,0.38763726,8.963513,4.2017965,3
20780647080434,0.4019942,8.968299,4.2161536,3
20780649459392,0.39720857,8.977871,4.23051,3
20780651838403,0.3924229,8.968299,4.23051,3
20780654217361,0.4211368,8.977871,4.240082,3
20780656596372,0.44027936,8.997013,4.220939,3
20780658975330,0.4546363,8.977871,4.2161536,3
20780661354288,0.4546363,8.963513,4.206582,3
20780663733299,0.47856453,8.953942,4.220939,3
20780666112257,0.4881358,8.958728,4.2257247,3
20780668491215,0.5024927,8.953942,4.211368,3
20780670870226,0.51206404,8.939586,4.211368,3
20780673249184,0.5407779,8.9348,4.2017965,3
20780675628142,0.5455636,8.906086,4.1874394,3
20780678007153,0.526421,8.896515,4.1778684,3
20780680386111,0.5599205,8.877372,4.173083,3
20780682765122,0.5455636,8.896515,4.197011,3
20780685144080,0.5312066,8.882157,4.173083,3
20780687523038,0.52163535,8.877372,4.1587257,3
20780689902049,0.52163535,8.891729,4.15394,3
20780692281007,0.5072784,8.906086,4.1491547,3
20780694660017,0.47856453,8.896515,4.15394,3
20780697038976,0.4546363,8.9348,4.1491547,3
20780699417934,0.43070808,8.9348,4.1587257,3
20780701796945,0.41635114,8.925228,4.1491547,3
20780704175903,0.4211368,8.944371,4.173083,3
20780706554861,0.38763726,8.944371,4.168297,3
20780708933872,0.34456646,8.9348,4.173083,3
20780711312830,0.29671,8.930014,4.173083,3
20780713691788,0.29192436,8.944371,4.1922255,3
20780716070799,0.29192436,8.939586,4.1922255,3
20780718449757,0.29192436,8.930014,4.197011,3
20780720828767,0.29192436,8.9348,4.220939,3
20780723207726,0.28713873,8.963513,4.2257247,3
20780725586684,0.28235307,8.949157,4.220939,3
20780727965695,0.33020952,8.920443,4.2161536,3
20780730344653,0.3493521,8.906086,4.220939,3
20780732723611,0.37328035,8.9108715,4.240082,3
20780735102622,0.4019942,8.896515,4.23051,3
20780737481580,0.41156548,8.886943,4.254439,3
20780739860590,0.44985065,8.891729,4.249653,3
20780742239549,0.4546363,8.872586,4.254439,3
20780744618507,0.45942193,8.863015,4.278367,3
20780746997517,0.47377887,8.877372,4.249653,3
20780749376476,0.45942193,8.882157,4.2352962,3
20780751755434,0.44985065,8.886943,4.2352962,3
20780754134445,0.40677986,8.882157,4.2448673,3
20780756513403,0.36370903,8.9013,4.2448673,3
20780758892361,0.3397808,8.925228,4.2448673,3
20780761271372,0.3062813,8.915657,4.23051,3
20780763650330,0.29671,8.906086,4.206582,3
20780766029288,0.2727818,8.896515,4.2017965,3
20780768408299,0.25842485,8.9013,4.197011,3
20780770787257,0.23449662,8.930014,4.2161536,3
20780773166267,0.23928227,8.9348,4.23051,3
20780775545226,0.21535404,8.949157,4.2352962,3
20780777924184,0.22492532,8.944371,4.23051,3
20780780303195,0.24885355,8.953942,4.2257247,3
20780782682153,0.26799613,8.953942,4.206582,3
20780785061111,0.29671,8.949157,4.197011,3
20780787440122,0.29192436,8.953942,4.2017965,3
20780789819080,0.3062813,8.944371,4.197011,3
20780792198038,0.32542387,8.939586,4.2161536,3
20780794577049,0.33020952,8.958728,4.2257247,3
20780796956007,0.3684947,8.968299,4.2161536,3
20780799335017,0.3924229,8.949157,4.211368,3
20780801713976,0.38285163,8.939586,4.1922255,3
20780804092934,0.38763726,8.944371,4.173083,3
20780806471945,0.3924229,8.953942,4.1635113,3
20780808850903,0.41156548,8.958728,4.168297,3
20780811229913,0.41635114,8.958728,4.1635113,3
20780813608872,0.40677986,8.939586,4.1635113,3
20780815987830,0.4211368,8.9348,4.173083,3
20780818366840,0.47377887,8.9108715,4.1443686,3
20780820745799,0.44506502,8.930014,4.1491547,3
20780823124757,0.41156548,8.958728,4.1587257,3
20780825503767,0.4354937,8.949157,4.1635113,3
20780827882726,0.43070808,8.973084,4.1587257,3
20780830261736,0.43070808,8.977871,4.168297,3
20780832640695,0.44506502,8.953942,4.182654,3
20780835019653,0.44027936,8.944371,4.1587257,3
20780837398663,0.44506502,8.968299,4.168297,3
20780839777622,0.4211368,8.963513,4.15394,3
20780842156580,0.42592242,8.953942,4.1778684,3
20780844535590,0.41635114,8.958728,4.197011,3
20780846914549,0.4019942,8.939586,4.206582,3
20780849293507,0.37328035,8.920443,4.197011,3
20780851672517,0.37328035,8.939586,4.182654,3
20780854051476,0.36370903,8.9348,4.182654,3
20780856430486,0.37806597,8.930014,4.168297,3
20780858809445,0.36370903,8.9108715,4.168297,3
20780861188403,0.37328035,8.9013,4.197011,3
20780863567413,0.3397808,8.906086,4.206582,3
20780865946372,0.34456646,8.886943,4.2352962,3
20780868325330,0.32063824,8.877372,4.211368,3
20780870704340,0.3062813,8.886943,4.2017965,3
20780873083299,0.29192436,8.863015,4.2017965,3
20780875462309,0.28235307,8.848659,4.2161536,3
20780877841267,0.3062813,8.834301,4.23051,3
20780880220174,0.2727818,8.819944,4.254439,3
20780882599236,0.30149564,8.810373,4.254439,3
20780884978142,0.31585258,8.796016,4.240082,3
20780887357153,0.32542387,8.863015,4.220939,3
20780889736163,0.33020952,8.867801,4.2448673,3
20780892115122,0.35413775,8.863015,4.2352962,3
20780894494080,0.35413775,8.848659,4.254439,3
20780896873090,0.36370903,8.853444,4.2687955,3
20780899252049,0.4019942,8.853444,4.2687955,3
20780901631007,0.39720857,8.829515,4.26401,3
20780904010017,0.4211368,8.848659,4.2831526,3
20780906388976,0.4211368,8.834301,4.2592244,3
20780908767986,0.4354937,8.843872,4.26401,3
20780911146945,0.4354937,8.863015,4.2687955,3
20780913525903,0.44027936,8.863015,4.2687955,3
20780915904913,0.43070808,8.886943,4.254439,3
20780918283872,0.41156548,8.920443,4.2592244,3
20780920662882,0.4211368,8.949157,4.23051,3
20780923041840,0.38763726,8.953942,4.2257247,3
20780925420799,0.35413775,8.968299,4.2352962,3
20780927799809,0.31585258,8.997013,4.2257247,3
20780930178767,0.27756742,9.01137,4.2161536,3
20780932557726,0.23928227,9.035298,4.206582,3
20780934936736,0.19142582,9.044869,4.1635113,3
20780937315695,0.148355,9.0544405,4.1778684,3
20780939694653,0.124426775,9.059227,4.173083,3
20780942073663,0.08135597,9.068798,4.1922255,3
20780944452622,0.11006984,9.078369,4.2017965,3
20780946831632,0.1052842,9.078369,4.168297,3
20780949210590,0.11964113,9.092726,4.168297,3
20780951589549,0.17706887,9.102298,4.168297,3
20780953968559,0.26799613,9.097511,4.1635113,3
20780956347517,0.31585258,9.078369,4.182654,3
20780958726476,0.3684947,9.08794,4.23051,3
20780961105486,0.41635114,9.097511,4.2257247,3
20780963484445,0.45942193,9.068798,4.220939,3
20780965863403,0.49292147,9.078369,4.168297,3
20780968242413,0.51206404,9.092726,4.115655,3
20780970621372,0.4881358,9.068798,4.106084,3
20780973000382,0.44985065,9.0544405,4.130012,3
20780975379340,0.38285163,9.040084,4.168297,3
20780977758299,0.3062813,9.025727,4.206582,3
20780980137309,0.24885355,9.006584,4.211368,3
20780982516267,0.17228323,8.968299,4.1778684,3
20780984895226,0.11006984,8.9013,4.1778684,3
20780987274236,0.07178468,8.877372,4.2352962,3
20780989653195,0.043070808,8.85823,4.2831526,3
20780992032153,0.033499517,8.815159,4.26401,3
20780994411163,0.02871387,8.834301,4.2592244,3
20780996790122,0.038285162,8.843872,4.211368,3
20780999169132,0.17706887,8.853444,4.1347976,3
20781001548090,0.23449662,8.839087,4.106084,3
20781003927049,0.4211368,8.671589,4.005585,3
20781006306059,0.6843473,8.705089,4.0869412,3
20781008685017,0.91884387,8.800801,4.1443686,3
20781011063924,0.91405827,8.724232,4.072584,3
20781013442986,0.9236295,8.7577305,4.1108694,3
20781015821945,1.1246266,8.843872,4.0295134,3
20781018200955,1.2873386,8.805588,3.9625144,3
20781020579913,1.0719845,8.891729,4.1922255,3
20781022958872,1.0049855,8.992228,4.2927237,3
20781025337882,0.90448695,8.987442,4.240082,3
20781027716840,0.8039884,8.973084,4.23051,3
20781030095747,0.6652047,9.078369,4.2448673,3
20781032474809,0.5694918,9.102298,4.101298,3
20781034853767,0.45942193,9.107083,4.125226,3
20781037232778,0.2440679,9.083155,4.2161536,3
20781039611736,0.19142582,9.068798,4.2352962,3
20781041990695,0.16749759,9.025727,4.240082,3
20781044369705,0.19142582,9.030513,4.23051,3
20781046748663,0.16271193,8.987442,4.139583,3
20781049127622,0.148355,8.958728,4.101298,3
20781051506632,0.2440679,8.9348,4.106084,3
20781053885590,0.4019942,8.9108715,4.15394,3
20781056264549,0.4881358,8.882157,4.1635113,3
20781058643559,0.526421,8.829515,4.197011,3
20781061022517,0.60777694,8.839087,4.197011,3
20781063401528,0.67477596,8.848659,4.1347976,3
20781065780486,0.66041905,8.834301,4.130012,3
20781068159445,0.6652047,8.805588,4.1491547,3
20781070538455,0.7082755,8.85823,4.2017965,3
20781072917413,0.6364908,8.882157,4.249653,3
20781075296372,0.5168497,8.85823,4.2831526,3
20781077675382,0.47377887,8.834301,4.3118663,3
20781080054340,0.43070808,8.891729,4.302295,3
20781082433351,0.3062813,8.930014,4.287938,3
20781084812309,0.22013968,8.915657,4.2592244,3
20781087191267,0.18664017,8.944371,4.278367,3
20781089570278,0.2009971,8.958728,4.316652,3
20781091949236,0.22492532,8.9348,4.321438,3
20781094328195,0.23928227,8.891729,4.321438,3
20781096707205,0.3062813,8.891729,4.316652,3
20781099086163,0.3684947,8.886943,4.2927237,3
20781101465122,0.4211368,8.829515,4.26401,3
20781103844132,0.47856453,8.810373,4.2831526,3
20781106223038,0.5694918,8.810373,4.2831526,3
20781108602049,0.72741807,8.685946,4.2257247,3
20781110981059,0.82313097,8.475378,4.1347976,3
20781113360017,0.63170516,8.5423765,4.0390844,3
20781115739028,0.6987042,8.685946,3.751946,3
20781118117986,0.63170516,8.690732,3.7758741,3
20781120496945,0.22013968,8.489735,3.9290147,3
20781122875955,-0.17228323,8.819944,4.1635113,3
20781125254913,0.033499517,9.145369,4.287938,3
20781127633872,-0.42592242,8.9348,4.570291,3
20781130012882,-0.6795616,8.748159,4.6372905,3
20781132391840,-0.37328035,9.092726,4.354937,3
20781134770851,0.033499517,9.23151,3.991228,3
20781137149809,-0.18185452,8.963513,3.8141594,3
20781139528767,0.033499517,8.705089,3.656233,3
20781141907778,0.72741807,8.52802,3.7854455,3
20781144286736,1.0911272,8.590233,4.331009,3
20781146665695,1.1964114,8.532805,4.3501515,3
20781149044705,1.1724831,8.796016,4.125226,3
20781151423663,1.402194,9.135797,3.7854455,3
20781153802622,1.4596218,8.939586,3.1872396,3
20781156181632,1.4644074,9.178867,3.4887354,3
20781158560590,1.0863415,9.020942,3.991228,3
20781160939601,0.79920274,8.920443,4.699504,3
20781163318559,0.43070808,9.020942,5.1349974,3
20781165697517,0.06699903,9.2075815,4.9770713,3
20781168076528,-0.3493521,9.389436,4.4889355,3
20781170455486,-0.59342,9.480363,3.885944,3
20781172834445,-0.72741807,9.537791,3.6323047,3
20781175213455,-0.8422736,9.432507,3.9338005,3
20781177592413,-0.8566305,9.212367,4.5224347,3
20781179971424,-0.81834537,9.064013,5.0392847,3
20781182350382,-0.6556334,9.030513,5.2642097,3
20781184729340,-0.41635114,8.958728,5.005785,3
20781187108351,-0.11006984,8.9826565,4.479364,3
20781189487309,0.19621146,8.992228,4.019942,3
20781191866267,0.56470615,8.949157,3.9194436,3
20781194245278,0.9379865,8.762517,4.0965123,3
20781196624236,1.2299109,8.671589,4.3405805,3
20781199003195,1.4596218,8.599805,4.426722,3
