t_ns,ax,ay,az,bx,by,bz
15855468721342,-0.4019942,9.01137,4.0869412,0.0,0.0,0.0
15855471100509,-0.37328035,9.030513,4.0007997,0.0,0.0,0.0
15855473479624,-0.35413775,8.9826565,3.938586,0.0,0.0,0.0
15855475858790,-0.33499518,8.973084,3.9720855,0.0,0.0,0.0
15855478238009,-0.31106696,8.9826565,4.048656,0.0,0.0,0.0
15855480617176,-0.27756742,8.968299,4.101298,0.0,0.0,0.0
15855482996394,-0.2009971,8.953942,4.1108694,0.0,0.0,0.0
15855485375561,-0.17706887,8.963513,4.0677986,0.0,0.0,0.0
15855487754780,-0.148355,8.992228,3.9720855,0.0,0.0,0.0
15855490133946,-0.11964113,8.977871,3.9050865,0.0,0.0,0.0
15855492513113,-0.11964113,8.963513,3.9146578,0.0,0.0,0.0
15855494892332,-0.16271193,8.9348,4.005585,0.0,0.0,0.0
15855497271499,-0.20578274,8.930014,4.0773697,0.0,0.0,0.0
15855499650717,-0.2632105,8.944371,4.106084,0.0,0.0,0.0
15855502029884,-0.28713873,8.944371,4.0677986,0.0,0.0,0.0
15855504409103,-0.3493521,8.958728,4.0103707,0.0,0.0,0.0
15855506788269,-0.39720857,8.963513,3.991228,0.0,0.0,0.0
15855509167488,-0.4546363,8.963513,3.9864426,0.0,0.0,0.0
15855511546655,-0.47377887,8.953942,4.034299,0.0,0.0,0.0
15855513925821,-0.5024927,8.958728,4.101298,0.0,0.0,0.0
15855516305040,-0.5407779,8.949157,4.115655,0.0,0.0,0.0
15855518684207,-0.53599226,8.953942,4.091727,0.0,0.0,0.0
15855521063426,-0.55513483,8.973084,4.0534415,0.0,0.0,0.0
15855523442592,-0.53599226,9.001799,4.0295134,0.0,0.0,0.0
15855525821811,-0.51206404,9.01137,4.0103707,0.0,0.0,0.0
15855528200926,-0.4977071,8.997013,4.0295134,0.0,0.0,0.0
15855530580092,-0.4546363,8.9826565,4.0773697,0.0,0.0,0.0
15855532959363,-0.40677986,8.997013,4.101298,0.0,0.0,0.0
15855535338530,-0.3684947,8.992228,4.072584,0.0,0.0,0.0
15855537717749,-0.34456646,9.001799,4.034299,0.0,0.0,0.0
15855540096915,-0.33499518,8.992228,4.0151563,0.0,0.0,0.0
15855542476134,-0.32542387,8.987442,4.0151563,0.0,0.0,0.0
15855544855301,-0.31106696,8.997013,4.0534415,0.0,0.0,0.0
15855547234519,-0.32542387,8.997013,4.0869412,0.0,0.0,0.0
15855549613686,-0.33020952,8.987442,4.125226,0.0,0.0,0.0
15855551992853,-0.37328035,8.973084,4.125226,0.0,0.0,0.0
15855554372071,-0.39720857,8.9826565,4.101298,0.0,0.0,0.0
15855556751238,-0.43070808,8.9826565,4.082155,0.0,0.0,0.0
15855559130457,-0.4642076,8.997013,4.0773697,0.0,0.0,0.0
15855561509624,-0.4833502,9.01137,4.101298,0.0,0.0,0.0
15855563888842,-0.4977071,9.040084,4.115655,0.0,0.0,0.0
15855566268009,-0.52163535,9.059227,4.125226,0.0,0.0,0.0
15855568647176,-0.5312066,9.044869,4.101298,0.0,0.0,0.0
15855571026394,-0.4977071,9.059227,4.058227,0.0,0.0,0.0
15855573405561,-0.47856453,9.073584,4.0103707,0.0,0.0,0.0
15855575784780,-0.4546363,9.044869,4.019942,0.0,0.0,0.0
15855578163946,-0.41635114,9.040084,4.0295134,0.0,0.0,0.0
15855580543165,-0.40677986,9.030513,4.0438704,0.0,0.0,0.0
15855582922332,-0.37328035,9.016156,4.058227,0.0,0.0,0.0
15855585301551,-0.36370903,9.016156,4.0677986,0.0,0.0,0.0
15855587680717,-0.32063824,9.020942,4.0534415,0.0,0.0,0.0
15855590059884,-0.32063824,9.016156,4.005585,0.0,0.0,0.0
15855592439103,-0.32063824,9.016156,3.9768713,0.0,0.0,0.0
15855594818269,-0.33499518,9.020942,3.9864426,0.0,0.0,0.0
15855597197488,-0.33499518,8.987442,4.0151563,0.0,0.0,0.0
15855599576655,-0.34456646,8.997013,4.034299,0.0,0.0,0.0
15855601955874,-0.3684947,9.016156,4.034299,0.0,0.0,0.0
15855604335040,-0.37328035,9.049655,4.0007997,0.0,0.0,0.0
15855606714207,-0.39720857,9.035298,4.0103707,0.0,0.0,0.0
15855609093426,-0.41156548,9.035298,4.0103707,0.0,0.0,0.0
15855611472592,-0.42592242,9.040084,4.0103707,0.0,0.0,0.0
15855613851811,-0.44506502,9.01137,4.0295134,0.0,0.0,0.0
15855616230978,-0.44985065,9.030513,4.058227,0.0,0.0,0.0
15855618610144,-0.42592242,9.025727,4.072584,0.0,0.0,0.0
15855620989363,-0.44506502,9.025727,4.063013,0.0,0.0,0.0
15855623368530,-0.42592242,9.01137,4.0534415,0.0,0.0,0.0
15855625747696,-0.4019942,9.01137,4.058227,0.0,0.0,0.0
15855628126915,-0.39720857,9.006584,4.0773697,0.0,0.0,0.0
15855630506134,-0.39720857,8.987442,4.0773697,0.0,0.0,0.0
15855632885301,-0.3684947,8.968299,4.0869412,0.0,0.0,0.0
15855635264519,-0.37328035,8.977871,4.072584,0.0,0.0,0.0
15855637643686,-0.37806597,8.963513,4.082155,0.0,0.0,0.0
15855640022853,-0.37806597,8.953942,4.082155,0.0,0.0,0.0
15855642402071,-0.37806597,8.944371,4.058227,0.0,0.0,0.0
15855644781238,-0.40677986,8.953942,4.058227,0.0,0.0,0.0
15855647160457,-0.42592242,8.939586,4.072584,0.0,0.0,0.0
15855649539624,-0.45942193,8.949157,4.0773697,0.0,0.0,0.0
15855651918842,-0.45942193,8.953942,4.072584,0.0,0.0,0.0
15855654298009,-0.46899325,8.963513,4.063013,0.0,0.0,0.0
15855656677228,-0.4977071,8.973084,4.058227,0.0,0.0,0.0
15855659056394,-0.5455636,8.977871,4.0677986,0.0,0.0,0.0
15855661435561,-0.53599226,8.963513,4.0534415,0.0,0.0,0.0
15855663814780,-0.5694918,8.9348,4.0677986,0.0,0.0,0.0
15855666193946,-0.56470615,8.915657,4.063013,0.0,0.0,0.0
15855668573165,-0.57427746,8.939586,4.0677986,0.0,0.0,0.0
15855670952332,-0.5694918,8.944371,4.034299,0.0,0.0,0.0
15855673331551,-0.53599226,8.958728,4.0295134,0.0,0.0,0.0
15855675710717,-0.55034924,8.977871,4.0534415,0.0,0.0,0.0
15855678089884,-0.51206404,8.987442,4.0438704,0.0,0.0,0.0
15855680469103,-0.4881358,8.977871,4.072584,0.0,0.0,0.0
15855682848269,-0.4833502,8.977871,4.0534415,0.0,0.0,0.0
15855685227488,-0.44027936,8.987442,4.048656,0.0,0.0,0.0
15855687606655,-0.41635114,8.9826565,4.019942,0.0,0.0,0.0
15855689985874,-0.37806597,9.020942,4.019942,0.0,0.0,0.0
15855692365040,-0.3589234,9.016156,4.0390844,0.0,0.0,0.0
15855694744155,-0.31585258,9.020942,4.0295134,0.0,0.0,0.0
15855697123426,-0.29671,9.035298,4.024728,0.0,0.0,0.0
15855699502592,-0.28713873,9.025727,4.034299,0.0,0.0,0.0
15855701881811,-0.3062813,9.030513,4.034299,0.0,0.0,0.0
15855704260978,-0.31106696,9.049655,4.034299,0.0,0.0,0.0
15855706640196,-0.3062813,9.049655,4.024728,0.0,0.0,0.0
15855709019363,-0.31106696,9.064013,4.0390844,0.0,0.0,0.0
15855711398530,-0.29671,9.0544405,4.0534415,0.0,0.0,0.0
15855713777749,-0.29192436,9.049655,4.063013,0.0,0.0,0.0
15855716156915,-0.29671,9.0544405,4.058227,0.0,0.0,0.0
15855718536134,-0.29671,9.073584,4.048656,0.0,0.0,0.0
15855720915301,-0.29192436,9.083155,4.024728,0.0,0.0,0.0
15855723294519,-0.3062813,9.08794,4.019942,0.0,0.0,0.0
15855725673686,-0.31106696,9.068798,4.0151563,0.0,0.0,0.0
15855728052853,-0.3062813,9.049655,3.9960139,0.0,0.0,0.0
15855730432071,-0.3589234,9.068798,4.005585,0.0,0.0,0.0
15855732811238,-0.36370903,9.068798,4.019942,0.0,0.0,0.0
15855735190457,-0.36370903,9.064013,4.0151563,0.0,0.0,0.0
15855737569624,-0.37806597,9.059227,4.024728,0.0,0.0,0.0
15855739948842,-0.38285163,9.020942,4.0151563,0.0,0.0,0.0
15855742328009,-0.37806597,9.025727,4.005585,0.0,0.0,0.0
15855744707176,-0.38285163,9.020942,4.0151563,0.0,0.0,0.0
15855747086394,-0.3924229,9.006584,4.0007997,0.0,0.0,0.0
15855749465561,-0.3924229,8.997013,3.991228,0.0,0.0,0.0
15855751844728,-0.38763726,8.992228,4.0103707,0.0,0.0,0.0
15855754223946,-0.38763726,8.992228,3.991228,0.0,0.0,0.0
15855756603113,-0.3684947,8.977871,3.991228,0.0,0.0,0.0
15855758982332,-0.3589234,8.987442,3.991228,0.0,0.0,0.0
15855761361499,-0.3493521,8.987442,4.0151563,0.0,0.0,0.0
15855763740665,-0.3493521,8.968299,4.0295134,0.0,0.0,0.0
15855766119884,-0.3493521,8.968299,4.034299,0.0,0.0,0.0
15855768499103,-0.32542387,8.973084,4.0390844,0.0,0.0,0.0
15855770878269,-0.29671,8.968299,4.0007997,0.0,0.0,0.0
15855773257488,-0.31106696,8.987442,3.9816568,0.0,0.0,0.0
15855775636655,-0.29671,8.9826565,4.005585,0.0,0.0,0.0
15855778015821,-0.2727818,8.958728,4.0103707,0.0,0.0,0.0
15855780394936,-0.28713873,8.958728,4.048656,0.0,0.0,0.0
15855782774207,-0.31585258,8.949157,4.048656,0.0,0.0,0.0
15855785153426,-0.3062813,8.953942,4.034299,0.0,0.0,0.0
15855787532592,-0.31585258,8.958728,4.034299,0.0,0.0,0.0
15855789911811,-0.33020952,8.949157,4.019942,0.0,0.0,0.0
15855792290978,-0.32063824,8.939586,4.0103707,0.0,0.0,0.0
15855794670144,-0.33499518,8.958728,4.024728,0.0,0.0,0.0
15855797049363,-0.34456646,8.963513,4.0390844,0.0,0.0,0.0
15855799428530,-0.36370903,8.968299,4.048656,0.0,0.0,0.0
15855801807749,-0.37328035,8.953942,4.048656,0.0,0.0,0.0
15855804186915,-0.37328035,8.944371,4.034299,0.0,0.0,0.0
15855806566134,-0.37806597,8.973084,4.048656,0.0,0.0,0.0
15855808945301,-0.3684947,8.992228,4.0295134,0.0,0.0,0.0
15855811324467,-0.35413775,9.016156,4.034299,0.0,0.0,0.0
15855813703686,-0.3589234,9.020942,4.034299,0.0,0.0,0.0
15855816082853,-0.32063824,9.016156,4.0390844,0.0,0.0,0.0
15855818462071,-0.31585258,9.035298,4.048656,0.0,0.0,0.0
15855820841238,-0.31106696,9.030513,4.058227,0.0,0.0,0.0
15855823220457,-0.3062813,9.030513,4.058227,0.0,0.0,0.0
15855825599624,-0.32063824,9.025727,4.0295134,0.0,0.0,0.0
15855827978790,-0.33020952,9.044869,4.0438704,0.0,0.0,0.0
15855830358009,-0.35413775,9.040084,4.0438704,0.0,0.0,0.0
15855832737176,-0.35413775,9.035298,4.0438704,0.0,0.0,0.0
15855835116394,-0.40677986,9.064013,4.0438704,0.0,0.0,0.0
15855837495561,-0.4354937,9.064013,4.048656,0.0,0.0,0.0
15855839874780,-0.4546363,9.083155,4.048656,0.0,0.0,0.0
15855842253946,-0.47856453,9.08794,4.0390844,0.0,0.0,0.0
15855844633113,-0.4833502,9.107083,4.058227,0.0,0.0,0.0
15855847012332,-0.5168497,9.092726,4.0390844,0.0,0.0,0.0
15855849391499,-0.5455636,9.083155,4.0390844,0.0,0.0,0.0
15855851770717,-0.5072784,9.083155,4.0390844,0.0,0.0,0.0
15855854149884,-0.5168497,9.073584,4.0438704,0.0,0.0,0.0
15855856529051,-0.526421,9.083155,4.0390844,0.0,0.0,0.0
15855858908217,-0.5072784,9.08794,4.0295134,0.0,0.0,0.0
15855861287436,-0.4642076,9.073584,4.019942,0.0,0.0,0.0
15855863666655,-0.44985065,9.08794,4.0103707,0.0,0.0,0.0
15855866045821,-0.43070808,9.059227,4.0007997,0.0,0.0,0.0
15855868425040,-0.39720857,9.059227,4.0103707,0.0,0.0,0.0
15855870804207,-0.3924229,9.0544405,4.0151563,0.0,0.0,0.0
15855873183374,-0.38763726,9.035298,4.019942,0.0,0.0,0.0
15855875562592,-0.3589234,9.0544405,4.0103707,0.0,0.0,0.0
15855877941707,-0.33499518,9.0544405,4.024728,0.0,0.0,0.0
15855880320978,-0.3397808,9.040084,4.0151563,0.0,0.0,0.0
15855882700144,-0.3589234,9.035298,4.0151563,0.0,0.0,0.0
15855885079363,-0.35413775,9.001799,4.0007997,0.0,0.0,0.0
15855887458530,-0.3684947,9.01137,3.9960139,0.0,0.0,0.0
15855889837696,-0.38763726,9.006584,4.0007997,0.0,0.0,0.0
15855892216915,-0.38763726,8.992228,3.991228,0.0,0.0,0.0
15855894596082,-0.36370903,8.987442,4.005585,0.0,0.0,0.0
15855896975301,-0.3589234,8.973084,4.0007997,0.0,0.0,0.0
15855899354467,-0.38285163,8.9826565,4.024728,0.0,0.0,0.0
15855901733686,-0.3684947,8.968299,4.019942,0.0,0.0,0.0
15855904112801,-0.33499518,8.963513,4.005585,0.0,0.0,0.0
15855906492019,-0.33020952,8.9826565,4.0151563,0.0,0.0,0.0
15855908871238,-0.31585258,8.9826565,4.024728,0.0,0.0,0.0
15855911250405,-0.28713873,8.968299,4.024728,0.0,0.0,0.0
15855913629624,-0.2727818,8.977871,4.024728,0.0,0.0,0.0
15855916008790,-0.25842485,8.987442,4.019942,0.0,0.0,0.0
15855918388009,-0.26799613,8.9826565,4.0390844,0.0,0.0,0.0
15855920767176,-0.2440679,8.968299,4.0295134,0.0,0.0,0.0
15855923146290,-0.26799613,8.973084,4.0438704,0.0,0.0,0.0
15855925525561,-0.2727818,8.9348,4.063013,0.0,0.0,0.0
15855927904728,-0.2536392,8.953942,4.0534415,0.0,0.0,0.0
15855930283946,-0.28235307,8.958728,4.0534415,0.0,0.0,0.0
15855932663113,-0.29671,8.9348,4.0295134,0.0,0.0,0.0
15855935042280,-0.33499518,8.949157,4.0295134,0.0,0.0,0.0
15855937421499,-0.3397808,8.949157,4.048656,0.0,0.0,0.0
15855939800665,-0.3684947,8.9348,4.048656,0.0,0.0,0.0
15855942179884,-0.38285163,8.973084,4.0677986,0.0,0.0,0.0
15855944559051,-0.4019942,8.968299,4.063013,0.0,0.0,0.0
15855946938269,-0.4211368,8.997013,4.0438704,0.0,0.0,0.0
15855949317384,-0.44027936,9.006584,4.019942,0.0,0.0,0.0
15855951696603,-0.45942193,9.020942,4.019942,0.0,0.0,0.0
15855954075821,-0.47377887,9.035298,4.024728,0.0,0.0,0.0
15855956454988,-0.4546363,9.040084,4.058227,0.0,0.0,0.0
15855958834207,-0.4354937,9.0544405,4.0773697,0.0,0.0,0.0
15855961213374,-0.41635114,9.030513,4.0390844,0.0,0.0,0.0
15855963592592,-0.42592242,9.030513,4.0295134,0.0,0.0,0.0
15855965971759,-0.42592242,9.030513,4.0151563,0.0,0.0,0.0
15855968350926,-0.41635114,9.025727,4.0007997,0.0,0.0,0.0
15855970730144,-0.41156548,9.035298,4.0103707,0.0,0.0,0.0
15855973109311,-0.4019942,9.020942,4.024728,0.0,0.0,0.0
15855975488530,-0.4354937,9.025727,4.005585,0.0,0.0,0.0
15855977867696,-0.41156548,9.016156,3.9960139,0.0,0.0,0.0
15855980246863,-0.40677986,9.035298,4.005585,0.0,0.0,0.0
15855982626082,-0.39720857,9.016156,3.9960139,0.0,0.0,0.0
15855985005249,-0.4211368,9.020942,4.005585,0.0,0.0,0.0
15855987384467,-0.43070808,8.992228,4.0151563,0.0,0.0,0.0
15855989763634,-0.43070808,8.992228,4.019942,0.0,0.0,0.0
15855992142853,-0.44985065,9.01137,4.0438704,0.0,0.0,0.0
15855994522019,-0.46899325,8.992228,4.048656,0.0,0.0,0.0
15855996901134,-0.47377887,9.001799,4.048656,0.0,0.0,0.0
15855999280405,-0.51206404,9.016156,4.0438704,0.0,0.0,0.0
15856001659571,-0.5072784,9.01137,4.0103707,0.0,0.0,0.0
15856004038790,-0.4977071,9.020942,4.0295134,0.0,0.0,0.0
15856006417957,-0.49292147,9.020942,4.0534415,0.0,0.0,0.0
15856008797124,-0.52163535,9.049655,4.0677986,0.0,0.0,0.0
15856011176342,-0.4977071,9.0544405,4.072584,0.0,0.0,0.0
15856013555509,-0.4833502,9.049655,4.0677986,0.0,0.0,0.0
15856015934728,-0.4642076,9.049655,4.063013,0.0,0.0,0.0
15856018313894,-0.4833502,9.0544405,4.0438704,0.0,0.0,0.0
15856020693113,-0.43070808,9.035298,4.048656,0.0,0.0,0.0
15856023072280,-0.4354937,9.030513,4.0677986,0.0,0.0,0.0
15856025451446,-0.4354937,9.020942,4.072584,0.0,0.0,0.0
15856027830665,-0.4019942,9.01137,4.0773697,0.0,0.0,0.0
15856030209832,-0.38763726,8.997013,4.091727,0.0,0.0,0.0
15856032589051,-0.37328035,8.992228,4.048656,0.0,0.0,0.0
15856034968217,-0.37806597,8.973084,4.0438704,0.0,0.0,0.0
15856037347384,-0.3924229,8.973084,4.0534415,0.0,0.0,0.0
15856039726603,-0.39720857,8.973084,4.072584,0.0,0.0,0.0
15856042105769,-0.39720857,8.973084,4.072584,0.0,0.0,0.0
15856044484988,-0.38285163,8.992228,4.0677986,0.0,0.0,0.0
15856046864155,-0.41156548,8.977871,4.058227,0.0,0.0,0.0
15856049243374,-0.40677986,8.977871,4.0534415,0.0,0.0,0.0
15856051622540,-0.40677986,8.963513,4.0438704,0.0,0.0,0.0
15856054001707,-0.4019942,8.963513,4.034299,0.0,0.0,0.0
15856056380926,-0.41635114,8.973084,4.048656,0.0,0.0,0.0
15856058760092,-0.4211368,8.9826565,4.058227,0.0,0.0,0.0
15856061139311,-0.41156548,8.992228,4.048656,0.0,0.0,0.0
15856063518478,-0.42592242,8.987442,4.048656,0.0,0.0,0.0
15856065897644,-0.4019942,8.968299,4.058227,0.0,0.0,0.0
15856068276863,-0.3684947,8.987442,4.0534415,0.0,0.0,0.0
15856070656030,-0.35413775,8.973084,4.0390844,0.0,0.0,0.0
15856073035249,-0.34456646,8.992228,4.0438704,0.0,0.0,0.0
15856075414415,-0.33020952,9.001799,4.0390844,0.0,0.0,0.0
15856077793634,-0.32063824,8.977871,4.058227,0.0,0.0,0.0
15856080172801,-0.2632105,8.958728,4.072584,0.0,0.0,0.0
15856082551967,-0.2632105,8.963513,4.072584,0.0,0.0,0.0
15856084931186,-0.2440679,8.9826565,4.0677986,0.0,0.0,0.0
15856087310353,-0.19621146,8.958728,4.048656,0.0,0.0,0.0
15856089689571,-0.16271193,8.958728,4.0295134,0.0,0.0,0.0
15856092068738,-0.15792629,8.958728,4.058227,0.0,0.0,0.0
15856094447905,-0.16749759,8.968299,4.058227,0.0,0.0,0.0
15856096827124,-0.15792629,8.977871,4.048656,0.0,0.0,0.0
15856099206290,-0.15792629,8.963513,4.0390844,0.0,0.0,0.0
15856101585509,-0.15792629,8.992228,4.0438704,0.0,0.0,0.0
15856103964676,-0.16749759,9.016156,4.0390844,0.0,0.0,0.0
15856106343842,-0.15792629,9.016156,4.048656,0.0,0.0,0.0
15856108723582,-0.19142582,9.030513,4.0534415,0.0,0.0,0.0
15856111102228,-0.2105684,9.049655,4.063013,0.0,0.0,0.0
15856113481446,-0.22492532,9.040084,4.0438704,0.0,0.0,0.0
15856115860613,-0.24885355,9.030513,4.0390844,0.0,0.0,0.0
15856118239832,-0.29192436,9.030513,4.0295134,0.0,0.0,0.0
15856120618999,-0.32542387,9.016156,4.019942,0.0,0.0,0.0
15856122998165,-0.34456646,9.006584,4.0103707,0.0,0.0,0.0
15856125377384,-0.37328035,8.992228,4.0103707,0.0,0.0,0.0
15856127756551,-0.3684947,8.992228,4.0103707,0.0,0.0,0.0
15856130135769,-0.39720857,8.977871,4.005585,0.0,0.0,0.0
15856132514936,-0.4019942,8.9826565,4.0007997,0.0,0.0,0.0
15856134894103,-0.41156548,8.9826565,4.0007997,0.0,0.0,0.0
15856137273321,-0.42592242,8.973084,4.005585,0.0,0.0,0.0
15856139652488,-0.44506502,8.973084,4.0151563,0.0,0.0,0.0
15856142031707,-0.44985065,8.963513,4.024728,0.0,0.0,0.0
15856144410874,-0.45942193,8.944371,4.019942,0.0,0.0,0.0
15856146790040,-0.4642076,8.958728,4.024728,0.0,0.0,0.0
15856149169259,-0.4642076,8.973084,4.034299,0.0,0.0,0.0
15856151548374,-0.44985065,8.968299,4.0390844,0.0,0.0,0.0
15856153927644,-0.46899325,8.949157,4.048656,0.0,0.0,0.0
15856156306811,-0.44027936,8.968299,4.063013,0.0,0.0,0.0
15856158685978,-0.44027936,8.992228,4.082155,0.0,0.0,0.0
15856161065196,-0.4642076,9.01137,4.101298,0.0,0.0,0.0
15856163444363,-0.4546363,9.006584,4.091727,0.0,0.0,0.0
15856165823582,-0.44027936,9.030513,4.091727,0.0,0.0,0.0
15856168202749,-0.4354937,9.030513,4.0965123,0.0,0.0,0.0
15856170581967,-0.42592242,9.044869,4.091727,0.0,0.0,0.0
15856172961134,-0.44027936,9.030513,4.082155,0.0,0.0,0.0
15856175340301,-0.4211368,9.044869,4.0869412,0.0,0.0,0.0
15856177719519,-0.4019942,9.040084,4.0677986,0.0,0.0,0.0
15856180098686,-0.37328035,9.059227,4.0534415,0.0,0.0,0.0
15856182477905,-0.3589234,9.064013,4.0390844,0.0,0.0,0.0
15856184857071,-0.33499518,9.083155,4.0103707,0.0,0.0,0.0
15856187236238,-0.28713873,9.073584,3.991228,0.0,0.0,0.0
15856189615457,-0.2727818,9.0544405,4.0007997,0.0,0.0,0.0
15856191994624,-0.28713873,9.0544405,3.9864426,0.0,0.0,0.0
15856194373842,-0.28713873,9.0544405,4.005585,0.0,0.0,0.0
15856196753009,-0.28235307,9.049655,3.9816568,0.0,0.0,0.0
15856199132228,-0.29671,9.040084,3.9720855,0.0,0.0,0.0
15856201511394,-0.34456646,9.059227,3.9673,0.0,0.0,0.0
15856203890561,-0.34456646,9.0544405,3.9577286,0.0,0.0,0.0
15856206269780,-0.3589234,9.073584,3.9625144,0.0,0.0,0.0
15856208648946,-0.37328035,9.08794,3.9816568,0.0,0.0,0.0
15856211028165,-0.3924229,9.059227,3.9816568,0.0,0.0,0.0
15856213407332,-0.3924229,9.073584,3.9720855,0.0,0.0,0.0
15856215786499,-0.42592242,9.064013,3.9625144,0.0,0.0,0.0
15856218165717,-0.44027936,9.068798,3.9864426,0.0,0.0,0.0
15856220544884,-0.42592242,9.040084,3.991228,0.0,0.0,0.0
15856222924103,-0.42592242,9.035298,3.9960139,0.0,0.0,0.0
15856225303269,-0.4354937,9.035298,4.005585,0.0,0.0,0.0
15856227682436,-0.43070808,9.030513,4.024728,0.0,0.0,0.0
15856230061655,-0.41156548,9.020942,4.0151563,0.0,0.0,0.0
15856232440821,-0.43070808,9.016156,4.034299,0.0,0.0,0.0
15856234820040,-0.41156548,8.9826565,4.0677986,0.0,0.0,0.0
15856237199207,-0.4211368,8.987442,4.091727,0.0,0.0,0.0
15856239578374,-0.41156548,9.001799,4.0965123,0.0,0.0,0.0
15856241957592,-0.41635114,9.001799,4.0965123,0.0,0.0,0.0
15856244336759,-0.4019942,9.001799,4.0869412,0.0,0.0,0.0
15856246715978,-0.43070808,8.997013,4.091727,0.0,0.0,0.0
15856249095144,-0.4354937,9.006584,4.091727,0.0,0.0,0.0
15856251474363,-0.42592242,8.992228,4.0965123,0.0,0.0,0.0
15856253853530,-0.43070808,9.001799,4.101298,0.0,0.0,0.0
15856256232696,-0.4354937,8.992228,4.101298,0.0,0.0,0.0
15856258611915,-0.44027936,8.987442,4.091727,0.0,0.0,0.0
15856260991082,-0.4211368,8.997013,4.0773697,0.0,0.0,0.0
15856263370301,-0.40677986,8.992228,4.0677986,0.0,0.0,0.0
15856265749467,-0.40677986,9.001799,4.063013,0.0,0.0,0.0
15856268128634,-0.36370903,8.968299,4.0438704,0.0,0.0,0.0
15856270507853,-0.3493521,8.987442,4.0534415,0.0,0.0,0.0
15856272886967,-0.32063824,8.997013,4.048656,0.0,0.0,0.0
15856275266238,-0.3062813,8.9826565,4.0534415,0.0,0.0,0.0
15856277645405,-0.29192436,8.992228,4.0677986,0.0,0.0,0.0
15856280024571,-0.28713873,9.020942,4.072584,0.0,0.0,0.0
15856282403790,-0.27756742,9.016156,4.082155,0.0,0.0,0.0
15856284782957,-0.2632105,9.020942,4.091727,0.0,0.0,0.0
15856287162176,-0.2727818,9.020942,4.0677986,0.0,0.0,0.0
15856289541342,-0.25842485,9.01137,4.0438704,0.0,0.0,0.0
15856291920509,-0.2632105,9.006584,4.0390844,0.0,0.0,0.0
15856294299728,-0.2727818,9.025727,4.0295134,0.0,0.0,0.0
15856296678894,-0.29671,9.035298,4.019942,0.0,0.0,0.0
15856299058113,-0.29192436,9.020942,4.0007997,0.0,0.0,0.0
15856301437280,-0.33020952,9.025727,3.9960139,0.0,0.0,0.0
15856303816446,-0.37806597,9.040084,3.9864426,0.0,0.0,0.0
15856306195665,-0.42592242,9.025727,3.9816568,0.0,0.0,0.0
15856308574832,-0.45942193,9.030513,3.9960139,0.0,0.0,0.0
15856310954051,-0.46899325,9.035298,4.0151563,0.0,0.0,0.0
15856313333217,-0.47856453,9.020942,4.019942,0.0,0.0,0.0
15856315712436,-0.4833502,8.997013,4.0151563,0.0,0.0,0.0
15856318091603,-0.53599226,8.987442,4.0151563,0.0,0.0,0.0
15856320470769,-0.53599226,8.9826565,4.0007997,0.0,0.0,0.0
15856322849988,-0.53599226,8.9826565,4.0007997,0.0,0.0,0.0
15856325229155,-0.526421,8.968299,3.991228,0.0,0.0,0.0
15856327608321,-0.49292147,8.953942,4.0151563,0.0,0.0,0.0
15856329987540,-0.46899325,8.9348,4.034299,0.0,0.0,0.0
15856332366707,-0.4546363,8.958728,4.034299,0.0,0.0,0.0
15856334745926,-0.4354937,8.949157,4.024728,0.0,0.0,0.0
15856337125092,-0.4019942,8.968299,4.0103707,0.0,0.0,0.0
15856339504311,-0.37806597,8.977871,4.034299,0.0,0.0,0.0
15856341883478,-0.37328035,8.997013,4.063013,0.0,0.0,0.0
15856344262644,-0.38763726,8.977871,4.091727,0.0,0.0,0.0
15856346641863,-0.3589234,8.9826565,4.0965123,0.0,0.0,0.0
15856349021030,-0.36370903,8.953942,4.1204405,0.0,0.0,0.0
15856351400196,-0.3684947,8.939586,4.1204405,0.0,0.0,0.0
15856353779415,-0.38763726,8.939586,4.115655,0.0,0.0,0.0
15856356158582,-0.39720857,8.958728,4.115655,0.0,0.0,0.0
15856358537801,-0.41156548,8.977871,4.130012,0.0,0.0,0.0
15856360916967,-0.41635114,8.9826565,4.1347976,0.0,0.0,0.0
15856363296186,-0.41156548,8.992228,4.168297,0.0,0.0,0.0
15856365675353,-0.4211368,8.992228,4.1635113,0.0,0.0,0.0
15856368054519,-0.43070808,8.9826565,4.1587257,0.0,0.0,0.0
15856370433686,-0.4019942,8.9826565,4.1204405,0.0,0.0,0.0
15856372812905,-0.40677986,9.006584,4.0965123,0.0,0.0,0.0
15856375192124,-0.37328035,9.01137,4.072584,0.0,0.0,0.0
15856377571290,-0.3493521,8.987442,4.091727,0.0,0.0,0.0
15856379950457,-0.34456646,8.973084,4.0773697,0.0,0.0,0.0
15856382329676,-0.3493521,8.925228,4.0869412,0.0,0.0,0.0
15856384708842,-0.3493521,8.925228,4.0869412,0.0,0.0,0.0
15856387088061,-0.36370903,8.944371,4.063013,0.0,0.0,0.0
15856389467228,-0.36370903,8.953942,4.024728,0.0,0.0,0.0
15856391846394,-0.39720857,8.977871,4.0103707,0.0,0.0,0.0
15856394225613,-0.43070808,8.997013,3.9864426,0.0,0.0,0.0
15856396604780,-0.4642076,8.992228,3.991228,0.0,0.0,0.0
15856398983999,-0.4833502,9.01137,3.9960139,0.0,0.0,0.0
15856401363165,-0.5072784,9.049655,3.9960139,0.0,0.0,0.0
15856403742332,-0.5072784,9.073584,3.9816568,0.0,0.0,0.0
15856406121551,-0.5024927,9.0544405,3.9673,0.0,0.0,0.0
15856408500717,-0.526421,9.064013,3.9577286,0.0,0.0,0.0
15856410879936,-0.5312066,9.040084,3.9290147,0.0,0.0,0.0
15856413259103,-0.5168497,9.049655,3.938586,0.0,0.0,0.0
15856415638269,-0.5024927,9.044869,3.9481573,0.0,0.0,0.0
15856418017488,-0.49292147,9.044869,3.9433718,0.0,0.0,0.0
15856420396655,-0.4977071,9.035298,3.9625144,0.0,0.0,0.0
15856422775874,-0.4833502,9.025727,3.952943,0.0,0.0,0.0
15856425155040,-0.49292147,8.992228,3.9720855,0.0,0.0,0.0
15856427534207,-0.47377887,8.968299,3.9768713,0.0,0.0,0.0
15856429913426,-0.44506502,8.973084,4.0151563,0.0,0.0,0.0
15856432292592,-0.44506502,8.963513,4.0438704,0.0,0.0,0.0
15856434671811,-0.44027936,8.968299,4.0677986,0.0,0.0,0.0
15856437050978,-0.4211368,8.963513,4.0773697,0.0,0.0,0.0
15856439430144,-0.37328035,8.973084,4.106084,0.0,0.0,0.0
15856441809363,-0.35413775,8.997013,4.101298,0.0,0.0,0.0
15856444188530,-0.31585258,9.006584,4.101298,0.0,0.0,0.0
15856446567749,-0.3062813,9.030513,4.1204405,0.0,0.0,0.0
15856448946915,-0.29671,9.025727,4.1347976,0.0,0.0,0.0
15856451326082,-0.30149564,9.030513,4.1204405,0.0,0.0,0.0
15856453705301,-0.28713873,9.035298,4.125226,0.0,0.0,0.0
15856456084467,-0.2440679,9.064013,4.115655,0.0,0.0,0.0
15856458463686,-0.25842485,9.059227,4.115655,0.0,0.0,0.0
15856460842853,-0.28235307,9.059227,4.125226,0.0,0.0,0.0
15856463222019,-0.2727818,9.073584,4.115655,0.0,0.0,0.0
15856465601238,-0.27756742,9.044869,4.125226,0.0,0.0,0.0
15856467980405,-0.29671,9.059227,4.1204405,0.0,0.0,0.0
15856470359624,-0.30149564,9.044869,4.106084,0.0,0.0,0.0
15856472738790,-0.31585258,9.025727,4.082155,0.0,0.0,0.0
15856475117957,-0.34456646,8.997013,4.0965123,0.0,0.0,0.0
15856477497176,-0.3684947,8.987442,4.115655,0.0,0.0,0.0
15856479876342,-0.40677986,8.958728,4.101298,0.0,0.0,0.0
15856482255561,-0.4019942,8.958728,4.082155,0.0,0.0,0.0
15856484634728,-0.41635114,8.9826565,4.0534415,0.0,0.0,0.0
15856487013894,-0.42592242,9.001799,4.005585,0.0,0.0,0.0
15856489393113,-0.44506502,8.997013,3.9577286,0.0,0.0,0.0
15856491772280,-0.44985065,9.001799,3.9433718,0.0,0.0,0.0
15856494151499,-0.44506502,9.020942,3.9481573,0.0,0.0,0.0
15856496530665,-0.44027936,9.001799,3.9433718,0.0,0.0,0.0
15856498909780,-0.45942193,9.001799,3.9481573,0.0,0.0,0.0
15856501289051,-0.4546363,9.025727,3.9481573,0.0,0.0,0.0
15856503668217,-0.44506502,9.025727,3.9194436,0.0,0.0,0.0
15856506047436,-0.44027936,9.040084,3.8955152,0.0,0.0,0.0
15856508426551,-0.43070808,9.049655,3.8620157,0.0,0.0,0.0
15856510805717,-0.41635114,9.044869,3.871587,0.0,0.0,0.0
15856513184988,-0.3924229,9.078369,3.871587,0.0,0.0,0.0
15856515564155,-0.37328035,9.078369,3.885944,0.0,0.0,0.0
15856517943374,-0.38763726,9.083155,3.8955152,0.0,0.0,0.0
15856520322540,-0.36370903,9.078369,3.9098723,0.0,0.0,0.0
15856522701707,-0.36370903,9.08794,3.9290147,0.0,0.0,0.0
15856525080926,-0.3397808,9.097511,3.9625144,0.0,0.0,0.0
15856527460092,-0.3062813,9.111869,3.9625144,0.0,0.0,0.0
15856529839311,-0.2727818,9.078369,3.9816568,0.0,0.0,0.0
15856532218478,-0.2727818,9.068798,3.9816568,0.0,0.0,0.0
15856534597644,-0.23928227,9.044869,3.9960139,0.0,0.0,0.0
15856536976863,-0.22971097,9.030513,4.0295134,0.0,0.0,0.0
15856539356030,-0.23449662,9.006584,4.058227,0.0,0.0,0.0
15856541735249,-0.19621146,9.006584,4.072584,0.0,0.0,0.0
15856544114415,-0.2009971,9.030513,4.0677986,0.0,0.0,0.0
15856546493582,-0.18664017,9.016156,4.0677986,0.0,0.0,0.0
15856548872801,-0.20578274,8.997013,4.0773697,0.0,0.0,0.0
15856551251967,-0.2009971,9.001799,4.0677986,0.0,0.0,0.0
15856553631134,-0.21535404,8.949157,4.1204405,0.0,0.0,0.0
15856556010353,-0.23928227,8.944371,4.173083,0.0,0.0,0.0
15856558389519,-0.28713873,8.939586,4.197011,0.0,0.0,0.0
15856560768738,-0.32542387,8.915657,4.2161536,0.0,0.0,0.0
15856563147905,-0.3493521,8.920443,4.1922255,0.0,0.0,0.0
15856565527071,-0.39720857,8.896515,4.173083,0.0,0.0,0.0
15856567906290,-0.42592242,8.920443,4.125226,0.0,0.0,0.0
15856570285457,-0.43070808,8.925228,4.115655,0.0,0.0,0.0
15856572664676,-0.4642076,8.915657,4.106084,0.0,0.0,0.0
15856575043842,-0.4833502,8.920443,4.1204405,0.0,0.0,0.0
15856577423009,-0.5168497,8.939586,4.1108694,0.0,0.0,0.0
15856579802228,-0.52163535,8.958728,4.0773697,0.0,0.0,0.0
15856582181394,-0.53599226,8.9826565,4.034299,0.0,0.0,0.0
15856584560613,-0.5312066,8.9826565,4.0103707,0.0,0.0,0.0
15856586939780,-0.52163535,9.001799,3.9816568,0.0,0.0,0.0
15856589318946,-0.55034924,9.001799,3.9720855,0.0,0.0,0.0
15856591698165,-0.56470615,8.992228,4.005585,0.0,0.0,0.0
15856594077332,-0.60777694,9.030513,4.005585,0.0,0.0,0.0
15856596456551,-0.60777694,9.0544405,4.019942,0.0,0.0,0.0
15856598835665,-0.6125626,9.059227,4.0151563,0.0,0.0,0.0
15856601214832,-0.6364908,9.0544405,3.991228,0.0,0.0,0.0
15856603594103,-0.64606214,9.064013,3.9864426,0.0,0.0,0.0
15856605973269,-0.6556334,9.059227,4.005585,0.0,0.0,0.0
15856608352488,-0.6652047,9.035298,4.048656,0.0,0.0,0.0
15856610731655,-0.66041905,9.030513,4.063013,0.0,0.0,0.0
15856613110821,-0.6221339,9.020942,4.115655,0.0,0.0,0.0
15856615490040,-0.60777694,8.958728,4.0869412,0.0,0.0,0.0
15856617869207,-0.5838487,8.920443,4.101298,0.0,0.0,0.0
15856620248426,-0.56470615,8.930014,4.1443686,0.0,0.0,0.0
15856622627592,-0.57906306,8.9348,4.182654,0.0,0.0,0.0
15856625006759,-0.5982057,8.930014,4.168297,0.0,0.0,0.0
15856627385978,-0.66041905,8.930014,4.1204405,0.0,0.0,0.0
15856629765144,-0.6843473,8.939586,4.048656,0.0,0.0,0.0
15856632144311,-0.72263247,8.944371,3.9960139,0.0,0.0,0.0
15856634523530,-0.7465607,8.968299,4.024728,0.0,0.0,0.0
15856636902696,-0.7800602,8.992228,4.0773697,0.0,0.0,0.0
15856639281915,-0.7800602,8.992228,4.058227,0.0,0.0,0.0
15856641661082,-0.75613195,8.997013,4.019942,0.0,0.0,0.0
15856644040249,-0.7896315,9.01137,3.9720855,0.0,0.0,0.0
15856646419467,-0.7896315,9.01137,3.9242291,0.0,0.0,0.0
15856648798634,-0.80877405,8.987442,3.9577286,0.0,0.0,0.0
15856651177853,-0.80877405,8.963513,4.024728,0.0,0.0,0.0
15856653557019,-0.8039884,8.953942,4.0869412,0.0,0.0,0.0
15856655936186,-0.79441714,8.9826565,4.091727,0.0,0.0,0.0
15856658315405,-0.7704889,9.016156,4.0534415,0.0,0.0,0.0
15856660694571,-0.72263247,9.035298,4.005585,0.0,0.0,0.0
15856663073790,-0.7178468,9.049655,3.9768713,0.0,0.0,0.0
15856665452957,-0.6795616,9.083155,4.0151563,0.0,0.0,0.0
15856667832124,-0.64606214,9.08794,4.0773697,0.0,0.0,0.0
15856670211342,-0.63170516,9.083155,4.0965123,0.0,0.0,0.0
15856672590509,-0.61734825,9.073584,4.0965123,0.0,0.0,0.0
15856674969728,-0.5982057,9.025727,4.0534415,0.0,0.0,0.0
15856677348894,-0.5886344,8.992228,4.0438704,0.0,0.0,0.0
15856679728061,-0.59342,9.020942,4.072584,0.0,0.0,0.0
15856682107280,-0.5886344,8.992228,4.125226,0.0,0.0,0.0
15856684486446,-0.5886344,8.906086,4.115655,0.0,0.0,0.0
15856686865665,-0.6125626,8.920443,4.115655,0.0,0.0,0.0
15856689244832,-0.63170516,8.939586,4.1347976,0.0,0.0,0.0
15856691623999,-0.6269195,8.930014,4.1635113,0.0,0.0,0.0
15856694003217,-0.6125626,8.939586,4.1635113,0.0,0.0,0.0
15856696382384,-0.60777694,9.020942,4.1491547,0.0,0.0,0.0
15856698761551,-0.56470615,9.035298,4.115655,0.0,0.0,0.0
15856701140769,-0.5599205,9.049655,4.1347976,0.0,0.0,0.0
15856703519936,-0.5407779,9.059227,4.173083,0.0,0.0,0.0
15856705899155,-0.526421,9.059227,4.2161536,0.0,0.0,0.0
15856708278321,-0.53599226,9.044869,4.1874394,0.0,0.0,0.0
15856710657488,-0.55513483,9.025727,4.101298,0.0,0.0,0.0
15856713036655,-0.6029913,9.030513,4.0103707,0.0,0.0,0.0
15856715415874,-0.70348984,9.006584,3.952943,0.0,0.0,0.0
15856717795092,-0.82313097,8.963513,3.9577286,0.0,0.0,0.0
15856720174259,-0.90448695,8.949157,4.0151563,0.0,0.0,0.0
15856722553426,-1.0049855,8.915657,4.0438704,0.0,0.0,0.0
15856724932644,-1.1150553,8.85823,4.0007997,0.0,0.0,0.0
15856727311811,-1.2299109,8.853444,3.9050865,0.0,0.0,0.0
15856729691030,-1.282553,8.810373,3.8524444,0.0,0.0,0.0
15856732070196,-1.3208381,8.82473,3.842873,0.0,0.0,0.0
15856734449363,-1.3399807,8.819944,3.8811584,0.0,0.0,0.0
15856736828582,-1.3591232,8.834301,3.952943,0.0,0.0,0.0
15856739207749,-1.3543376,8.843872,3.938586,0.0,0.0,0.0
15856741586915,-1.2921243,8.867801,3.9194436,0.0,0.0,0.0
15856743966134,-1.2203395,8.939586,3.8763726,0.0,0.0,0.0
15856746345301,-1.0815558,8.987442,3.900301,0.0,0.0,0.0
15856748724519,-0.9523434,9.016156,3.9481573,0.0,0.0,0.0
15856751103686,-0.82313097,9.073584,4.005585,0.0,0.0,0.0
15856753482853,-0.66999036,9.126225,4.0438704,0.0,0.0,0.0
15856755862071,-0.526421,9.150154,4.0773697,0.0,0.0,0.0
15856758241238,-0.40677986,9.159725,4.091727,0.0,0.0,0.0
15856760620457,-0.26799613,9.183653,4.0869412,0.0,0.0,0.0
15856762999624,-0.148355,9.19801,4.0390844,0.0,0.0,0.0
15856765378790,-0.086141616,9.159725,4.034299,0.0,0.0,0.0
15856767758009,-0.047856454,9.140582,4.063013,0.0,0.0,0.0
15856770137176,-0.0526421,9.092726,4.130012,0.0,0.0,0.0
15856772516342,-0.086141616,9.044869,4.130012,0.0,0.0,0.0
15856774895561,-0.148355,9.044869,4.101298,0.0,0.0,0.0
15856777274728,-0.22013968,9.020942,4.0390844,0.0,0.0,0.0
15856779653946,-0.27756742,9.01137,4.0103707,0.0,0.0,0.0
15856782033113,-0.33499518,8.992228,4.0295134,0.0,0.0,0.0
15856784412280,-0.37806597,8.9826565,4.058227,0.0,0.0,0.0
15856786791499,-0.39720857,8.949157,4.082155,0.0,0.0,0.0
15856789170665,-0.42592242,8.963513,4.0677986,0.0,0.0,0.0
15856791549832,-0.3924229,8.958728,4.034299,0.0,0.0,0.0
15856793929051,-0.3684947,8.958728,4.0295134,0.0,0.0,0.0
15856796308217,-0.31585258,8.977871,4.034299,0.0,0.0,0.0
15856798687436,-0.26799613,9.001799,4.0773697,0.0,0.0,0.0
15856801066603,-0.2536392,9.001799,4.082155,0.0,0.0,0.0
15856803445769,-0.22013968,8.968299,4.0773697,0.0,0.0,0.0
15856805824988,-0.18664017,8.9826565,4.115655,0.0,0.0,0.0
15856808204155,-0.16749759,9.025727,4.197011,0.0,0.0,0.0
15856810583374,-0.09092726,9.049655,4.1587257,0.0,0.0,0.0
15856812962540,-0.11485548,9.035298,3.9194436,0.0,0.0,0.0
15856815341655,-0.10049855,8.973084,3.7710886,0.0,0.0,0.0
15856817720926,-0.12921242,8.85823,3.8572302,0.0,0.0,0.0
15856820100092,-0.11964113,8.9108715,4.15394,0.0,0.0,0.0
15856822479311,-0.14356937,8.949157,4.354937,0.0,0.0,0.0
15856824858478,-0.148355,8.9013,4.2592244,0.0,0.0,0.0
15856827237644,-0.22492532,9.049655,4.101298,0.0,0.0,0.0
15856829616863,-0.2632105,9.140582,3.818945,0.0,0.0,0.0
15856831996030,-0.34456646,9.135797,3.737589,0.0,0.0,0.0
15856834375249,-0.39720857,9.12144,3.790231,0.0,0.0,0.0
15856836754415,-0.5072784,9.164511,4.0438704,0.0,0.0,0.0
15856839133582,-0.5312066,9.111869,4.2257247,0.0,0.0,0.0
15856841512801,-0.6269195,9.049655,4.206582,0.0,0.0,0.0
15856843891967,-0.60777694,9.107083,3.9960139,0.0,0.0,0.0
15856846271134,-0.61734825,9.092726,3.7998023,0.0,0.0,0.0
15856848650353,-0.57427746,9.030513,3.8141594,0.0,0.0,0.0
15856851029519,-0.5599205,9.006584,3.9242291,0.0,0.0,0.0
15856853408738,-0.526421,8.997013,4.058227,0.0,0.0,0.0
15856855787905,-0.49292147,8.968299,4.101298,0.0,0.0,0.0
15856858167071,-0.4354937,8.977871,4.125226,0.0,0.0,0.0
15856860546290,-0.4019942,9.001799,4.0295134,0.0,0.0,0.0
15856862925457,-0.39720857,9.035298,3.9625144,0.0,0.0,0.0
15856865304624,-0.32542387,9.025727,3.8524444,0.0,0.0,0.0
15856867683842,-0.34456646,9.049655,3.8668015,0.0,0.0,0.0
15856870063009,-0.33020952,9.040084,3.9960139,0.0,0.0,0.0
15856872442228,-0.29671,9.0544405,4.2257247,0.0,0.0,0.0
15856874821394,-0.2440679,9.068798,4.302295,0.0,0.0,0.0
15856877200561,-0.27756742,9.073584,4.197011,0.0,0.0,0.0
15856879579780,-0.26799613,9.073584,4.034299,0.0,0.0,0.0
15856881958946,-0.3062813,9.092726,4.005585,0.0,0.0,0.0
15856884338113,-0.3493521,9.083155,4.082155,0.0,0.0,0.0
15856886717332,-0.38285163,9.068798,4.278367,0.0,0.0,0.0
15856889096499,-0.39720857,9.01137,4.3788652,0.0,0.0,0.0
15856891475717,-0.41635114,9.040084,4.436293,0.0,0.0,0.0
15856893854884,-0.43070808,8.987442,4.3262234,0.0,0.0,0.0
15856896234051,-0.4211368,9.025727,4.2352962,0.0,0.0,0.0
15856898613269,-0.37328035,9.01137,4.1491547,0.0,0.0,0.0
15856900992436,-0.36370903,8.977871,4.206582,0.0,0.0,0.0
15856903371655,-0.33020952,8.963513,4.3118663,0.0,0.0,0.0
15856905750821,-0.28235307,8.968299,4.321438,0.0,0.0,0.0
15856908129988,-0.23928227,8.944371,4.23051,0.0,0.0,0.0
15856910509207,-0.21535404,8.944371,4.101298,0.0,0.0,0.0
15856912888374,-0.21535404,8.977871,4.0151563,0.0,0.0,0.0
15856915267540,-0.23449662,8.949157,3.9673,0.0,0.0,0.0
15856917646759,-0.26799613,8.944371,3.9720855,0.0,0.0,0.0
15856920025926,-0.3493521,8.968299,3.9768713,0.0,0.0,0.0
15856922405144,-0.41635114,9.025727,4.0103707,0.0,0.0,0.0
15856924784311,-0.4881358,8.872586,3.8763726,0.0,0.0,0.0
15856927163478,-0.53599226,8.891729,3.7663028,0.0,0.0,0.0
15856929542696,-0.64606214,8.930014,3.7088752,0.0,0.0,0.0
15856931921863,-0.7082755,8.867801,3.8380876,0.0,0.0,0.0
15856934301082,-0.74177504,8.762517,3.9625144,0.0,0.0,0.0
15856936680249,-0.79920274,8.796016,4.206582,0.0,0.0,0.0
15856939059415,-0.86141616,8.719446,4.2975097,0.0,0.0,0.0
15856941438634,-0.89491564,8.695518,4.287938,0.0,0.0,0.0
15856943817801,-0.89491564,8.786445,4.173083,0.0,0.0,0.0
15856946197019,-0.8709874,8.85823,4.0965123,0.0,0.0,0.0
15856948576186,-0.8135597,8.800801,4.072584,0.0,0.0,0.0
15856950955353,-0.7800602,8.829515,4.26401,0.0,0.0,0.0
15856953334571,-0.75613195,8.829515,4.508078,0.0,0.0,0.0
15856955713738,-0.7082755,8.82473,4.723432,0.0,0.0,0.0
15856958092905,-0.6412765,8.805588,4.7569313,0.0,0.0,0.0
15856960472124,-0.55034924,8.839087,4.6755753,0.0,0.0,0.0
15856962851290,-0.4546363,8.848659,4.517649,0.0,0.0,0.0
15856965230457,-0.3684947,8.867801,4.436293,0.0,0.0,0.0
15856967609676,-0.31106696,8.743374,4.3932223,0.0,0.0,0.0
15856969988842,-0.31585258,8.800801,4.642076,0.0,0.0,0.0
15856972368061,-0.3493521,8.762517,4.7856455,0.0,0.0,0.0
15856974747228,-0.3924229,8.724232,4.74736,0.0,0.0,0.0
15856977126394,-0.43070808,8.685946,4.517649,0.0,0.0,0.0
15856979505613,-0.4642076,8.7673025,4.493721,0.0,0.0,0.0
15856981884780,-0.4977071,8.676374,4.4554358,0.0,0.0,0.0
15856984263946,-0.526421,8.695518,4.5798626,0.0,0.0,0.0
15856986643165,-0.56470615,8.647661,4.627719,0.0,0.0,0.0
15856989022332,-0.57427746,8.719446,4.723432,0.0,0.0,0.0
15856991401551,-0.5886344,8.695518,4.5415773,0.0,0.0,0.0
15856993780717,-0.5072784,8.748159,4.3836513,0.0,0.0,0.0
15856996159884,-0.45942193,8.79123,4.316652,0.0,0.0,0.0
15856998539103,-0.37328035,8.843872,4.402794,0.0,0.0,0.0
15857000918269,-0.33020952,8.877372,4.508078,0.0,0.0,0.0
15857003297436,-0.28235307,8.848659,4.4841495,0.0,0.0,0.0
15857005676655,-0.26799613,8.9108715,4.4602213,0.0,0.0,0.0
15857008055821,-0.2632105,8.930014,4.316652,0.0,0.0,0.0
15857010435040,-0.2632105,8.997013,4.220939,0.0,0.0,0.0
15857012814207,-0.2536392,8.9826565,4.125226,0.0,0.0,0.0
15857015193374,-0.25842485,8.968299,4.125226,0.0,0.0,0.0
15857017572592,-0.29671,8.963513,4.206582,0.0,0.0,0.0
15857019951759,-0.3062813,8.973084,4.3932223,0.0,0.0,0.0
15857022330926,-0.3493521,8.930014,4.4745784,0.0,0.0,0.0
15857024710144,-0.37806597,8.953942,4.3501515,0.0,0.0,0.0
15857027089311,-0.38763726,8.953942,4.063013,0.0,0.0,0.0
15857029468530,-0.37328035,8.968299,3.7950168,0.0,0.0,0.0
15857031847696,-0.3684947,8.963513,3.7567315,0.0,0.0,0.0
15857034226863,-0.35413775,8.9348,3.9242291,0.0,0.0,0.0
15857036606082,-0.3589234,8.944371,4.1874394,0.0,0.0,0.0
15857038985249,-0.3062813,8.906086,4.287938,0.0,0.0,0.0
15857041364467,-0.28713873,8.968299,4.220939,0.0,0.0,0.0
15857043743634,-0.2536392,9.030513,3.9290147,0.0,0.0,0.0
15857046122801,-0.23449662,9.044869,3.6131623,0.0,0.0,0.0
15857048502019,-0.14356937,9.059227,3.4695928,0.0,0.0,0.0
15857050881186,-0.1052842,9.0544405,3.603591,0.0,0.0,0.0
15857053260353,-0.033499517,9.040084,3.9768713,0.0,0.0,0.0
15857055639571,0.0,9.025727,4.2257247,0.0,0.0,0.0
15857058018738,0.043070808,9.01137,4.0390844,0.0,0.0,0.0
15857060397905,0.06699903,9.059227,3.641876,0.0,0.0,0.0
15857062777124,0.09571291,9.15494,3.3690944,0.0,0.0,0.0
15857065156290,0.086141616,9.212367,3.5270207,0.0,0.0,0.0
15857067535509,0.1052842,9.078369,3.7567315,0.0,0.0,0.0
15857069914676,0.05742774,9.097511,3.9098723,0.0,0.0,0.0
15857072293842,-0.033499517,9.23151,3.9050865,0.0,0.0,0.0
15857074673061,-0.06699903,9.169296,3.790231,0.0,0.0,0.0
15857077052228,-0.086141616,9.135797,3.6658044,0.0,0.0,0.0
15857079431394,-0.15314065,9.245867,3.5700915,0.0,0.0,0.0
15857081810613,-0.2009971,9.317652,3.546163,0.0,0.0,0.0
15857084189780,-0.21535404,9.226724,3.5700915,0.0,0.0,0.0
15857086568999,-0.2632105,9.183653,3.6514473,0.0,0.0,0.0
15857088948165,-0.31106696,9.23151,3.7328033,0.0,0.0,0.0
15857091327332,-0.3062813,9.202796,3.6801612,0.0,0.0,0.0
15857093706551,-0.36370903,9.183653,3.507878,0.0,0.0,0.0
15857096085717,-0.3684947,9.303294,3.3643086,0.0,0.0,0.0
15857098464936,-0.38285163,9.260223,3.345166,0.0,0.0,0.0
15857100844103,-0.37328035,9.164511,3.5126636,0.0,0.0,0.0
15857103223269,-0.41635114,9.193225,3.7184465,0.0,0.0,0.0
15857105602488,-0.39720857,9.221938,3.8763726,0.0,0.0,0.0
15857107981655,-0.3924229,9.145369,3.8141594,0.0,0.0,0.0
15857110360821,-0.3397808,9.150154,3.641876,0.0,0.0,0.0
15857112740040,-0.3397808,9.23151,3.5174494,0.0,0.0,0.0
15857115119207,-0.29192436,9.159725,3.4887354,0.0,0.0,0.0
15857117498374,-0.27756742,9.078369,3.641876,0.0,0.0,0.0
15857119877592,-0.23449662,9.078369,3.8285162,0.0,0.0,0.0
15857122256759,-0.2440679,9.078369,3.9098723,0.0,0.0,0.0
15857124635978,-0.21535404,9.001799,3.8907297,0.0,0.0,0.0
15857127015144,-0.18185452,9.064013,3.804588,0.0,0.0,0.0
15857129394311,-0.13399807,9.097511,3.737589,0.0,0.0,0.0
15857131773530,-0.076570325,9.126225,3.7998023,0.0,0.0,0.0
15857134152696,-0.09092726,8.930014,3.6323047,0.0,0.0,0.0
15857136531915,0.033499517,9.164511,3.9720855,0.0,0.0,0.0
15857138911082,0.0,8.987442,4.005585,0.0,0.0,0.0
15857141290249,0.11006984,9.001799,4.1874394,0.0,0.0,0.0
15857143669467,0.09092726,8.997013,4.058227,0.0,0.0,0.0
15857146048634,0.11006984,9.092726,3.9338005,0.0,0.0,0.0
15857148427801,0.1052842,9.044869,3.8763726,0.0,0.0,0.0
15857150807019,0.13399807,9.0544405,3.9816568,0.0,0.0,0.0
15857153186186,0.09092726,9.083155,4.182654,0.0,0.0,0.0
15857155565353,0.086141616,9.040084,4.2831526,0.0,0.0,0.0
15857157944571,0.038285162,9.006584,4.302295,0.0,0.0,0.0
15857160323738,-0.0047856453,9.0544405,4.211368,0.0,0.0,0.0
15857162702957,-0.047856454,9.097511,4.15394,0.0,0.0,0.0
15857165082124,-0.09571291,9.030513,4.101298,0.0,0.0,0.0
15857167461290,-0.14356937,9.097511,4.173083,0.0,0.0,0.0
15857169840509,-0.18664017,9.097511,4.173083,0.0,0.0,0.0
15857172219676,-0.28713873,9.097511,4.2448673,0.0,0.0,0.0
15857174598842,-0.32063824,9.059227,4.254439,0.0,0.0,0.0
15857176978061,-0.43070808,9.078369,4.287938,0.0,0.0,0.0
15857179357228,-0.4642076,9.0544405,4.206582,0.0,0.0,0.0
15857181736446,-0.526421,8.968299,4.1108694,0.0,0.0,0.0
15857184115613,-0.53599226,8.992228,4.0965123,0.0,0.0,0.0
15857186494780,-0.55513483,9.006584,4.15394,0.0,0.0,0.0
15857188873999,-0.63170516,8.896515,4.2257247,0.0,0.0,0.0
15857191253165,-0.6364908,8.915657,4.26401,0.0,0.0,0.0
15857193632332,-0.7082755,8.939586,4.182654,0.0,0.0,0.0
15857196011551,-0.75613195,8.953942,4.139583,0.0,0.0,0.0
15857198390717,-0.81834537,8.886943,4.0438704,0.0,0.0,0.0
15857200769884,-0.8805587,8.939586,4.058227,0.0,0.0,0.0
15857203149103,-0.9523434,8.9013,4.106084,0.0,0.0,0.0
15857205528269,-0.98584294,8.886943,4.182654,0.0,0.0,0.0
15857207907488,-1.0624132,8.867801,4.1778684,0.0,0.0,0.0
15857210286655,-1.0719845,8.9108715,4.206582,0.0,0.0,0.0
15857212665821,-1.0767702,8.867801,4.15394,0.0,0.0,0.0
15857215045040,-1.0863415,8.886943,4.1347976,0.0,0.0,0.0
15857217424207,-1.0767702,8.9108715,4.1108694,0.0,0.0,0.0
15857219803374,-1.0624132,8.896515,4.106084,0.0,0.0,0.0
15857222182592,-1.0145568,8.867801,4.1108694,0.0,0.0,0.0
15857224561759,-0.9762716,8.886943,4.1347976,0.0,0.0,0.0
15857226940978,-0.8853444,8.930014,4.125226,0.0,0.0,0.0
15857229320144,-0.81834537,8.920443,4.0965123,0.0,0.0,0.0
15857231699311,-0.7082755,8.9013,4.072584,0.0,0.0,0.0
15857234078530,-0.66041905,8.925228,4.0438704,0.0,0.0,0.0
15857236457696,-0.5982057,8.9013,4.0773697,0.0,0.0,0.0
15857238836863,-0.5599205,8.891729,4.139583,0.0,0.0,0.0
15857241216082,-0.5072784,8.930014,4.15394,0.0,0.0,0.0
15857243595249,-0.46899325,8.920443,4.115655,0.0,0.0,0.0
15857245974415,-0.42592242,8.939586,4.082155,0.0,0.0,0.0
15857248353634,-0.3684947,8.9348,4.0390844,0.0,0.0,0.0
15857250732801,-0.34456646,8.953942,4.005585,0.0,0.0,0.0
15857253112019,-0.29671,8.930014,3.991228,0.0,0.0,0.0
15857255491186,-0.29192436,8.949157,3.9864426,0.0,0.0,0.0
15857257870353,-0.2440679,8.953942,4.0007997,0.0,0.0,0.0
15857260249571,-0.22971097,8.939586,4.005585,0.0,0.0,0.0
15857262628738,-0.20578274,8.949157,3.991228,0.0,0.0,0.0
15857265007905,-0.18664017,8.968299,3.9720855,0.0,0.0,0.0
15857267387124,-0.17706887,8.9348,3.9194436,0.0,0.0,0.0
15857269766290,-0.18185452,8.958728,3.9242291,0.0,0.0,0.0
15857272145457,-0.13878371,8.9826565,3.9481573,0.0,0.0,0.0
15857274524676,-0.1052842,8.968299,3.991228,0.0,0.0,0.0
15857276903842,-0.047856454,8.968299,3.9768713,0.0,0.0,0.0
15857279283061,-0.014356935,8.9826565,3.9433718,0.0,0.0,0.0
15857281662228,0.047856454,9.006584,3.885944,0.0,0.0,0.0
15857284041342,0.062213387,8.992228,3.8620157,0.0,0.0,0.0
15857286420613,0.076570325,9.025727,3.8572302,0.0,0.0,0.0
15857288799780,0.08135597,9.044869,3.8811584,0.0,0.0,0.0
15857291178946,0.038285162,9.035298,3.9050865,0.0,0.0,0.0
15857293558165,0.0047856453,9.0544405,3.9194436,0.0,0.0,0.0
15857295937332,-0.02871387,9.107083,3.9146578,0.0,0.0,0.0
15857298316499,-0.09092726,9.150154,3.8907297,0.0,0.0,0.0
15857300695717,-0.13399807,9.15494,3.8811584,0.0,0.0,0.0
15857303074884,-0.19621146,9.145369,3.8668015,0.0,0.0,0.0
15857305454103,-0.2536392,9.178867,3.9050865,0.0,0.0,0.0
15857307833269,-0.29192436,9.169296,3.9481573,0.0,0.0,0.0
15857310212436,-0.34456646,9.174082,3.952943,0.0,0.0,0.0
15857312591655,-0.4019942,9.174082,3.9194436,0.0,0.0,0.0
15857314970821,-0.41156548,9.174082,3.885944,0.0,0.0,0.0
15857317349988,-0.4211368,9.178867,3.8524444,0.0,0.0,0.0
15857319729207,-0.41156548,9.150154,3.885944,0.0,0.0,0.0
15857322108374,-0.4211368,9.15494,3.9146578,0.0,0.0,0.0
15857324487540,-0.4019942,9.169296,3.9433718,0.0,0.0,0.0
15857326866759,-0.39720857,9.159725,3.9290147,0.0,0.0,0.0
15857329245926,-0.3924229,9.150154,3.9242291,0.0,0.0,0.0
15857331625144,-0.4019942,9.140582,3.9098723,0.0,0.0,0.0
15857334004311,-0.38763726,9.131011,3.9098723,0.0,0.0,0.0
15857336383478,-0.41635114,9.102298,3.9050865,0.0,0.0,0.0
15857338762696,-0.41156548,9.116654,3.9146578,0.0,0.0,0.0
15857341141863,-0.41156548,9.102298,3.9433718,0.0,0.0,0.0
15857343521030,-0.38763726,9.107083,3.9720855,0.0,0.0,0.0
15857345900249,-0.43070808,9.083155,3.9720855,0.0,0.0,0.0
15857348279415,-0.4642076,9.083155,3.9625144,0.0,0.0,0.0
15857350658582,-0.49292147,9.102298,3.9673,0.0,0.0,0.0
15857353037801,-0.52163535,9.107083,3.9768713,0.0,0.0,0.0
15857355416967,-0.55513483,9.044869,3.9864426,0.0,0.0,0.0
15857357796186,-0.5694918,9.044869,4.0295134,0.0,0.0,0.0
15857360175353,-0.61734825,9.035298,4.0438704,0.0,0.0,0.0
15857362554571,-0.6364908,9.01137,4.0677986,0.0,0.0,0.0
15857364933738,-0.66999036,9.01137,4.0438704,0.0,0.0,0.0
15857367312905,-0.6843473,9.001799,4.0151563,0.0,0.0,0.0
15857369692071,-0.6795616,8.987442,4.019942,0.0,0.0,0.0
15857372071290,-0.66999036,8.992228,4.058227,0.0,0.0,0.0
15857374450457,-0.65084773,8.9826565,4.082155,0.0,0.0,0.0
15857376829676,-0.6412765,8.987442,4.101298,0.0,0.0,0.0
15857379208842,-0.6412765,8.987442,4.115655,0.0,0.0,0.0
15857381588009,-0.60777694,8.973084,4.101298,0.0,0.0,0.0
15857383967228,-0.5886344,8.968299,4.101298,0.0,0.0,0.0
15857386346394,-0.5455636,8.968299,4.139583,0.0,0.0,0.0
15857388725561,-0.5455636,8.958728,4.1347976,0.0,0.0,0.0
15857391104780,-0.51206404,8.953942,4.173083,0.0,0.0,0.0
15857393483946,-0.51206404,8.949157,4.197011,0.0,0.0,0.0
15857395863113,-0.44985065,8.973084,4.197011,0.0,0.0,0.0
15857398242332,-0.47856453,8.963513,4.182654,0.0,0.0,0.0
15857400621499,-0.47856453,8.963513,4.197011,0.0,0.0,0.0
15857403000665,-0.4833502,8.973084,4.2017965,0.0,0.0,0.0
15857405379884,-0.5024927,8.958728,4.1874394,0.0,0.0,0.0
15857407759051,-0.5312066,8.944371,4.2257247,0.0,0.0,0.0
15857410138269,-0.55513483,8.949157,4.2448673,0.0,0.0,0.0
15857412517436,-0.57906306,8.944371,4.2352962,0.0,0.0,0.0
15857414896603,-0.5886344,8.944371,4.2448673,0.0,0.0,0.0
15857417275821,-0.59342,8.9108715,4.26401,0.0,0.0,0.0
15857419654988,-0.5982057,8.896515,4.2687955,0.0,0.0,0.0
15857422034155,-0.57427746,8.891729,4.278367,0.0,0.0,0.0
15857424413374,-0.57906306,8.891729,4.278367,0.0,0.0,0.0
15857426792540,-0.55513483,8.877372,4.2831526,0.0,0.0,0.0
15857429171707,-0.5312066,8.85823,4.302295,0.0,0.0,0.0
15857431550926,-0.4881358,8.867801,4.3070807,0.0,0.0,0.0
15857433930092,-0.47856453,8.848659,4.2927237,0.0,0.0,0.0
15857436309311,-0.47856453,8.863015,4.2927237,0.0,0.0,0.0
15857438688478,-0.45942193,8.85823,4.2975097,0.0,0.0,0.0
15857441067644,-0.4354937,8.85823,4.316652,0.0,0.0,0.0
15857443446863,-0.41635114,8.872586,4.331009,0.0,0.0,0.0
15857445826030,-0.43070808,8.853444,4.3357944,0.0,0.0,0.0
15857448205196,-0.4354937,8.882157,4.316652,0.0,0.0,0.0
15857450584415,-0.44027936,8.877372,4.3070807,0.0,0.0,0.0
15857452963582,-0.4354937,8.882157,4.3070807,0.0,0.0,0.0
15857455342749,-0.4546363,8.886943,4.331009,0.0,0.0,0.0
15857457721967,-0.47377887,8.9013,4.345366,0.0,0.0,0.0
15857460101134,-0.4833502,8.882157,4.331009,0.0,0.0,0.0
15857462480301,-0.5168497,8.896515,4.316652,0.0,0.0,0.0
15857464859519,-0.53599226,8.920443,4.3262234,0.0,0.0,0.0
15857467238686,-0.55513483,8.906086,4.331009,0.0,0.0,0.0
15857469617905,-0.56470615,8.886943,4.316652,0.0,0.0,0.0
15857471997071,-0.55513483,8.930014,4.321438,0.0,0.0,0.0
15857474376238,-0.5407779,8.9108715,4.3357944,0.0,0.0,0.0
15857476755457,-0.53599226,8.891729,4.345366,0.0,0.0,0.0
15857479134624,-0.5455636,8.872586,4.3405805,0.0,0.0,0.0
15857481513790,-0.526421,8.872586,4.321438,0.0,0.0,0.0
15857483893009,-0.52163535,8.85823,4.3118663,0.0,0.0,0.0
15857486272176,-0.5072784,8.848659,4.3118663,0.0,0.0,0.0
15857488651342,-0.5072784,8.853444,4.321438,0.0,0.0,0.0
15857491030561,-0.51206404,8.829515,4.3262234,0.0,0.0,0.0
15857493409728,-0.5024927,8.819944,4.354937,0.0,0.0,0.0
15857495788894,-0.51206404,8.829515,4.3405805,0.0,0.0,0.0
15857498168113,-0.5455636,8.800801,4.331009,0.0,0.0,0.0
15857500547280,-0.55513483,8.805588,4.321438,0.0,0.0,0.0
15857502926499,-0.5694918,8.815159,4.316652,0.0,0.0,0.0
15857505305665,-0.5886344,8.810373,4.316652,0.0,0.0,0.0
15857507684832,-0.60777694,8.810373,4.3262234,0.0,0.0,0.0
15857510064051,-0.6269195,8.819944,4.3405805,0.0,0.0,0.0
15857512443217,-0.6412765,8.843872,4.3357944,0.0,0.0,0.0
15857514822384,-0.6269195,8.85823,4.3118663,0.0,0.0,0.0
15857517201603,-0.6125626,8.872586,4.3118663,0.0,0.0,0.0
15857519580769,-0.6269195,8.896515,4.3070807,0.0,0.0,0.0
15857521959936,-0.6125626,8.906086,4.3262234,0.0,0.0,0.0
15857524339155,-0.60777694,8.896515,4.3070807,0.0,0.0,0.0
15857526718321,-0.5982057,8.9108715,4.3118663,0.0,0.0,0.0
15857529097540,-0.57427746,8.925228,4.2975097,0.0,0.0,0.0
15857531476707,-0.5312066,8.920443,4.287938,0.0,0.0,0.0
15857533855874,-0.5072784,8.930014,4.273581,0.0,0.0,0.0
15857536235040,-0.49292147,8.953942,4.2592244,0.0,0.0,0.0
15857538614259,-0.47856453,8.953942,4.26401,0.0,0.0,0.0
15857540993426,-0.49292147,8.973084,4.273581,0.0,0.0,0.0
15857543372644,-0.47377887,8.968299,4.287938,0.0,0.0,0.0
15857545751811,-0.4833502,8.9826565,4.254439,0.0,0.0,0.0
15857548130978,-0.4833502,8.987442,4.249653,0.0,0.0,0.0
15857550510196,-0.49292147,9.006584,4.240082,0.0,0.0,0.0
15857552889363,-0.51206404,9.006584,4.254439,0.0,0.0,0.0
15857555268530,-0.5455636,8.992228,4.254439,0.0,0.0,0.0
15857557647749,-0.5694918,8.997013,4.26401,0.0,0.0,0.0
15857560026915,-0.5838487,9.020942,4.254439,0.0,0.0,0.0
15857562406134,-0.6125626,9.016156,4.26401,0.0,0.0,0.0
15857564785301,-0.6125626,8.992228,4.2592244,0.0,0.0,0.0
15857567164467,-0.5982057,8.992228,4.249653,0.0,0.0,0.0
15857569543634,-0.59342,8.9826565,4.2161536,0.0,0.0,0.0
15857571922853,-0.57906306,8.958728,4.2161536,0.0,0.0,0.0
15857574302019,-0.55034924,8.968299,4.211368,0.0,0.0,0.0
15857576681238,-0.5312066,8.944371,4.23051,0.0,0.0,0.0
15857579060405,-0.4977071,8.920443,4.23051,0.0,0.0,0.0
15857581439571,-0.4833502,8.925228,4.249653,0.0,0.0,0.0
15857583818790,-0.47377887,8.925228,4.2257247,0.0,0.0,0.0
15857586197957,-0.4546363,8.915657,4.206582,0.0,0.0,0.0
15857588577124,-0.4354937,8.891729,4.206582,0.0,0.0,0.0
15857590956342,-0.4211368,8.882157,4.2161536,0.0,0.0,0.0
15857593335509,-0.4546363,8.877372,4.220939,0.0,0.0,0.0
15857595714676,-0.4642076,8.867801,4.2352962,0.0,0.0,0.0
15857598093894,-0.49292147,8.85823,4.211368,0.0,0.0,0.0
15857600473061,-0.5407779,8.853444,4.206582,0.0,0.0,0.0
15857602852280,-0.56470615,8.839087,4.1922255,0.0,0.0,0.0
15857605231446,-0.61734825,8.853444,4.2017965,0.0,0.0,0.0
15857607610613,-0.6269195,8.85823,4.220939,0.0,0.0,0.0
15857609989728,-0.65084773,8.853444,4.2352962,0.0,0.0,0.0
15857612368999,-0.66041905,8.872586,4.2352962,0.0,0.0,0.0
15857614748165,-0.6652047,8.853444,4.220939,0.0,0.0,0.0
15857617127384,-0.6556334,8.848659,4.206582,0.0,0.0,0.0
15857619506551,-0.6029913,8.872586,4.211368,0.0,0.0,0.0
15857621885665,-0.5694918,8.863015,4.23051,0.0,0.0,0.0
15857624264936,-0.51206404,8.872586,4.211368,0.0,0.0,0.0
15857626644103,-0.45942193,8.886943,4.2017965,0.0,0.0,0.0
15857629023269,-0.4211368,8.877372,4.220939,0.0,0.0,0.0
15857631402488,-0.3684947,8.882157,4.211368,0.0,0.0,0.0
15857633781655,-0.33020952,8.867801,4.2161536,0.0,0.0,0.0
15857636160821,-0.3062813,8.872586,4.2257247,0.0,0.0,0.0
15857638540040,-0.24885355,8.853444,4.2161536,0.0,0.0,0.0
15857640919207,-0.22971097,8.863015,4.220939,0.0,0.0,0.0
15857643298374,-0.24885355,8.85823,4.2352962,0.0,0.0,0.0
15857645677592,-0.28713873,8.863015,4.23051,0.0,0.0,0.0
15857648056759,-0.29671,8.85823,4.2257247,0.0,0.0,0.0
15857650435978,-0.35413775,8.843872,4.206582,0.0,0.0,0.0
15857652815144,-0.4019942,8.82473,4.1922255,0.0,0.0,0.0
15857655194311,-0.44506502,8.843872,4.173083,0.0,0.0,0.0
15857657573530,-0.47377887,8.843872,4.139583,0.0,0.0,0.0
15857659952696,-0.52163535,8.843872,4.1443686,0.0,0.0,0.0
15857662331863,-0.56470615,8.819944,4.15394,0.0,0.0,0.0
15857664711082,-0.6125626,8.82473,4.1778684,0.0,0.0,0.0
15857667090249,-0.6221339,8.82473,4.1587257,0.0,0.0,0.0
15857669469415,-0.60777694,8.85823,4.1347976,0.0,0.0,0.0
15857671848634,-0.59342,8.863015,4.091727,0.0,0.0,0.0
15857674227801,-0.59342,8.9108715,4.091727,0.0,0.0,0.0
15857676606967,-0.5838487,8.920443,4.091727,0.0,0.0,0.0
15857678986186,-0.57427746,8.920443,4.082155,0.0,0.0,0.0
15857681365353,-0.5599205,8.930014,4.058227,0.0,0.0,0.0
15857683744519,-0.55513483,8.958728,4.0438704,0.0,0.0,0.0
15857686123738,-0.5455636,8.968299,4.019942,0.0,0.0,0.0
15857688502905,-0.57427746,8.992228,4.024728,0.0,0.0,0.0
15857690882071,-0.5407779,9.016156,4.0103707,0.0,0.0,0.0
15857693261290,-0.57427746,9.035298,4.024728,0.0,0.0,0.0
15857695640457,-0.59342,9.035298,4.0295134,0.0,0.0,0.0
15857698019676,-0.5982057,9.0544405,4.063013,0.0,0.0,0.0
15857700398842,-0.61734825,9.044869,4.063013,0.0,0.0,0.0
15857702778009,-0.61734825,9.073584,4.0677986,0.0,0.0,0.0
15857705157228,-0.63170516,9.073584,4.058227,0.0,0.0,0.0
15857707536394,-0.6364908,9.08794,4.048656,0.0,0.0,0.0
15857709915561,-0.61734825,9.116654,4.082155,0.0,0.0,0.0
15857712294780,-0.59342,9.092726,4.106084,0.0,0.0,0.0
15857714673946,-0.57906306,9.102298,4.082155,0.0,0.0,0.0
15857717053113,-0.5455636,9.111869,4.0677986,0.0,0.0,0.0
15857719432332,-0.53599226,9.078369,4.0438704,0.0,0.0,0.0
15857721811499,-0.4881358,9.059227,4.0295134,0.0,0.0,0.0
15857724190665,-0.44985065,9.040084,4.0151563,0.0,0.0,0.0
15857726569884,-0.38763726,9.006584,4.0295134,0.0,0.0,0.0
15857728949051,-0.30149564,8.987442,4.0390844,0.0,0.0,0.0
15857731328217,-0.19621146,8.968299,4.0534415,0.0,0.0,0.0
15857733707436,-0.14356937,8.906086,4.0677986,0.0,0.0,0.0
15857736086603,-0.07178468,8.920443,4.063013,0.0,0.0,0.0
15857738465769,-0.0047856453,8.915657,4.0773697,0.0,0.0,0.0
15857740844988,0.062213387,8.939586,4.072584,0.0,0.0,0.0
15857743224155,0.09571291,8.9348,4.048656,0.0,0.0,0.0
15857745603321,0.12921242,8.949157,4.019942,0.0,0.0,0.0
15857747982540,0.148355,8.958728,4.0390844,0.0,0.0,0.0
15857750361707,0.16749759,8.953942,4.0677986,0.0,0.0,0.0
15857752740926,0.15792629,8.949157,4.106084,0.0,0.0,0.0
15857755120092,0.148355,8.953942,4.106084,0.0,0.0,0.0
15857757499259,0.11964113,8.9826565,4.1443686,0.0,0.0,0.0
15857759878478,0.08135597,8.992228,4.197011,0.0,0.0,0.0
15857762257644,0.0047856453,8.973084,4.23051,0.0,0.0,0.0
15857764636811,-0.076570325,8.997013,4.240082,0.0,0.0,0.0
15857767016030,-0.15314065,8.992228,4.211368,0.0,0.0,0.0
15857769395196,-0.2632105,8.939586,4.1874394,0.0,0.0,0.0
15857771774363,-0.38763726,8.9108715,4.1635113,0.0,0.0,0.0
15857774153582,-0.4546363,8.877372,4.1347976,0.0,0.0,0.0
15857776532749,-0.53599226,8.839087,4.101298,0.0,0.0,0.0
15857778911915,-0.57906306,8.834301,4.0965123,0.0,0.0,0.0
15857781291134,-0.6125626,8.839087,4.063013,0.0,0.0,0.0
15857783670301,-0.64606214,8.819944,4.0438704,0.0,0.0,0.0
15857786049467,-0.6556334,8.853444,4.058227,0.0,0.0,0.0
15857788428686,-0.6125626,8.886943,4.048656,0.0,0.0,0.0
15857790807853,-0.64606214,8.896515,4.034299,0.0,0.0,0.0
15857793186967,-0.6652047,8.9013,4.048656,0.0,0.0,0.0
15857795566238,-0.6652047,8.9013,4.024728,0.0,0.0,0.0
15857797945353,-0.7082755,8.949157,3.9960139,0.0,0.0,0.0
15857800324571,-0.7800602,8.953942,3.9864426,0.0,0.0,0.0
15857802703790,-0.8327023,8.944371,3.9625144,0.0,0.0,0.0
15857805082957,-0.8470592,8.987442,3.9242291,0.0,0.0,0.0
15857807462176,-0.8853444,9.049655,3.9194436,0.0,0.0,0.0
15857809841342,-0.91405827,9.035298,3.9194436,0.0,0.0,0.0
15857812220509,-0.94755775,9.073584,3.9433718,0.0,0.0,0.0
15857814599728,-0.9667004,9.08794,3.9290147,0.0,0.0,0.0
15857816978894,-0.9762716,9.111869,3.9433718,0.0,0.0,0.0
15857819358061,-0.95712906,9.111869,3.9194436,0.0,0.0,0.0
15857821737280,-0.9284152,9.107083,3.9242291,0.0,0.0,0.0
15857824116446,-0.89491564,9.111869,3.9433718,0.0,0.0,0.0
15857826495613,-0.8470592,9.131011,3.952943,0.0,0.0,0.0
15857828874832,-0.8039884,9.131011,3.9864426,0.0,0.0,0.0
15857831253999,-0.76570326,9.08794,3.9864426,0.0,0.0,0.0
15857833633165,-0.7322037,9.078369,3.9720855,0.0,0.0,0.0
15857836012384,-0.6795616,9.068798,3.9960139,0.0,0.0,0.0
15857838391551,-0.6125626,9.044869,4.0151563,0.0,0.0,0.0
15857840770717,-0.59342,9.030513,4.0295134,0.0,0.0,0.0
15857843149936,-0.5407779,9.020942,4.0390844,0.0,0.0,0.0
15857845529103,-0.4833502,9.016156,4.0677986,0.0,0.0,0.0
15857847908269,-0.43070808,9.016156,4.0534415,0.0,0.0,0.0
15857850287488,-0.37328035,9.020942,4.048656,0.0,0.0,0.0
15857852666655,-0.32063824,9.016156,4.0438704,0.0,0.0,0.0
15857855045821,-0.29671,9.059227,4.0677986,0.0,0.0,0.0
15857857425040,-0.2536392,9.049655,4.091727,0.0,0.0,0.0
15857859804207,-0.22013968,9.040084,4.1108694,0.0,0.0,0.0
15857862183374,-0.19142582,9.016156,4.115655,0.0,0.0,0.0
15857864562592,-0.16271193,9.044869,4.115655,0.0,0.0,0.0
15857866941759,-0.16749759,9.08794,4.1204405,0.0,0.0,0.0
15857869320926,-0.15792629,9.078369,4.1204405,0.0,0.0,0.0
15857871700144,-0.15792629,9.025727,4.125226,0.0,0.0,0.0
15857874079311,-0.17228323,9.006584,4.1204405,0.0,0.0,0.0
15857876458478,-0.16749759,8.987442,4.130012,0.0,0.0,0.0
15857878837696,-0.14356937,8.968299,4.1108694,0.0,0.0,0.0
15857881216863,-0.18664017,8.939586,4.115655,0.0,0.0,0.0
15857883596082,-0.22492532,8.953942,4.106084,0.0,0.0,0.0
15857885975249,-0.2440679,8.930014,4.125226,0.0,0.0,0.0
15857888354415,-0.27756742,8.886943,4.130012,0.0,0.0,0.0
15857890733634,-0.29192436,8.877372,4.1347976,0.0,0.0,0.0
15857893112801,-0.32063824,8.877372,4.1108694,0.0,0.0,0.0
15857895491967,-0.33499518,8.886943,4.106084,0.0,0.0,0.0
15857897871186,-0.3493521,8.882157,4.0965123,0.0,0.0,0.0
15857900250353,-0.38763726,8.891729,4.130012,0.0,0.0,0.0
15857902629519,-0.38763726,8.896515,4.139583,0.0,0.0,0.0
15857905008738,-0.4019942,8.906086,4.15394,0.0,0.0,0.0
15857907387905,-0.43070808,8.920443,4.1108694,0.0,0.0,0.0
15857909767071,-0.44506502,8.944371,4.106084,0.0,0.0,0.0
15857912146290,-0.4546363,8.9348,4.091727,0.0,0.0,0.0
15857914525457,-0.4833502,8.944371,4.091727,0.0,0.0,0.0
15857916904624,-0.53599226,8.944371,4.115655,0.0,0.0,0.0
15857919283842,-0.57427746,8.939586,4.125226,0.0,0.0,0.0
15857921663009,-0.5694918,8.930014,4.101298,0.0,0.0,0.0
15857924042176,-0.63170516,8.939586,4.0965123,0.0,0.0,0.0
15857926421394,-0.6987042,8.949157,4.1108694,0.0,0.0,0.0
15857928800561,-0.7465607,8.9348,4.072584,0.0,0.0,0.0
15857931179728,-0.7704889,8.920443,4.0869412,0.0,0.0,0.0
15857933558946,-0.8039884,8.930014,4.106084,0.0,0.0,0.0
15857935938113,-0.8422736,8.958728,4.1108694,0.0,0.0,0.0
15857938317332,-0.8805587,8.9826565,4.106084,0.0,0.0,0.0
15857940696499,-0.8997013,9.006584,4.091727,0.0,0.0,0.0
15857943075665,-0.8997013,9.025727,4.0677986,0.0,0.0,0.0
15857945454884,-0.9284152,9.040084,4.0390844,0.0,0.0,0.0
15857947834051,-0.94755775,9.049655,4.0295134,0.0,0.0,0.0
15857950213217,-0.94755775,9.08794,4.0295134,0.0,0.0,0.0
15857952592436,-0.9092726,9.092726,4.048656,0.0,0.0,0.0
15857954971603,-0.86141616,9.111869,4.024728,0.0,0.0,0.0
15857957350769,-0.8135597,9.131011,4.0390844,0.0,0.0,0.0
15857959729988,-0.79441714,9.169296,4.005585,0.0,0.0,0.0
15857962109155,-0.7752745,9.178867,3.9864426,0.0,0.0,0.0
15857964488321,-0.7082755,9.188439,3.9673,0.0,0.0,0.0
15857966867540,-0.6939186,9.19801,3.9720855,0.0,0.0,0.0
15857969246707,-0.6795616,9.174082,3.9625144,0.0,0.0,0.0
15857971625874,-0.66041905,9.140582,3.9673,0.0,0.0,0.0
15857974005092,-0.6843473,9.12144,3.9625144,0.0,0.0,0.0
15857976384207,-0.6987042,9.111869,3.9673,0.0,0.0,0.0
15857978763426,-0.70348984,9.107083,3.938586,0.0,0.0,0.0
15857981142644,-0.72263247,9.097511,3.9098723,0.0,0.0,0.0
15857983521811,-0.7369894,9.073584,3.9050865,0.0,0.0,0.0
15857985900978,-0.7465607,9.083155,3.9242291,0.0,0.0,0.0
15857988280196,-0.7322037,9.078369,3.9242291,0.0,0.0,0.0
15857990659363,-0.72741807,9.068798,3.9194436,0.0,0.0,0.0
15857993038530,-0.71306115,9.078369,3.885944,0.0,0.0,0.0
15857995417749,-0.7082755,9.08794,3.8620157,0.0,0.0,0.0
15857997796915,-0.66999036,9.083155,3.8572302,0.0,0.0,0.0
15858000176082,-0.61734825,9.092726,3.8572302,0.0,0.0,0.0
15858002555301,-0.55513483,9.116654,3.8572302,0.0,0.0,0.0
15858004934467,-0.4977071,9.107083,3.871587,0.0,0.0,0.0
15858007313634,-0.41156548,9.116654,3.8572302,0.0,0.0,0.0
15858009692853,-0.3684947,9.097511,3.8285162,0.0,0.0,0.0
15858012072019,-0.27756742,9.08794,3.818945,0.0,0.0,0.0
15858014451186,-0.22492532,9.068798,3.804588,0.0,0.0,0.0
15858016830405,-0.2009971,9.073584,3.7758741,0.0,0.0,0.0
15858019209571,-0.2009971,9.073584,3.7663028,0.0,0.0,0.0
15858021588738,-0.2009971,9.059227,3.7663028,0.0,0.0,0.0
15858023967957,-0.2105684,9.059227,3.7806597,0.0,0.0,0.0
15858026347124,-0.2440679,9.08794,3.7854455,0.0,0.0,0.0
15858028726290,-0.3062813,9.107083,3.7615173,0.0,0.0,0.0
15858031105509,-0.38285163,9.08794,3.7328033,0.0,0.0,0.0
15858033484676,-0.45942193,9.107083,3.737589,0.0,0.0,0.0
15858035863842,-0.526421,9.097511,3.7615173,0.0,0.0,0.0
15858038243061,-0.57906306,9.097511,3.7854455,0.0,0.0,0.0
15858040622228,-0.6125626,9.140582,3.7663028,0.0,0.0,0.0
15858043001394,-0.6269195,9.116654,3.7471602,0.0,0.0,0.0
15858045380613,-0.61734825,9.08794,3.7423747,0.0,0.0,0.0
15858047759728,-0.55034924,9.140582,3.7567315,0.0,0.0,0.0
15858050138946,-0.4977071,9.145369,3.7471602,0.0,0.0,0.0
15858052518165,-0.4019942,9.126225,3.7136607,0.0,0.0,0.0
15858054897332,-0.31585258,9.073584,3.6897326,0.0,0.0,0.0
15858057276499,-0.2632105,9.064013,3.7040894,0.0,0.0,0.0
15858059655665,-0.19142582,9.078369,3.7184465,0.0,0.0,0.0
15858062034884,-0.12921242,9.030513,3.694518,0.0,0.0,0.0
15858064414051,-0.09092726,9.025727,3.6897326,0.0,0.0,0.0
15858066793269,-0.047856454,9.001799,3.6849468,0.0,0.0,0.0
15858069172436,-0.033499517,8.973084,3.67059,0.0,0.0,0.0
15858071551603,-0.014356935,8.968299,3.6897326,0.0,0.0,0.0
15858073930821,-0.047856454,8.977871,3.7088752,0.0,0.0,0.0
15858076309988,-0.1052842,8.958728,3.7328033,0.0,0.0,0.0
15858078689103,-0.15792629,8.987442,3.7615173,0.0,0.0,0.0
15858081068374,-0.23928227,9.016156,3.7854455,0.0,0.0,0.0
15858083447540,-0.31585258,9.030513,3.7950168,0.0,0.0,0.0
15858085826707,-0.3684947,9.006584,3.8093736,0.0,0.0,0.0
15858088205926,-0.4546363,9.025727,3.818945,0.0,0.0,0.0
15858090585092,-0.53599226,9.025727,3.8572302,0.0,0.0,0.0
15858092964259,-0.6125626,9.016156,3.8572302,0.0,0.0,0.0
15858095343478,-0.67477596,9.020942,3.8811584,0.0,0.0,0.0
15858097722644,-0.6891329,9.016156,3.885944,0.0,0.0,0.0
15858100101811,-0.6891329,9.001799,3.871587,0.0,0.0,0.0
15858102481030,-0.6795616,8.997013,3.8620157,0.0,0.0,0.0
15858104860196,-0.6221339,9.001799,3.8572302,0.0,0.0,0.0
15858107239415,-0.57427746,9.016156,3.8620157,0.0,0.0,0.0
15858109618582,-0.53599226,9.01137,3.8620157,0.0,0.0,0.0
15858111997749,-0.4833502,9.040084,3.8333018,0.0,0.0,0.0
15858114376915,-0.44027936,9.073584,3.842873,0.0,0.0,0.0
15858116756134,-0.4211368,9.059227,3.8572302,0.0,0.0,0.0
15858119135301,-0.40677986,9.049655,3.8476589,0.0,0.0,0.0
15858121514519,-0.3924229,9.078369,3.8476589,0.0,0.0,0.0
15858123893686,-0.38763726,9.068798,3.8524444,0.0,0.0,0.0
15858126272853,-0.4019942,9.068798,3.871587,0.0,0.0,0.0
15858128652019,-0.41635114,9.111869,3.8811584,0.0,0.0,0.0
15858131031238,-0.43070808,9.083155,3.8572302,0.0,0.0,0.0
15858133410405,-0.41635114,9.064013,3.8476589,0.0,0.0,0.0
15858135789571,-0.44506502,9.078369,3.8524444,0.0,0.0,0.0
15858138168790,-0.44985065,9.083155,3.842873,0.0,0.0,0.0
15858140547957,-0.45942193,9.116654,3.8476589,0.0,0.0,0.0
15858142927176,-0.4833502,9.111869,3.8811584,0.0,0.0,0.0
15858145306342,-0.47856453,9.107083,3.871587,0.0,0.0,0.0
15858147685509,-0.4642076,9.116654,3.8620157,0.0,0.0,0.0
15858150064728,-0.44506502,9.145369,3.8141594,0.0,0.0,0.0
15858152443894,-0.39720857,9.169296,3.8093736,0.0,0.0,0.0
15858154823061,-0.3589234,9.193225,3.7806597,0.0,0.0,0.0
15858157202280,-0.30149564,9.226724,3.7998023,0.0,0.0,0.0
15858159581446,-0.23449662,9.236296,3.8141594,0.0,0.0,0.0
15858161960613,-0.15792629,9.226724,3.818945,0.0,0.0,0.0
15858164339780,-0.08135597,9.255438,3.804588,0.0,0.0,0.0
15858166718999,-0.014356935,9.245867,3.7806597,0.0,0.0,0.0
15858169098165,0.009571291,9.250652,3.7280176,0.0,0.0,0.0
15858171477384,0.07178468,9.260223,3.6897326,0.0,0.0,0.0
15858173856551,0.11006984,9.255438,3.6658044,0.0,0.0,0.0
15858176235717,0.11964113,9.250652,3.6514473,0.0,0.0,0.0
15858178614884,0.16271193,9.236296,3.6658044,0.0,0.0,0.0
15858180994103,0.19142582,9.274581,3.6610186,0.0,0.0,0.0
15858183373269,0.19142582,9.288938,3.6370904,0.0,0.0,0.0
15858185752488,0.2105684,9.293723,3.6179478,0.0,0.0,0.0
15858188131655,0.22971097,9.303294,3.5796626,0.0,0.0,0.0
15858190510821,0.24885355,9.322437,3.5509489,0.0,0.0,0.0
15858192889988,0.2632105,9.332008,3.546163,0.0,0.0,0.0
15858195269207,0.28713873,9.298509,3.5940197,0.0,0.0,0.0
15858197648321,0.33499518,9.312865,3.6323047,0.0,0.0,0.0
15858200027540,0.3493521,9.341579,3.6514473,0.0,0.0,0.0
15858202406759,0.33499518,9.346365,3.6610186,0.0,0.0,0.0
15858204785926,0.33499518,9.360723,3.6131623,0.0,0.0,0.0
15858207165092,0.3062813,9.355937,3.603591,0.0,0.0,0.0
15858209544311,0.28235307,9.346365,3.603591,0.0,0.0,0.0
15858211923478,0.23928227,9.327223,3.6227336,0.0,0.0,0.0
15858214302696,0.17706887,9.298509,3.6227336,0.0,0.0,0.0
15858216681863,0.11485548,9.284152,3.6131623,0.0,0.0,0.0
15858219061030,0.014356935,9.250652,3.603591,0.0,0.0,0.0
15858221440196,-0.062213387,9.221938,3.5844483,0.0,0.0,0.0
15858223819415,-0.124426775,9.202796,3.5653057,0.0,0.0,0.0
15858226198582,-0.19142582,9.178867,3.5557344,0.0,0.0,0.0
15858228577749,-0.29671,9.140582,3.5700915,0.0,0.0,0.0
15858230956967,-0.36370903,9.107083,3.574877,0.0,0.0,0.0
15858233336134,-0.44027936,9.059227,3.5988052,0.0,0.0,0.0
15858235715301,-0.47856453,9.0544405,3.5988052,0.0,0.0,0.0
15858238094519,-0.5312066,9.059227,3.5940197,0.0,0.0,0.0
15858240473686,-0.57427746,9.035298,3.5700915,0.0,0.0,0.0
15858242852853,-0.6221339,9.049655,3.5700915,0.0,0.0,0.0
15858245232071,-0.6221339,9.059227,3.6083765,0.0,0.0,0.0
15858247611238,-0.60777694,9.064013,3.641876,0.0,0.0,0.0
15858249990405,-0.61734825,9.044869,3.656233,0.0,0.0,0.0
15858252369624,-0.5982057,9.049655,3.6801612,0.0,0.0,0.0
15858254748790,-0.5694918,9.073584,3.6801612,0.0,0.0,0.0
15858257127957,-0.55034924,9.068798,3.6658044,0.0,0.0,0.0
15858259507176,-0.53599226,9.08794,3.6466618,0.0,0.0,0.0
15858261886342,-0.5024927,9.068798,3.6370904,0.0,0.0,0.0
15858264265509,-0.51206404,9.035298,3.6514473,0.0,0.0,0.0
15858266644728,-0.5072784,9.044869,3.6849468,0.0,0.0,0.0
15858269023894,-0.4977071,9.020942,3.7040894,0.0,0.0,0.0
15858271403061,-0.526421,8.992228,3.7184465,0.0,0.0,0.0
15858273782280,-0.5455636,8.9826565,3.694518,0.0,0.0,0.0
15858276161446,-0.57906306,8.9826565,3.656233,0.0,0.0,0.0
15858278540613,-0.60777694,8.977871,3.6514473,0.0,0.0,0.0
15858280919832,-0.6364908,9.01137,3.6658044,0.0,0.0,0.0
15858283298999,-0.6652047,9.030513,3.6849468,0.0,0.0,0.0
15858285678165,-0.6939186,9.049655,3.656233,0.0,0.0,0.0
15858288057384,-0.72741807,9.083155,3.6466618,0.0,0.0,0.0
15858290436551,-0.7465607,9.092726,3.641876,0.0,0.0,0.0
15858292815717,-0.74177504,9.111869,3.6131623,0.0,0.0,0.0
15858295194936,-0.7178468,9.12144,3.6179478,0.0,0.0,0.0
15858297574103,-0.66041905,9.174082,3.6083765,0.0,0.0,0.0
15858299953269,-0.6269195,9.2075815,3.6179478,0.0,0.0,0.0
15858302332488,-0.55034924,9.217153,3.6323047,0.0,0.0,0.0
15858304711655,-0.46899325,9.284152,3.6227336,0.0,0.0,0.0
15858307090821,-0.36370903,9.327223,3.5844483,0.0,0.0,0.0
15858309470040,-0.28235307,9.365508,3.5557344,0.0,0.0,0.0
15858311849207,-0.19142582,9.375079,3.5700915,0.0,0.0,0.0
15858314228374,-0.13878371,9.38465,3.5796626,0.0,0.0,0.0
15858316607592,-0.09571291,9.4229355,3.5988052,0.0,0.0,0.0
15858318986759,-0.07178468,9.427721,3.5988052,0.0,0.0,0.0
15858321365926,-0.07178468,9.437292,3.5796626,0.0,0.0,0.0
15858323745144,-0.09571291,9.41815,3.5653057,0.0,0.0,0.0
15858326124311,-0.14356937,9.394221,3.5653057,0.0,0.0,0.0
15858328503478,-0.17228323,9.403793,3.5844483,0.0,0.0,0.0
15858330882696,-0.23928227,9.394221,3.5892339,0.0,0.0,0.0
15858333261863,-0.28713873,9.370294,3.6083765,0.0,0.0,0.0
15858335641030,-0.34456646,9.332008,3.6227336,0.0,0.0,0.0
15858338020249,-0.37806597,9.327223,3.603591,0.0,0.0,0.0
15858340399415,-0.37328035,9.312865,3.5700915,0.0,0.0,0.0
15858342778582,-0.38763726,9.322437,3.5509489,0.0,0.0,0.0
15858345157749,-0.38763726,9.327223,3.5365918,0.0,0.0,0.0
15858347536967,-0.37806597,9.312865,3.5605202,0.0,0.0,0.0
15858349916134,-0.35413775,9.30808,3.5796626,0.0,0.0,0.0
15858352295353,-0.30149564,9.298509,3.6083765,0.0,0.0,0.0
15858354674519,-0.27756742,9.298509,3.6131623,0.0,0.0,0.0
15858357053634,-0.2105684,9.30808,3.603591,0.0,0.0,0.0
15858359432905,-0.14356937,9.332008,3.5940197,0.0,0.0,0.0
15858361812071,-0.086141616,9.336794,3.6131623,0.0,0.0,0.0
15858364191238,-0.023928227,9.3511505,3.6083765,0.0,0.0,0.0
15858366570457,0.02871387,9.355937,3.6370904,0.0,0.0,0.0
15858368949624,0.07178468,9.322437,3.6658044,0.0,0.0,0.0
15858371328790,0.1052842,9.288938,3.6849468,0.0,0.0,0.0
15858373708009,0.124426775,9.298509,3.6801612,0.0,0.0,0.0
15858376087176,0.124426775,9.293723,3.656233,0.0,0.0,0.0
15858378466342,0.148355,9.30808,3.6658044,0.0,0.0,0.0
15858380845561,0.124426775,9.298509,3.6897326,0.0,0.0,0.0
15858383224728,0.13399807,9.260223,3.7184465,0.0,0.0,0.0
15858385603894,0.13399807,9.255438,3.7663028,0.0,0.0,0.0
15858387983113,0.13399807,9.2793665,3.8141594,0.0,0.0,0.0
15858390362280,0.16271193,9.288938,3.8524444,0.0,0.0,0.0
15858392741446,0.19621146,9.269794,3.8476589,0.0,0.0,0.0
15858395120613,0.23928227,9.245867,3.8476589,0.0,0.0,0.0
15858397499832,0.29192436,9.212367,3.8907297,0.0,0.0,0.0
15858399878999,0.3397808,9.174082,3.9050865,0.0,0.0,0.0
15858402258165,0.38763726,9.116654,3.9290147,0.0,0.0,0.0
15858404637384,0.4354937,9.0544405,3.9673,0.0,0.0,0.0
15858407016551,0.47377887,9.001799,4.0007997,0.0,0.0,0.0
15858409395717,0.5024927,8.9348,4.048656,0.0,0.0,0.0
15858411774936,0.5072784,8.872586,4.0965123,0.0,0.0,0.0
15858414154103,0.5168497,8.839087,4.1443686,0.0,0.0,0.0
15858416533269,0.5024927,8.781659,4.197011,0.0,0.0,0.0
15858418912488,0.4546363,8.743374,4.249653,0.0,0.0,0.0
15858421291655,0.3924229,8.685946,4.26401,0.0,0.0,0.0
15858423670821,0.32063824,8.666803,4.302295,0.0,0.0,0.0
15858426050040,0.22013968,8.671589,4.345366,0.0,0.0,0.0
15858428429207,0.10049855,8.690732,4.388437,0.0,0.0,0.0
15858430808374,0.0,8.690732,4.436293,0.0,0.0,0.0
15858433187592,-0.09571291,8.71466,4.508078,0.0,0.0,0.0
15858435566759,-0.21535404,8.748159,4.575077,0.0,0.0,0.0
15858437945926,-0.29671,8.805588,4.627719,0.0,0.0,0.0
15858440325144,-0.3924229,8.85823,4.6755753,0.0,0.0,0.0
15858442704311,-0.46899325,8.896515,4.7138605,0.0,0.0,0.0
15858445083478,-0.5072784,8.886943,4.766503,0.0,0.0,0.0
15858447462696,-0.5455636,8.872586,4.8239303,0.0,0.0,0.0
15858449841863,-0.5838487,8.863015,4.847859,0.0,0.0,0.0
15858452221030,-0.57427746,8.886943,4.8526444,0.0,0.0,0.0
15858454600249,-0.57427746,8.839087,4.847859,0.0,0.0,0.0
15858456979415,-0.5407779,8.79123,4.8622155,0.0,0.0,0.0
15858459358582,-0.52163535,8.772088,4.8622155,0.0,0.0,0.0
15858461737801,-0.526421,8.743374,4.867001,0.0,0.0,0.0
15858464116967,-0.5312066,8.700303,4.833502,0.0,0.0,0.0
15858466496134,-0.5168497,8.705089,4.8191447,0.0,0.0,0.0
15858468875353,-0.53599226,8.700303,4.776074,0.0,0.0,0.0
15858471254519,-0.53599226,8.695518,4.7425747,0.0,0.0,0.0
15858473633686,-0.5886344,8.709874,4.718646,0.0,0.0,0.0
15858476012853,-0.5982057,8.700303,4.7042894,0.0,0.0,0.0
15858478392071,-0.6125626,8.705089,4.6803613,0.0,0.0,0.0
15858480771238,-0.6269195,8.695518,4.642076,0.0,0.0,0.0
15858483150405,-0.64606214,8.71466,4.5894337,0.0,0.0,0.0
15858485529624,-0.6412765,8.729017,4.546363,0.0,0.0,0.0
15858487908790,-0.6269195,8.733803,4.517649,0.0,0.0,0.0
15858490288009,-0.61734825,8.752945,4.5128636,0.0,0.0,0.0
15858492667176,-0.6125626,8.772088,4.503292,0.0,0.0,0.0
15858495046342,-0.5886344,8.772088,4.479364,0.0,0.0,0.0
15858497425509,-0.57906306,8.781659,4.465007,0.0,0.0,0.0
15858499804728,-0.5455636,8.733803,4.45065,0.0,0.0,0.0
15858502183894,-0.5168497,8.738588,4.412365,0.0,0.0,0.0
15858504563061,-0.4977071,8.743374,4.3788652,0.0,0.0,0.0
15858506942280,-0.49292147,8.743374,4.316652,0.0,0.0,0.0
15858509321446,-0.4881358,8.729017,4.2831526,0.0,0.0,0.0
15858511700613,-0.4642076,8.705089,4.2448673,0.0,0.0,0.0
15858514079832,-0.44985065,8.690732,4.206582,0.0,0.0,0.0
15858516458999,-0.4354937,8.657232,4.1491547,0.0,0.0,0.0
15858518838165,-0.42592242,8.652447,4.101298,0.0,0.0,0.0
15858521217384,-0.39720857,8.666803,4.048656,0.0,0.0,0.0
15858523596551,-0.37806597,8.657232,4.019942,0.0,0.0,0.0
15858525975717,-0.38763726,8.657232,3.991228,0.0,0.0,0.0
15858528354936,-0.37328035,8.676374,4.0007997,0.0,0.0,0.0
15858530734103,-0.36370903,8.724232,3.9816568,0.0,0.0,0.0
15858533113269,-0.32063824,8.772088,3.9720855,0.0,0.0,0.0
15858535492436,-0.31106696,8.800801,3.938586,0.0,0.0,0.0
15858537871655,-0.31585258,8.843872,3.9338005,0.0,0.0,0.0
15858540250821,-0.30149564,8.872586,3.9338005,0.0,0.0,0.0
15858542629988,-0.32542387,8.915657,3.9146578,0.0,0.0,0.0
15858545009207,-0.33499518,8.9348,3.8955152,0.0,0.0,0.0
15858547388374,-0.3397808,8.977871,3.9050865,0.0,0.0,0.0
15858549767540,-0.4019942,9.001799,3.885944,0.0,0.0,0.0
15858552146759,-0.42592242,9.035298,3.8907297,0.0,0.0,0.0
15858554525926,-0.4546363,9.059227,3.8668015,0.0,0.0,0.0
15858556905092,-0.49292147,9.068798,3.8620157,0.0,0.0,0.0
15858559284311,-0.5455636,9.08794,3.8572302,0.0,0.0,0.0
15858561663478,-0.5838487,9.102298,3.8524444,0.0,0.0,0.0
15858564042644,-0.5886344,9.131011,3.8572302,0.0,0.0,0.0
15858566421863,-0.61734825,9.135797,3.8620157,0.0,0.0,0.0
15858568801030,-0.61734825,9.15494,3.8763726,0.0,0.0,0.0
15858571180196,-0.6125626,9.15494,3.8620157,0.0,0.0,0.0
15858573559415,-0.6125626,9.164511,3.8763726,0.0,0.0,0.0
15858575938582,-0.6029913,9.164511,3.8811584,0.0,0.0,0.0
15858578317749,-0.57906306,9.15494,3.9050865,0.0,0.0,0.0
15858580696967,-0.55513483,9.15494,3.9242291,0.0,0.0,0.0
15858583076134,-0.53599226,9.145369,3.9146578,0.0,0.0,0.0
15858585455301,-0.526421,9.150154,3.9481573,0.0,0.0,0.0
15858587834519,-0.52163535,9.150154,3.9577286,0.0,0.0,0.0
15858590213686,-0.52163535,9.145369,3.9625144,0.0,0.0,0.0
15858592592853,-0.49292147,9.126225,3.9768713,0.0,0.0,0.0
15858594972071,-0.4881358,9.092726,3.9864426,0.0,0.0,0.0
15858597351238,-0.4833502,9.097511,4.0295134,0.0,0.0,0.0
15858599730405,-0.4546363,9.092726,4.0438704,0.0,0.0,0.0
15858602109519,-0.44985065,9.08794,4.048656,0.0,0.0,0.0
15858604488790,-0.38763726,9.059227,4.058227,0.0,0.0,0.0
15858606867957,-0.34456646,9.025727,4.072584,0.0,0.0,0.0
15858609247176,-0.33499518,9.030513,4.101298,0.0,0.0,0.0
15858611626342,-0.30149564,9.040084,4.1347976,0.0,0.0,0.0
15858614005509,-0.24885355,9.025727,4.1635113,0.0,0.0,0.0
15858616384676,-0.22971097,9.025727,4.1874394,0.0,0.0,0.0
15858618763894,-0.22492532,9.016156,4.1922255,0.0,0.0,0.0
15858621143061,-0.18664017,9.01137,4.197011,0.0,0.0,0.0
15858623522228,-0.17706887,8.987442,4.220939,0.0,0.0,0.0
15858625901446,-0.16271193,8.977871,4.2592244,0.0,0.0,0.0
15858628280613,-0.17228323,8.9826565,4.287938,0.0,0.0,0.0
15858630659780,-0.18185452,8.968299,4.3070807,0.0,0.0,0.0
15858633038999,-0.2009971,8.930014,4.3070807,0.0,0.0,0.0
15858635418165,-0.21535404,8.915657,4.2927237,0.0,0.0,0.0
15858637797332,-0.2632105,8.930014,4.2831526,0.0,0.0,0.0
15858640176551,-0.3062813,8.925228,4.287938,0.0,0.0,0.0
15858642555717,-0.3589234,8.891729,4.2975097,0.0,0.0,0.0
15858644934884,-0.40677986,8.896515,4.2927237,0.0,0.0,0.0
15858647314103,-0.42592242,8.9108715,4.2927237,0.0,0.0,0.0
15858649693269,-0.4642076,8.896515,4.287938,0.0,0.0,0.0
15858652072436,-0.4881358,8.9013,4.273581,0.0,0.0,0.0
15858654451551,-0.4977071,8.949157,4.278367,0.0,0.0,0.0
15858656830821,-0.52163535,8.953942,4.278367,0.0,0.0,0.0
15858659209988,-0.5312066,8.949157,4.2831526,0.0,0.0,0.0
15858661589155,-0.52163535,8.963513,4.2831526,0.0,0.0,0.0
15858663968374,-0.5072784,8.992228,4.273581,0.0,0.0,0.0
15858666347540,-0.53599226,8.973084,4.2831526,0.0,0.0,0.0
15858668726707,-0.53599226,8.963513,4.23051,0.0,0.0,0.0
15858671105926,-0.57906306,8.949157,4.197011,0.0,0.0,0.0
15858673485092,-0.57427746,8.953942,4.197011,0.0,0.0,0.0
15858675864259,-0.6029913,8.968299,4.2017965,0.0,0.0,0.0
15858678243478,-0.6029913,8.949157,4.1874394,0.0,0.0,0.0
15858680622644,-0.64606214,8.920443,4.173083,0.0,0.0,0.0
15858683001811,-0.6364908,8.915657,4.1635113,0.0,0.0,0.0
15858685381030,-0.6364908,8.915657,4.1443686,0.0,0.0,0.0
15858687760196,-0.65084773,8.925228,4.125226,0.0,0.0,0.0
15858690139363,-0.6795616,8.920443,4.106084,0.0,0.0,0.0
15858692518582,-0.67477596,8.9013,4.106084,0.0,0.0,0.0
15858694897749,-0.66041905,8.915657,4.091727,0.0,0.0,0.0
15858697276915,-0.6891329,8.9348,4.091727,0.0,0.0,0.0
15858699656082,-0.6843473,8.9348,4.0773697,0.0,0.0,0.0
15858702035301,-0.65084773,8.939586,4.063013,0.0,0.0,0.0
15858704414467,-0.6364908,8.944371,4.0295134,0.0,0.0,0.0
15858706793582,-0.6221339,8.944371,4.0295134,0.0,0.0,0.0
15858709172853,-0.6125626,8.953942,4.0151563,0.0,0.0,0.0
15858711552019,-0.5838487,8.963513,4.0007997,0.0,0.0,0.0
15858713931186,-0.526421,8.968299,4.0151563,0.0,0.0,0.0
15858716310405,-0.5072784,8.992228,4.005585,0.0,0.0,0.0
15858718689571,-0.47856453,9.006584,3.9720855,0.0,0.0,0.0
15858721068738,-0.4546363,9.016156,3.9577286,0.0,0.0,0.0
15858723447957,-0.44027936,8.992228,3.9481573,0.0,0.0,0.0
15858725827124,-0.4019942,8.992228,3.9194436,0.0,0.0,0.0
15858728206290,-0.3924229,9.01137,3.9242291,0.0,0.0,0.0
15858730585509,-0.3924229,9.020942,3.9098723,0.0,0.0,0.0
15858732964676,-0.39720857,9.025727,3.9050865,0.0,0.0,0.0
15858735343842,-0.39720857,9.001799,3.900301,0.0,0.0,0.0
15858737723061,-0.3924229,9.025727,3.8907297,0.0,0.0,0.0
15858740102228,-0.41156548,9.040084,3.8811584,0.0,0.0,0.0
15858742481394,-0.4019942,9.049655,3.8811584,0.0,0.0,0.0
15858744860613,-0.3924229,9.059227,3.8811584,0.0,0.0,0.0
15858747239780,-0.3493521,9.083155,3.8763726,0.0,0.0,0.0
15858749618946,-0.32542387,9.073584,3.8572302,0.0,0.0,0.0
15858751998113,-0.32063824,9.08794,3.8524444,0.0,0.0,0.0
15858754377332,-0.31106696,9.073584,3.8572302,0.0,0.0,0.0
15858756756499,-0.30149564,9.092726,3.8524444,0.0,0.0,0.0
15858759135665,-0.24885355,9.097511,3.8620157,0.0,0.0,0.0
15858761514884,-0.23928227,9.08794,3.8476589,0.0,0.0,0.0
15858763894051,-0.2009971,9.097511,3.8380876,0.0,0.0,0.0
15858766273217,-0.16749759,9.102298,3.8524444,0.0,0.0,0.0
15858768652436,-0.16271193,9.083155,3.8476589,0.0,0.0,0.0
15858771031603,-0.16271193,9.083155,3.818945,0.0,0.0,0.0
15858773410769,-0.15314065,9.078369,3.8237305,0.0,0.0,0.0
15858775789936,-0.18185452,9.068798,3.8524444,0.0,0.0,0.0
15858778169155,-0.22971097,9.083155,3.8524444,0.0,0.0,0.0
15858780548321,-0.29192436,9.078369,3.8476589,0.0,0.0,0.0
15858782927488,-0.33020952,9.059227,3.8476589,0.0,0.0,0.0
15858785306707,-0.36370903,9.064013,3.8524444,0.0,0.0,0.0
15858787685874,-0.4211368,9.064013,3.8572302,0.0,0.0,0.0
15858790065040,-0.4833502,9.049655,3.871587,0.0,0.0,0.0
15858792444259,-0.51206404,9.068798,3.8811584,0.0,0.0,0.0
15858794823374,-0.56470615,9.08794,3.885944,0.0,0.0,0.0
15858797202592,-0.6029913,9.107083,3.9050865,0.0,0.0,0.0
15858799581811,-0.63170516,9.126225,3.9146578,0.0,0.0,0.0
15858801960978,-0.6556334,9.107083,3.9242291,0.0,0.0,0.0
15858804340144,-0.63170516,9.092726,3.9290147,0.0,0.0,0.0
15858806719363,-0.6269195,9.092726,3.9625144,0.0,0.0,0.0
15858809098530,-0.60777694,9.092726,3.9673,0.0,0.0,0.0
15858811477696,-0.5886344,9.064013,3.9625144,0.0,0.0,0.0
15858813856915,-0.57427746,9.0544405,3.9577286,0.0,0.0,0.0
15858816236082,-0.55513483,9.049655,3.9720855,0.0,0.0,0.0
15858818615249,-0.5312066,9.059227,3.9673,0.0,0.0,0.0
15858820994467,-0.52163535,9.035298,3.9720855,0.0,0.0,0.0
15858823373634,-0.5072784,9.049655,3.9960139,0.0,0.0,0.0
15858825752801,-0.4881358,9.025727,4.0103707,0.0,0.0,0.0
15858828131967,-0.5024927,9.025727,4.024728,0.0,0.0,0.0
15858830511186,-0.51206404,9.020942,4.019942,0.0,0.0,0.0
15858832890353,-0.51206404,9.025727,4.0151563,0.0,0.0,0.0
15858835269519,-0.56470615,9.020942,4.0295134,0.0,0.0,0.0
15858837648738,-0.57427746,9.001799,4.0390844,0.0,0.0,0.0
15858840027905,-0.5982057,8.997013,4.058227,0.0,0.0,0.0
15858842407071,-0.60777694,8.9826565,4.058227,0.0,0.0,0.0
15858844786290,-0.6125626,8.997013,4.048656,0.0,0.0,0.0
15858847165457,-0.6364908,8.992228,4.0438704,0.0,0.0,0.0
15858849544624,-0.61734825,8.977871,4.0438704,0.0,0.0,0.0
15858851923790,-0.56470615,8.968299,4.0438704,0.0,0.0,0.0
15858854303009,-0.5599205,8.9826565,4.063013,0.0,0.0,0.0
15858856682176,-0.52163535,8.992228,4.072584,0.0,0.0,0.0
15858859061342,-0.4833502,8.992228,4.0677986,0.0,0.0,0.0
15858861440561,-0.4642076,8.987442,4.0438704,0.0,0.0,0.0
15858863819728,-0.44027936,8.939586,4.0295134,0.0,0.0,0.0
15858866198894,-0.41156548,8.949157,4.0007997,0.0,0.0,0.0
15858868578113,-0.38763726,8.925228,4.0103707,0.0,0.0,0.0
15858870957280,-0.37328035,8.958728,4.019942,0.0,0.0,0.0
15858873336446,-0.3684947,8.963513,4.0295134,0.0,0.0,0.0
15858875715665,-0.36370903,8.953942,4.005585,0.0,0.0,0.0
15858878094832,-0.3684947,8.9348,3.9960139,0.0,0.0,0.0
15858880473999,-0.38285163,8.949157,3.9864426,0.0,0.0,0.0
15858882853165,-0.4019942,8.949157,3.9577286,0.0,0.0,0.0
15858885232384,-0.41156548,8.953942,3.9720855,0.0,0.0,0.0
15858887611551,-0.44027936,8.944371,3.9720855,0.0,0.0,0.0
15858889990717,-0.44027936,8.968299,3.9816568,0.0,0.0,0.0
15858892369936,-0.47377887,8.953942,3.9720855,0.0,0.0,0.0
15858894749103,-0.51206404,8.973084,3.9816568,0.0,0.0,0.0
15858897128269,-0.4977071,8.997013,3.938586,0.0,0.0,0.0
15858899507488,-0.47856453,8.987442,3.9242291,0.0,0.0,0.0
15858901886655,-0.46899325,9.001799,3.9242291,0.0,0.0,0.0
15858904265821,-0.4546363,9.006584,3.938586,0.0,0.0,0.0
15858906645040,-0.4211368,9.035298,3.9768713,0.0,0.0,0.0
15858909024207,-0.37328035,9.049655,3.9720855,0.0,0.0,0.0
15858911403374,-0.32542387,9.044869,3.9625144,0.0,0.0,0.0
15858913782592,-0.31585258,9.064013,3.952943,0.0,0.0,0.0
15858916161759,-0.27756742,9.064013,3.9577286,0.0,0.0,0.0
15858918540926,-0.23449662,9.044869,3.9577286,0.0,0.0,0.0
15858920920092,-0.22013968,9.030513,3.9625144,0.0,0.0,0.0
15858923299311,-0.17706887,9.059227,3.9625144,0.0,0.0,0.0
15858925678478,-0.16271193,9.073584,3.9625144,0.0,0.0,0.0
15858928057644,-0.16749759,9.064013,3.9625144,0.0,0.0,0.0
15858930436863,-0.18185452,9.044869,3.9864426,0.0,0.0,0.0
15858932816030,-0.20578274,9.059227,3.9960139,0.0,0.0,0.0
15858935195196,-0.22971097,9.044869,3.9864426,0.0,0.0,0.0
15858937574415,-0.23928227,9.040084,3.991228,0.0,0.0,0.0
15858939953582,-0.2632105,9.040084,4.0103707,0.0,0.0,0.0
15858942332749,-0.26799613,9.049655,4.0007997,0.0,0.0,0.0
15858944711967,-0.2632105,9.049655,4.0007997,0.0,0.0,0.0
15858947091134,-0.25842485,9.035298,3.991228,0.0,0.0,0.0
15858949470301,-0.23449662,9.020942,3.991228,0.0,0.0,0.0
15858951849519,-0.25842485,9.035298,3.9960139,0.0,0.0,0.0
15858954228686,-0.23928227,9.020942,4.0103707,0.0,0.0,0.0
15858956607853,-0.23449662,9.01137,4.0103707,0.0,0.0,0.0
15858958987019,-0.2105684,9.025727,4.0295134,0.0,0.0,0.0
15858961366238,-0.23928227,9.040084,4.005585,0.0,0.0,0.0
15858963745405,-0.23928227,9.049655,3.9864426,0.0,0.0,0.0
15858966124571,-0.23928227,9.044869,3.991228,0.0,0.0,0.0
15858968503738,-0.2105684,9.044869,4.0151563,0.0,0.0,0.0
15858970882957,-0.2105684,9.0544405,4.0103707,0.0,0.0,0.0
15858973262124,-0.23928227,9.044869,4.019942,0.0,0.0,0.0
15858975641342,-0.2632105,9.044869,4.024728,0.0,0.0,0.0
15858978020509,-0.29192436,9.044869,4.0007997,0.0,0.0,0.0
15858980399676,-0.33499518,9.040084,4.0103707,0.0,0.0,0.0
15858982778842,-0.37328035,9.035298,4.0151563,0.0,0.0,0.0
15858985158061,-0.38763726,9.040084,4.0295134,0.0,0.0,0.0
15858987537228,-0.43070808,9.030513,4.048656,0.0,0.0,0.0
15858989916394,-0.45942193,9.020942,4.0534415,0.0,0.0,0.0
15858992295613,-0.4977071,9.025727,4.063013,0.0,0.0,0.0
15858994674780,-0.526421,9.016156,4.063013,0.0,0.0,0.0
15858997053946,-0.53599226,9.020942,4.048656,0.0,0.0,0.0
15858999433165,-0.57427746,9.035298,4.048656,0.0,0.0,0.0
15859001812332,-0.5838487,9.035298,4.058227,0.0,0.0,0.0
15859004191499,-0.56470615,9.025727,4.0677986,0.0,0.0,0.0
15859006570717,-0.57906306,9.035298,4.0534415,0.0,0.0,0.0
15859008949884,-0.59342,9.025727,4.0534415,0.0,0.0,0.0
15859011329051,-0.57906306,9.035298,4.048656,0.0,0.0,0.0
15859013708217,-0.57906306,9.059227,4.0534415,0.0,0.0,0.0
15859016087436,-0.55513483,9.068798,4.0534415,0.0,0.0,0.0
15859018466603,-0.53599226,9.0544405,4.063013,0.0,0.0,0.0
15859020845769,-0.52163535,9.059227,4.063013,0.0,0.0,0.0
15859023224988,-0.5312066,9.025727,4.0677986,0.0,0.0,0.0
15859025604155,-0.526421,9.025727,4.0534415,0.0,0.0,0.0
15859027983321,-0.5407779,9.016156,4.058227,0.0,0.0,0.0
15859030362540,-0.4977071,9.040084,4.0773697,0.0,0.0,0.0
15859032741707,-0.49292147,9.044869,4.082155,0.0,0.0,0.0
15859035120874,-0.5024927,9.020942,4.0773697,0.0,0.0,0.0
15859037500040,-0.49292147,8.963513,4.058227,0.0,0.0,0.0
15859039879259,-0.4977071,8.958728,4.0534415,0.0,0.0,0.0
15859042258426,-0.5024927,8.9826565,4.0390844,0.0,0.0,0.0
15859044637592,-0.5072784,8.997013,4.0295134,0.0,0.0,0.0
15859047016811,-0.5024927,9.01137,4.024728,0.0,0.0,0.0
15859049395978,-0.5024927,9.001799,4.0438704,0.0,0.0,0.0
15859051775144,-0.4881358,9.016156,4.0534415,0.0,0.0,0.0
15859054154363,-0.44506502,9.020942,4.058227,0.0,0.0,0.0
15859056533530,-0.42592242,9.040084,4.072584,0.0,0.0,0.0
15859058912696,-0.38763726,9.040084,4.0534415,0.0,0.0,0.0
15859061291915,-0.33499518,9.035298,4.0534415,0.0,0.0,0.0
15859063671082,-0.29192436,9.016156,4.0295134,0.0,0.0,0.0
15859066050249,-0.28235307,9.025727,4.034299,0.0,0.0,0.0
15859068429415,-0.23928227,9.016156,4.0390844,0.0,0.0,0.0
15859070808634,-0.22492532,9.01137,4.0295134,0.0,0.0,0.0
15859073187801,-0.2009971,9.006584,4.0390844,0.0,0.0,0.0
15859075566967,-0.19621146,9.001799,4.019942,0.0,0.0,0.0
15859077946186,-0.17228323,8.992228,4.0151563,0.0,0.0,0.0
15859080325301,-0.15792629,8.992228,4.019942,0.0,0.0,0.0
15859082704519,-0.17228323,8.992228,4.019942,0.0,0.0,0.0
15859085083738,-0.15314065,8.997013,4.019942,0.0,0.0,0.0
15859087462905,-0.148355,8.997013,4.019942,0.0,0.0,0.0
15859089842071,-0.16271193,8.997013,4.019942,0.0,0.0,0.0
15859092221238,-0.16749759,8.992228,4.019942,0.0,0.0,0.0
15859094600457,-0.17706887,9.001799,4.0007997,0.0,0.0,0.0
15859096979624,-0.17228323,9.006584,3.9816568,0.0,0.0,0.0
15859099358790,-0.13399807,9.001799,3.9864426,0.0,0.0,0.0
15859101738009,-0.12921242,8.977871,3.991228,0.0,0.0,0.0
15859104117176,-0.11485548,8.9826565,3.9768713,0.0,0.0,0.0
15859106496342,-0.09571291,8.987442,3.9673,0.0,0.0,0.0
15859108875561,-0.07178468,8.973084,3.9577286,0.0,0.0,0.0
15859111254728,-0.038285162,8.963513,3.9481573,0.0,0.0,0.0
15859113633894,-0.047856454,8.973084,3.9625144,0.0,0.0,0.0
15859116013061,-0.023928227,8.9826565,3.9433718,0.0,0.0,0.0
15859118392280,-0.009571291,8.973084,3.9481573,0.0,0.0,0.0
15859120771446,-0.038285162,8.973084,3.9433718,0.0,0.0,0.0
15859123150613,-0.033499517,8.958728,3.9433718,0.0,0.0,0.0
15859125529832,-0.0526421,8.973084,3.9481573,0.0,0.0,0.0
15859127908999,-0.062213387,8.958728,3.938586,0.0,0.0,0.0
15859130288165,-0.1052842,8.9826565,3.9577286,0.0,0.0,0.0
15859132667384,-0.11964113,8.9826565,3.9625144,0.0,0.0,0.0
15859135046551,-0.16749759,8.997013,3.9625144,0.0,0.0,0.0
15859137425717,-0.17706887,9.020942,3.952943,0.0,0.0,0.0
15859139804884,-0.17228323,9.020942,3.9481573,0.0,0.0,0.0
15859142184103,-0.18664017,9.020942,3.9577286,0.0,0.0,0.0
15859144563269,-0.18664017,9.01137,3.952943,0.0,0.0,0.0
15859146942436,-0.16271193,9.020942,3.9768713,0.0,0.0,0.0
15859149321655,-0.13878371,9.020942,3.9960139,0.0,0.0,0.0
15859151700821,-0.12921242,9.030513,3.9960139,0.0,0.0,0.0
15859154079988,-0.11964113,9.035298,3.9864426,0.0,0.0,0.0
15859156459207,-0.124426775,9.035298,3.9960139,0.0,0.0,0.0
15859158838374,-0.1052842,9.044869,4.0103707,0.0,0.0,0.0
15859161217540,-0.07178468,9.064013,4.0103707,0.0,0.0,0.0
15859163596759,-0.09092726,9.059227,4.019942,0.0,0.0,0.0
15859165975926,-0.086141616,9.044869,4.019942,0.0,0.0,0.0
15859168355092,-0.10049855,9.049655,4.024728,0.0,0.0,0.0
15859170734259,-0.124426775,9.059227,4.034299,0.0,0.0,0.0
15859173113478,-0.13878371,9.040084,4.019942,0.0,0.0,0.0
15859175492644,-0.18185452,9.035298,4.019942,0.0,0.0,0.0
15859177871811,-0.19621146,9.035298,4.0438704,0.0,0.0,0.0
15859180251030,-0.22013968,9.025727,4.048656,0.0,0.0,0.0
15859182630196,-0.23928227,9.016156,4.0534415,0.0,0.0,0.0
15859185009363,-0.23928227,8.997013,4.063013,0.0,0.0,0.0
15859187388582,-0.22492532,9.006584,4.072584,0.0,0.0,0.0
15859189767749,-0.19142582,9.006584,4.0773697,0.0,0.0,0.0
15859192146915,-0.18185452,8.9826565,4.082155,0.0,0.0,0.0
15859194526082,-0.17706887,8.953942,4.082155,0.0,0.0,0.0
15859196905301,-0.14356937,8.949157,4.072584,0.0,0.0,0.0
15859199284467,-0.11964113,8.949157,4.091727,0.0,0.0,0.0
15859201663634,-0.09571291,8.9108715,4.082155,0.0,0.0,0.0
15859204042853,-0.07178468,8.896515,4.0869412,0.0,0.0,0.0
15859206422019,-0.038285162,8.9108715,4.058227,0.0,0.0,0.0
15859208801186,-0.02871387,8.915657,4.0773697,0.0,0.0,0.0
15859211180353,-0.033499517,8.915657,4.1204405,0.0,0.0,0.0
15859213559571,-0.033499517,8.9348,4.125226,0.0,0.0,0.0
15859215938738,-0.02871387,8.953942,4.1108694,0.0,0.0,0.0
15859218317905,-0.019142581,8.944371,4.1108694,0.0,0.0,0.0
15859220697124,0.009571291,8.930014,4.115655,0.0,0.0,0.0
15859223076290,-0.009571291,8.920443,4.139583,0.0,0.0,0.0
15859225455457,0.009571291,8.953942,4.1491547,0.0,0.0,0.0
15859227834676,0.038285162,8.963513,4.168297,0.0,0.0,0.0
15859230213842,0.043070808,8.958728,4.173083,0.0,0.0,0.0
15859232593009,0.02871387,8.963513,4.168297,0.0,0.0,0.0
15859234972176,0.038285162,8.958728,4.1874394,0.0,0.0,0.0
15859237351394,0.02871387,8.9826565,4.197011,0.0,0.0,0.0
15859239730561,0.0,9.001799,4.1778684,0.0,0.0,0.0
15859242109728,0.009571291,9.020942,4.197011,0.0,0.0,0.0
15859244488946,0.0,9.020942,4.2161536,0.0,0.0,0.0
15859246868113,-0.014356935,9.035298,4.2161536,0.0,0.0,0.0
15859249247280,-0.019142581,9.064013,4.211368,0.0,0.0,0.0
15859251626499,-0.06699903,9.059227,4.2017965,0.0,0.0,0.0
15859254005665,-0.07178468,9.059227,4.2161536,0.0,0.0,0.0
15859256384832,-0.09092726,9.073584,4.2161536,0.0,0.0,0.0
15859258763999,-0.124426775,9.08794,4.1922255,0.0,0.0,0.0
15859261143217,-0.13399807,9.092726,4.2017965,0.0,0.0,0.0
15859263522384,-0.15792629,9.078369,4.197011,0.0,0.0,0.0
15859265901551,-0.16749759,9.08794,4.1874394,0.0,0.0,0.0
15859268280769,-0.19621146,9.083155,4.1874394,0.0,0.0,0.0
15859270659936,-0.22013968,9.092726,4.1635113,0.0,0.0,0.0
15859273039103,-0.25842485,9.111869,4.1635113,0.0,0.0,0.0
15859275418269,-0.28713873,9.111869,4.173083,0.0,0.0,0.0
15859277797436,-0.2727818,9.097511,4.1635113,0.0,0.0,0.0
15859280176655,-0.29671,9.102298,4.139583,0.0,0.0,0.0
15859282555821,-0.33020952,9.08794,4.130012,0.0,0.0,0.0
15859284935040,-0.3397808,9.073584,4.106084,0.0,0.0,0.0
15859287314207,-0.33020952,9.064013,4.0965123,0.0,0.0,0.0
15859289693374,-0.3589234,9.059227,4.0773697,0.0,0.0,0.0
15859292072592,-0.37806597,9.049655,4.082155,0.0,0.0,0.0
15859294451759,-0.37806597,9.059227,4.0677986,0.0,0.0,0.0
15859296830926,-0.4019942,9.044869,4.058227,0.0,0.0,0.0
15859299210092,-0.43070808,9.020942,4.0390844,0.0,0.0,0.0
15859301589311,-0.4354937,9.035298,4.034299,0.0,0.0,0.0
15859303968478,-0.47856453,9.030513,4.0151563,0.0,0.0,0.0
15859306347644,-0.47856453,9.035298,4.0151563,0.0,0.0,0.0
15859308726863,-0.47856453,9.040084,4.0151563,0.0,0.0,0.0
15859311106030,-0.49292147,9.025727,4.0151563,0.0,0.0,0.0
15859313485196,-0.5072784,9.01137,4.0151563,0.0,0.0,0.0
15859315864415,-0.51206404,9.016156,4.005585,0.0,0.0,0.0
15859318243582,-0.49292147,9.006584,4.0007997,0.0,0.0,0.0
15859320622749,-0.4881358,9.006584,4.0007997,0.0,0.0,0.0
15859323001915,-0.45942193,9.001799,3.991228,0.0,0.0,0.0
15859325381134,-0.45942193,8.9826565,3.9768713,0.0,0.0,0.0
15859327760301,-0.45942193,8.9826565,3.9673,0.0,0.0,0.0
15859330139467,-0.44506502,8.968299,3.9625144,0.0,0.0,0.0
15859332518686,-0.4211368,8.9826565,3.9481573,0.0,0.0,0.0
15859334897853,-0.38285163,8.968299,3.9338005,0.0,0.0,0.0
15859337277019,-0.40677986,8.973084,3.9338005,0.0,0.0,0.0
15859339656186,-0.3924229,8.992228,3.9433718,0.0,0.0,0.0
15859342035405,-0.37328035,8.977871,3.9290147,0.0,0.0,0.0
15859344414571,-0.3493521,8.963513,3.9290147,0.0,0.0,0.0
15859346793738,-0.34456646,8.977871,3.9098723,0.0,0.0,0.0
15859349172957,-0.3397808,8.9826565,3.8907297,0.0,0.0,0.0
15859351552124,-0.3397808,8.973084,3.9146578,0.0,0.0,0.0
15859353931290,-0.33020952,8.973084,3.9290147,0.0,0.0,0.0
15859356310509,-0.38285163,8.963513,3.9146578,0.0,0.0,0.0
15859358689676,-0.34456646,8.958728,3.9194436,0.0,0.0,0.0
15859361068842,-0.3397808,8.963513,3.9242291,0.0,0.0,0.0
15859363448009,-0.33499518,8.958728,3.9050865,0.0,0.0,0.0
15859365827228,-0.32542387,8.973084,3.9098723,0.0,0.0,0.0
15859368206394,-0.28235307,8.9826565,3.9098723,0.0,0.0,0.0
15859370585561,-0.28713873,8.973084,3.938586,0.0,0.0,0.0
15859372964780,-0.26799613,8.973084,3.9481573,0.0,0.0,0.0
15859375343946,-0.25842485,8.987442,3.9720855,0.0,0.0,0.0
15859377723113,-0.22492532,8.977871,3.9625144,0.0,0.0,0.0
15859380102280,-0.18185452,8.968299,3.9720855,0.0,0.0,0.0
15859382481499,-0.17228323,8.987442,3.9816568,0.0,0.0,0.0
15859384860665,-0.17706887,8.992228,3.9816568,0.0,0.0,0.0
15859387239832,-0.16271193,9.001799,3.9864426,0.0,0.0,0.0
15859389619051,-0.148355,9.01137,4.0007997,0.0,0.0,0.0
15859391998217,-0.13399807,9.020942,3.9960139,0.0,0.0,0.0
15859394377384,-0.11964113,9.035298,3.991228,0.0,0.0,0.0
15859396756603,-0.13399807,9.044869,3.9816568,0.0,0.0,0.0
15859399135769,-0.11485548,9.044869,3.991228,0.0,0.0,0.0
15859401514936,-0.15314065,9.035298,4.0103707,0.0,0.0,0.0
15859403894103,-0.15314065,9.049655,4.0103707,0.0,0.0,0.0
15859406273321,-0.15792629,9.044869,4.005585,0.0,0.0,0.0
15859408652488,-0.14356937,9.044869,4.024728,0.0,0.0,0.0
15859411031655,-0.13878371,9.030513,4.0295134,0.0,0.0,0.0
15859413410821,-0.16749759,9.025727,4.0390844,0.0,0.0,0.0
15859415790040,-0.17228323,9.035298,4.0151563,0.0,0.0,0.0
15859418169207,-0.18185452,9.016156,4.0103707,0.0,0.0,0.0
15859420548374,-0.2105684,9.025727,4.024728,0.0,0.0,0.0
15859422927592,-0.18664017,9.030513,3.991228,0.0,0.0,0.0
15859425306759,-0.19142582,9.020942,3.9864426,0.0,0.0,0.0
15859427685926,-0.20578274,9.040084,3.9864426,0.0,0.0,0.0
15859430065144,-0.23449662,9.049655,4.0007997,0.0,0.0,0.0
15859432444311,-0.24885355,9.025727,4.019942,0.0,0.0,0.0
15859434823478,-0.2440679,9.035298,4.019942,0.0,0.0,0.0
15859437202696,-0.26799613,9.035298,4.0103707,0.0,0.0,0.0
15859439581863,-0.2536392,9.020942,4.0295134,0.0,0.0,0.0
15859441961030,-0.25842485,9.035298,4.019942,0.0,0.0,0.0
15859444340196,-0.26799613,9.040084,4.0151563,0.0,0.0,0.0
15859446719415,-0.27756742,9.040084,4.0007997,0.0,0.0,0.0
15859449098582,-0.28235307,9.064013,4.0007997,0.0,0.0,0.0
15859451477749,-0.30149564,9.0544405,4.0007997,0.0,0.0,0.0
15859453856967,-0.29671,9.049655,4.0007997,0.0,0.0,0.0
15859456236134,-0.31585258,9.059227,3.9960139,0.0,0.0,0.0
15859458615301,-0.33499518,9.040084,4.0151563,0.0,0.0,0.0
15859460994467,-0.3493521,9.040084,4.0295134,0.0,0.0,0.0
15859463373686,-0.3589234,9.040084,4.0438704,0.0,0.0,0.0
15859465752853,-0.3493521,9.040084,4.0295134,0.0,0.0,0.0
15859468132019,-0.3493521,9.016156,4.034299,0.0,0.0,0.0
15859470511238,-0.35413775,9.044869,4.019942,0.0,0.0,0.0
15859472890405,-0.3397808,9.040084,4.024728,0.0,0.0,0.0
15859475269571,-0.32542387,9.030513,4.034299,0.0,0.0,0.0
15859477648738,-0.32542387,9.044869,4.024728,0.0,0.0,0.0
15859480027957,-0.31585258,9.040084,4.034299,0.0,0.0,0.0
15859482407124,-0.3062813,9.044869,4.034299,0.0,0.0,0.0
15859484786290,-0.2727818,9.040084,4.0438704,0.0,0.0,0.0
15859487165509,-0.26799613,9.035298,4.0534415,0.0,0.0,0.0
15859489544624,-0.2440679,9.025727,4.058227,0.0,0.0,0.0
15859491923842,-0.24885355,9.035298,4.0534415,0.0,0.0,0.0
15859494303009,-0.24885355,9.020942,4.0438704,0.0,0.0,0.0
15859496682228,-0.2536392,9.030513,4.0534415,0.0,0.0,0.0
15859499061394,-0.2440679,9.020942,4.034299,0.0,0.0,0.0
15859501440561,-0.23928227,9.030513,4.0295134,0.0,0.0,0.0
15859503819780,-0.2440679,9.016156,4.0103707,0.0,0.0,0.0
15859506198946,-0.23928227,9.016156,4.0103707,0.0,0.0,0.0
15859508578113,-0.2440679,9.016156,4.0007997,0.0,0.0,0.0
15859510957280,-0.22971097,9.020942,4.0007997,0.0,0.0,0.0
15859513336499,-0.23928227,9.030513,4.0007997,0.0,0.0,0.0
15859515715665,-0.2536392,9.035298,4.0007997,0.0,0.0,0.0
15859518094832,-0.25842485,9.044869,4.0103707,0.0,0.0,0.0
15859520474051,-0.2536392,9.030513,4.005585,0.0,0.0,0.0
15859522853165,-0.2536392,9.0544405,3.9960139,0.0,0.0,0.0
15859525232384,-0.26799613,9.073584,3.9960139,0.0,0.0,0.0
15859527611603,-0.29192436,9.068798,3.9960139,0.0,0.0,0.0
15859529990769,-0.2632105,9.083155,3.9816568,0.0,0.0,0.0
15859532369936,-0.2440679,9.068798,3.9816568,0.0,0.0,0.0
15859534749103,-0.22971097,9.073584,3.9720855,0.0,0.0,0.0
15859537128321,-0.19142582,9.083155,3.9433718,0.0,0.0,0.0
15859539507488,-0.16271193,9.064013,3.9625144,0.0,0.0,0.0
15859541886655,-0.13399807,9.049655,3.9720855,0.0,0.0,0.0
15859544265821,-0.124426775,9.044869,3.9673,0.0,0.0,0.0
15859546645040,-0.11006984,9.016156,3.9768713,0.0,0.0,0.0
15859549024207,-0.1052842,9.030513,4.0007997,0.0,0.0,0.0
15859551403374,-0.11964113,9.006584,3.9864426,0.0,0.0,0.0
15859553782592,-0.1052842,9.016156,3.9720855,0.0,0.0,0.0
15859556161759,-0.09092726,9.006584,3.9768713,0.0,0.0,0.0
15859558540874,-0.11006984,9.01137,3.9768713,0.0,0.0,0.0
15859560920092,-0.13399807,8.997013,3.9673,0.0,0.0,0.0
15859563299311,-0.17706887,9.006584,3.9768713,0.0,0.0,0.0
15859565678478,-0.19621146,8.973084,3.9673,0.0,0.0,0.0
15859568057644,-0.19621146,8.987442,3.9625144,0.0,0.0,0.0
15859570436863,-0.20578274,9.006584,3.9720855,0.0,0.0,0.0
15859572816030,-0.23449662,9.025727,3.991228,0.0,0.0,0.0
15859575195196,-0.24885355,9.035298,3.9960139,0.0,0.0,0.0
15859577574415,-0.2727818,9.01137,4.0103707,0.0,0.0,0.0
15859579953582,-0.28235307,9.016156,4.0007997,0.0,0.0,0.0
15859582332749,-0.27756742,9.020942,3.9960139,0.0,0.0,0.0
15859584711915,-0.28713873,8.987442,4.0151563,0.0,0.0,0.0
15859587091134,-0.2632105,8.9826565,4.0103707,0.0,0.0,0.0
15859589470301,-0.23449662,8.973084,4.0151563,0.0,0.0,0.0
15859591849467,-0.20578274,8.973084,4.019942,0.0,0.0,0.0
15859594228686,-0.18664017,8.953942,3.9960139,0.0,0.0,0.0
15859596607853,-0.18185452,8.973084,4.0151563,0.0,0.0,0.0
15859598987019,-0.17228323,8.963513,4.019942,0.0,0.0,0.0
15859601366186,-0.18664017,8.958728,4.0151563,0.0,0.0,0.0
15859603745405,-0.20578274,8.953942,4.0103707,0.0,0.0,0.0
15859606124571,-0.2105684,8.968299,4.034299,0.0,0.0,0.0
15859608503738,-0.22492532,8.968299,4.034299,0.0,0.0,0.0
15859610882905,-0.23449662,8.973084,4.0438704,0.0,0.0,0.0
15859613262124,-0.2632105,8.973084,4.048656,0.0,0.0,0.0
15859615641290,-0.26799613,8.987442,4.048656,0.0,0.0,0.0
15859618020457,-0.26799613,8.987442,4.063013,0.0,0.0,0.0
15859620399676,-0.27756742,8.992228,4.0534415,0.0,0.0,0.0
15859622778842,-0.29192436,9.006584,4.072584,0.0,0.0,0.0
15859625158009,-0.29192436,9.01137,4.0677986,0.0,0.0,0.0
15859627537176,-0.25842485,9.020942,4.0534415,0.0,0.0,0.0
15859629916394,-0.25842485,9.030513,4.0534415,0.0,0.0,0.0
15859632295561,-0.24885355,9.020942,4.0534415,0.0,0.0,0.0
15859634674728,-0.22013968,9.040084,4.0677986,0.0,0.0,0.0
15859637053946,-0.22013968,9.044869,4.0869412,0.0,0.0,0.0
15859639433113,-0.23449662,9.049655,4.0965123,0.0,0.0,0.0
15859641812280,-0.22971097,9.044869,4.082155,0.0,0.0,0.0
15859644191499,-0.2009971,9.0544405,4.063013,0.0,0.0,0.0
15859646570665,-0.18185452,9.078369,4.072584,0.0,0.0,0.0
15859648949832,-0.18185452,9.083155,4.063013,0.0,0.0,0.0
15859651328999,-0.17706887,9.083155,4.063013,0.0,0.0,0.0
15859653708217,-0.18664017,9.08794,4.0869412,0.0,0.0,0.0
15859656087384,-0.17228323,9.092726,4.0869412,0.0,0.0,0.0
15859658466551,-0.19142582,9.08794,4.082155,0.0,0.0,0.0
15859660845769,-0.2105684,9.097511,4.072584,0.0,0.0,0.0
15859663224936,-0.22971097,9.092726,4.0677986,0.0,0.0,0.0
15859665604103,-0.23449662,9.059227,4.0677986,0.0,0.0,0.0
15859667983269,-0.2440679,9.059227,4.0677986,0.0,0.0,0.0
15859670362488,-0.27756742,9.044869,4.0773697,0.0,0.0,0.0
15859672741655,-0.28713873,9.035298,4.082155,0.0,0.0,0.0
15859675120821,-0.24885355,9.035298,4.063013,0.0,0.0,0.0
15859677500040,-0.2727818,9.020942,4.063013,0.0,0.0,0.0
15859679879207,-0.2727818,9.020942,4.0534415,0.0,0.0,0.0
15859682258374,-0.29671,9.006584,4.0534415,0.0,0.0,0.0
15859684637540,-0.3062813,8.992228,4.0773697,0.0,0.0,0.0
15859687016759,-0.31106696,8.987442,4.0677986,0.0,0.0,0.0
15859689395926,-0.29192436,8.977871,4.063013,0.0,0.0,0.0
15859691775092,-0.28235307,8.963513,4.0773697,0.0,0.0,0.0
15859694154259,-0.28713873,8.958728,4.0534415,0.0,0.0,0.0
15859696533478,-0.2536392,8.949157,4.0534415,0.0,0.0,0.0
15859698912644,-0.28235307,8.963513,4.058227,0.0,0.0,0.0
15859701291811,-0.26799613,8.973084,4.0534415,0.0,0.0,0.0
15859703670978,-0.2536392,8.9826565,4.058227,0.0,0.0,0.0
15859706050196,-0.2536392,8.973084,4.0390844,0.0,0.0,0.0
15859708429363,-0.23449662,8.953942,4.0534415,0.0,0.0,0.0
15859710808530,-0.2440679,8.949157,4.0534415,0.0,0.0,0.0
15859713187749,-0.24885355,8.939586,4.0390844,0.0,0.0,0.0
15859715566915,-0.25842485,8.953942,4.0390844,0.0,0.0,0.0
15859717946082,-0.27756742,8.949157,4.0534415,0.0,0.0,0.0
15859720325301,-0.30149564,8.953942,4.048656,0.0,0.0,0.0
15859722704467,-0.32063824,8.939586,4.0438704,0.0,0.0,0.0
15859725083634,-0.34456646,8.930014,4.0438704,0.0,0.0,0.0
15859727462801,-0.3493521,8.944371,4.024728,0.0,0.0,0.0
15859729842019,-0.37806597,8.9348,4.024728,0.0,0.0,0.0
15859732221186,-0.3589234,8.930014,4.0390844,0.0,0.0,0.0
15859734600353,-0.35413775,8.968299,4.0534415,0.0,0.0,0.0
15859736979571,-0.3684947,8.949157,4.048656,0.0,0.0,0.0
15859739358738,-0.41635114,8.977871,4.0295134,0.0,0.0,0.0
15859741737905,-0.40677986,8.973084,4.024728,0.0,0.0,0.0
15859744117071,-0.38763726,8.997013,4.024728,0.0,0.0,0.0
15859746496290,-0.40677986,9.020942,4.0295134,0.0,0.0,0.0
15859748875457,-0.41156548,9.049655,4.0534415,0.0,0.0,0.0
15859751254624,-0.40677986,9.044869,4.034299,0.0,0.0,0.0
15859753633790,-0.38763726,9.040084,4.005585,0.0,0.0,0.0
15859756013009,-0.3589234,9.035298,4.024728,0.0,0.0,0.0
15859758392176,-0.3493521,9.044869,4.024728,0.0,0.0,0.0
15859760771342,-0.33499518,9.0544405,4.0007997,0.0,0.0,0.0
15859763150561,-0.32063824,9.0544405,3.9960139,0.0,0.0,0.0
15859765529728,-0.29192436,9.030513,3.9960139,0.0,0.0,0.0
15859767908894,-0.27756742,9.044869,4.0007997,0.0,0.0,0.0
15859770288061,-0.3062813,9.040084,3.9960139,0.0,0.0,0.0
15859772667280,-0.29671,9.044869,4.0151563,0.0,0.0,0.0
15859775046394,-0.28235307,9.049655,4.0151563,0.0,0.0,0.0
15859777425613,-0.29192436,9.059227,4.019942,0.0,0.0,0.0
15859779804832,-0.28713873,9.049655,4.0295134,0.0,0.0,0.0
15859782183999,-0.28235307,9.030513,4.034299,0.0,0.0,0.0
15859784563165,-0.27756742,9.030513,4.048656,0.0,0.0,0.0
15859786942332,-0.26799613,9.040084,4.0534415,0.0,0.0,0.0
15859789321551,-0.27756742,9.030513,4.0438704,0.0,0.0,0.0
15859791700717,-0.23928227,9.025727,4.048656,0.0,0.0,0.0
15859794079884,-0.22013968,9.01137,4.0438704,0.0,0.0,0.0
15859796459103,-0.2105684,9.044869,4.0438704,0.0,0.0,0.0
15859798838269,-0.19621146,9.049655,4.034299,0.0,0.0,0.0
15859801217436,-0.16749759,9.040084,4.0438704,0.0,0.0,0.0
15859803596603,-0.13399807,9.044869,4.0438704,0.0,0.0,0.0
15859805975821,-0.15314065,9.040084,4.0438704,0.0,0.0,0.0
15859808354988,-0.13399807,9.035298,4.058227,0.0,0.0,0.0
15859810734155,-0.124426775,9.025727,4.0677986,0.0,0.0,0.0
15859813113374,-0.09092726,9.0544405,4.058227,0.0,0.0,0.0
15859815492540,-0.06699903,9.064013,4.048656,0.0,0.0,0.0
15859817871707,-0.062213387,9.025727,4.058227,0.0,0.0,0.0
15859820250874,-0.086141616,9.025727,4.082155,0.0,0.0,0.0
15859822630092,-0.09092726,9.030513,4.072584,0.0,0.0,0.0
15859825009259,-0.08135597,9.049655,4.0438704,0.0,0.0,0.0
15859827388374,-0.09092726,9.035298,4.0438704,0.0,0.0,0.0
15859829767592,-0.09571291,9.035298,4.0534415,0.0,0.0,0.0
15859832146811,-0.11006984,9.049655,4.058227,0.0,0.0,0.0
15859834525978,-0.10049855,9.040084,4.048656,0.0,0.0,0.0
15859836905144,-0.11485548,9.035298,4.0677986,0.0,0.0,0.0
15859839284311,-0.09092726,9.035298,4.0390844,0.0,0.0,0.0
15859841663530,-0.10049855,9.044869,4.0295134,0.0,0.0,0.0
15859844042696,-0.11006984,9.035298,4.0007997,0.0,0.0,0.0
15859846421863,-0.10049855,9.049655,4.005585,0.0,0.0,0.0
15859848801082,-0.06699903,9.059227,4.0151563,0.0,0.0,0.0
15859851180249,-0.047856454,9.040084,4.024728,0.0,0.0,0.0
15859853559415,-0.0526421,9.030513,4.0151563,0.0,0.0,0.0
15859855938634,-0.047856454,9.020942,4.019942,0.0,0.0,0.0
15859858317801,-0.02871387,9.006584,4.005585,0.0,0.0,0.0
15859860696967,-0.023928227,9.020942,4.0103707,0.0,0.0,0.0
15859863076134,-0.043070808,9.006584,4.005585,0.0,0.0,0.0
15859865455353,-0.05742774,9.001799,4.0007997,0.0,0.0,0.0
15859867834519,-0.06699903,9.001799,4.005585,0.0,0.0,0.0
15859870213686,-0.086141616,9.016156,3.991228,0.0,0.0,0.0
15859872592853,-0.086141616,9.01137,4.0007997,0.0,0.0,0.0
15859874972071,-0.09092726,9.006584,4.005585,0.0,0.0,0.0
15859877351238,-0.09092726,9.006584,3.991228,0.0,0.0,0.0
15859879730405,-0.09092726,9.006584,4.0007997,0.0,0.0,0.0
15859882109624,-0.11964113,8.992228,3.9768713,0.0,0.0,0.0
15859884488790,-0.11006984,9.001799,3.9768713,0.0,0.0,0.0
15859886867957,-0.1052842,9.01137,3.9816568,0.0,0.0,0.0
15859889247124,-0.10049855,8.9826565,3.9816568,0.0,0.0,0.0
15859891626342,-0.09571291,8.992228,3.991228,0.0,0.0,0.0
15859894005509,-0.09571291,8.963513,3.9816568,0.0,0.0,0.0
15859896384676,-0.09092726,8.9826565,3.9816568,0.0,0.0,0.0
15859898763894,-0.06699903,8.992228,3.9720855,0.0,0.0,0.0
15859901143061,-0.08135597,9.01137,3.9768713,0.0,0.0,0.0
15859903522228,-0.09092726,9.016156,3.9960139,0.0,0.0,0.0
15859905901394,-0.076570325,9.006584,4.005585,0.0,0.0,0.0
15859908280613,-0.07178468,9.020942,4.0151563,0.0,0.0,0.0
15859910659780,-0.07178468,8.997013,4.019942,0.0,0.0,0.0
15859913038946,-0.07178468,9.01137,3.9960139,0.0,0.0,0.0
15859915418113,-0.062213387,9.016156,3.9960139,0.0,0.0,0.0
15859917797280,-0.06699903,9.001799,4.0103707,0.0,0.0,0.0
15859920176499,-0.06699903,9.030513,4.005585,0.0,0.0,0.0
15859922555665,-0.07178468,9.030513,4.0151563,0.0,0.0,0.0
15859924934832,-0.076570325,9.001799,4.019942,0.0,0.0,0.0
15859927314051,-0.06699903,9.006584,4.0295134,0.0,0.0,0.0
15859929693217,-0.038285162,9.01137,4.034299,0.0,0.0,0.0
15859932072384,-0.019142581,9.01137,4.034299,0.0,0.0,0.0
15859934451603,0.02871387,8.987442,4.0390844,0.0,0.0,0.0
15859936830769,0.023928227,9.025727,4.0438704,0.0,0.0,0.0
15859939209936,0.023928227,9.016156,4.0438704,0.0,0.0,0.0
15859941589103,0.033499517,9.006584,4.048656,0.0,0.0,0.0
15859943968321,0.047856454,9.001799,4.063013,0.0,0.0,0.0
15859946347488,0.0526421,9.01137,4.0773697,0.0,0.0,0.0
15859948726655,0.05742774,9.001799,4.063013,0.0,0.0,0.0
15859951105874,0.076570325,9.006584,4.0677986,0.0,0.0,0.0
15859953485040,0.06699903,9.020942,4.0773697,0.0,0.0,0.0
15859955864207,0.05742774,8.977871,4.0773697,0.0,0.0,0.0
15859958243374,0.033499517,8.968299,4.072584,0.0,0.0,0.0
15859960622592,0.023928227,8.997013,4.072584,0.0,0.0,0.0
15859963001759,0.009571291,8.992228,4.0773697,0.0,0.0,0.0
15859965380926,0.0047856453,8.997013,4.0869412,0.0,0.0,0.0
15859967760092,0.023928227,9.006584,4.0869412,0.0,0.0,0.0
15859970139311,0.014356935,9.006584,4.0869412,0.0,0.0,0.0
15859972518478,0.019142581,8.997013,4.048656,0.0,0.0,0.0
15859974897644,0.009571291,8.992228,4.063013,0.0,0.0,0.0
15859977276863,-0.023928227,8.973084,4.0438704,0.0,0.0,0.0
15859979656030,-0.019142581,8.997013,4.048656,0.0,0.0,0.0
15859982035196,-0.02871387,8.977871,4.048656,0.0,0.0,0.0
15859984414363,-0.023928227,8.968299,4.0534415,0.0,0.0,0.0
15859986793582,-0.019142581,8.963513,4.048656,0.0,0.0,0.0
15859989172749,-0.02871387,8.977871,4.048656,0.0,0.0,0.0
15859991551915,-0.019142581,8.987442,4.0295134,0.0,0.0,0.0
15859993931134,-0.009571291,9.001799,4.024728,0.0,0.0,0.0
15859996310301,0.0047856453,9.016156,4.0438704,0.0,0.0,0.0
15859998689467,0.02871387,9.001799,4.0295134,0.0,0.0,0.0
15860001068634,0.05742774,9.020942,4.019942,0.0,0.0,0.0
15860003447853,0.023928227,9.044869,4.0295134,0.0,0.0,0.0
15860005827019,0.019142581,9.040084,4.024728,0.0,0.0,0.0
15860008206186,-0.023928227,9.044869,4.0151563,0.0,0.0,0.0
15860010585353,-0.05742774,9.025727,4.0007997,0.0,0.0,0.0
15860012964571,-0.033499517,9.035298,3.991228,0.0,0.0,0.0
15860015343738,-0.08135597,9.030513,3.9960139,0.0,0.0,0.0
15860017722905,-0.09571291,9.044869,3.9816568,0.0,0.0,0.0
15860020102124,-0.124426775,9.035298,3.9768713,0.0,0.0,0.0
15860022481290,-0.13878371,9.016156,3.9864426,0.0,0.0,0.0
15860024860457,-0.15792629,9.006584,3.991228,0.0,0.0,0.0
15860027239624,-0.15792629,8.992228,3.9768713,0.0,0.0,0.0
15860029618842,-0.15314065,9.006584,3.9720855,0.0,0.0,0.0
15860031997957,-0.14356937,9.016156,3.9673,0.0,0.0,0.0
15860034377176,-0.13878371,8.997013,3.9864426,0.0,0.0,0.0
15860036756342,-0.11485548,8.992228,4.005585,0.0,0.0,0.0
15860039135561,-0.09092726,8.9826565,4.0103707,0.0,0.0,0.0
15860041514728,-0.06699903,8.977871,3.991228,0.0,0.0,0.0
15860043893894,-0.05742774,8.977871,4.0103707,0.0,0.0,0.0
15860046273113,-0.014356935,8.987442,4.019942,0.0,0.0,0.0
15860048652280,-0.009571291,8.997013,4.0103707,0.0,0.0,0.0
15860051031446,0.0,8.992228,4.019942,0.0,0.0,0.0
15860053410613,0.014356935,8.9826565,4.019942,0.0,0.0,0.0
15860055789832,0.014356935,9.016156,4.0390844,0.0,0.0,0.0
15860058168999,-0.0047856453,9.030513,4.0390844,0.0,0.0,0.0
15860060548165,-0.02871387,9.020942,4.048656,0.0,0.0,0.0
15860062927332,-0.047856454,9.020942,4.0390844,0.0,0.0,0.0
15860065306551,-0.043070808,9.044869,4.0438704,0.0,0.0,0.0
15860067685717,-0.076570325,9.030513,4.0438704,0.0,0.0,0.0
15860070064884,-0.11485548,9.049655,4.048656,0.0,0.0,0.0
15860072444103,-0.13878371,9.059227,4.0677986,0.0,0.0,0.0
15860074823269,-0.16749759,9.0544405,4.063013,0.0,0.0,0.0
15860077202436,-0.17706887,9.0544405,4.0677986,0.0,0.0,0.0
15860079581551,-0.16271193,9.064013,4.072584,0.0,0.0,0.0
15860081960821,-0.17228323,9.059227,4.063013,0.0,0.0,0.0
15860084339988,-0.17228323,9.0544405,4.0773697,0.0,0.0,0.0
15860086719155,-0.19621146,9.059227,4.082155,0.0,0.0,0.0
15860089098321,-0.18664017,9.049655,4.082155,0.0,0.0,0.0
15860091477540,-0.17706887,9.064013,4.082155,0.0,0.0,0.0
15860093856707,-0.148355,9.068798,4.0869412,0.0,0.0,0.0
15860096235874,-0.14356937,9.059227,4.101298,0.0,0.0,0.0
15860098615092,-0.13878371,9.040084,4.0965123,0.0,0.0,0.0
15860100994259,-0.148355,9.040084,4.091727,0.0,0.0,0.0
15860103373426,-0.15792629,9.044869,4.082155,0.0,0.0,0.0
15860105752592,-0.12921242,9.044869,4.082155,0.0,0.0,0.0
15860108131811,-0.16749759,9.025727,4.072584,0.0,0.0,0.0
15860110510978,-0.22013968,9.016156,4.072584,0.0,0.0,0.0
15860112890144,-0.23928227,9.001799,4.0965123,0.0,0.0,0.0
15860115269311,-0.24885355,9.016156,4.106084,0.0,0.0,0.0
15860117648530,-0.2727818,9.01137,4.101298,0.0,0.0,0.0
15860120027696,-0.31106696,9.006584,4.0869412,0.0,0.0,0.0
15860122406863,-0.37328035,9.001799,4.106084,0.0,0.0,0.0
15860124786030,-0.38763726,8.997013,4.091727,0.0,0.0,0.0
15860127165249,-0.39720857,8.992228,4.0869412,0.0,0.0,0.0
15860129544415,-0.4211368,8.973084,4.101298,0.0,0.0,0.0
15860131923582,-0.4211368,8.9826565,4.082155,0.0,0.0,0.0
15860134302801,-0.41635114,8.992228,4.072584,0.0,0.0,0.0
15860136681967,-0.41635114,8.987442,4.0773697,0.0,0.0,0.0
15860139061134,-0.39720857,8.9826565,4.101298,0.0,0.0,0.0
15860141440301,-0.38285163,8.968299,4.115655,0.0,0.0,0.0
15860143819519,-0.3493521,8.973084,4.1108694,0.0,0.0,0.0
15860146198686,-0.3493521,8.968299,4.0965123,0.0,0.0,0.0
15860148577853,-0.3589234,8.968299,4.0869412,0.0,0.0,0.0
15860150957019,-0.35413775,8.949157,4.101298,0.0,0.0,0.0
15860153336238,-0.33499518,8.953942,4.106084,0.0,0.0,0.0
15860155715405,-0.32063824,8.973084,4.101298,0.0,0.0,0.0
15860158094571,-0.33020952,8.977871,4.0773697,0.0,0.0,0.0
15860160473738,-0.34456646,8.973084,4.072584,0.0,0.0,0.0
15860162852957,-0.38285163,8.992228,4.0869412,0.0,0.0,0.0
15860165232124,-0.3924229,8.987442,4.101298,0.0,0.0,0.0
15860167611290,-0.4211368,8.968299,4.0773697,0.0,0.0,0.0
15860169990509,-0.4354937,8.992228,4.0773697,0.0,0.0,0.0
15860172369676,-0.45942193,8.9826565,4.091727,0.0,0.0,0.0
15860174748842,-0.44985065,8.997013,4.0869412,0.0,0.0,0.0
15860177128009,-0.44985065,8.973084,4.091727,0.0,0.0,0.0
15860179507228,-0.4546363,8.958728,4.0773697,0.0,0.0,0.0
15860181886394,-0.4642076,8.958728,4.0869412,0.0,0.0,0.0
15860184265561,-0.44985065,8.963513,4.0677986,0.0,0.0,0.0
15860186644728,-0.44027936,8.9826565,4.082155,0.0,0.0,0.0
15860189023946,-0.43070808,8.9826565,4.082155,0.0,0.0,0.0
15860191403113,-0.37806597,8.977871,4.063013,0.0,0.0,0.0
15860193782280,-0.36370903,8.973084,4.063013,0.0,0.0,0.0
15860196161499,-0.33020952,8.968299,4.0677986,0.0,0.0,0.0
15860198540665,-0.3062813,8.992228,4.0534415,0.0,0.0,0.0
15860200919832,-0.29192436,9.01137,4.0390844,0.0,0.0,0.0
15860203298999,-0.2632105,9.01137,4.0438704,0.0,0.0,0.0
15860205678165,-0.2536392,9.006584,4.048656,0.0,0.0,0.0
15860208057384,-0.22492532,9.006584,4.0295134,0.0,0.0,0.0
15860210436551,-0.2105684,9.01137,4.034299,0.0,0.0,0.0
15860212815717,-0.22971097,9.001799,4.0438704,0.0,0.0,0.0
15860215194936,-0.22971097,9.01137,4.0390844,0.0,0.0,0.0
15860217574103,-0.24885355,9.01137,4.0390844,0.0,0.0,0.0
15860219953269,-0.24885355,9.020942,4.0295134,0.0,0.0,0.0
15860222332436,-0.29192436,9.025727,4.0390844,0.0,0.0,0.0
15860224711655,-0.28235307,9.030513,4.048656,0.0,0.0,0.0
15860227090821,-0.2727818,9.030513,4.034299,0.0,0.0,0.0
15860229469988,-0.2727818,9.020942,4.034299,0.0,0.0,0.0
15860231849155,-0.28235307,9.030513,4.0295134,0.0,0.0,0.0
15860234228269,-0.2727818,9.020942,4.0151563,0.0,0.0,0.0
15860236607540,-0.2440679,9.001799,4.019942,0.0,0.0,0.0
15860238986707,-0.24885355,9.030513,4.0103707,0.0,0.0,0.0
15860241365874,-0.2105684,9.044869,4.0103707,0.0,0.0,0.0
15860243745092,-0.20578274,9.025727,4.0103707,0.0,0.0,0.0
15860246124259,-0.17706887,9.044869,4.0151563,0.0,0.0,0.0
15860248503426,-0.15314065,9.035298,4.0151563,0.0,0.0,0.0
15860250882644,-0.15792629,9.035298,4.0103707,0.0,0.0,0.0
15860253261811,-0.13399807,9.044869,4.0151563,0.0,0.0,0.0
15860255640978,-0.148355,9.035298,4.0007997,0.0,0.0,0.0
15860258020144,-0.12921242,9.044869,3.9960139,0.0,0.0,0.0
15860260399363,-0.13399807,9.035298,4.0151563,0.0,0.0,0.0
15860262778530,-0.15314065,9.025727,4.0103707,0.0,0.0,0.0
15860265157696,-0.16271193,9.035298,4.0295134,0.0,0.0,0.0
15860267536863,-0.17706887,9.006584,4.019942,0.0,0.0,0.0
15860269916082,-0.20578274,9.016156,4.0151563,0.0,0.0,0.0
15860272295249,-0.19621146,9.035298,4.0103707,0.0,0.0,0.0
15860274674415,-0.19142582,9.040084,4.019942,0.0,0.0,0.0
15860277053634,-0.2009971,9.030513,4.0295134,0.0,0.0,0.0
15860279432801,-0.20578274,9.030513,4.0151563,0.0,0.0,0.0
15860281811967,-0.17706887,9.044869,4.034299,0.0,0.0,0.0
15860284191134,-0.19142582,9.020942,4.0151563,0.0,0.0,0.0
15860286570301,-0.19621146,9.030513,4.005585,0.0,0.0,0.0
15860288949519,-0.17706887,9.016156,4.0103707,0.0,0.0,0.0
15860291328686,-0.17706887,9.016156,4.019942,0.0,0.0,0.0
15860293707853,-0.148355,9.016156,4.0103707,0.0,0.0,0.0
15860296087071,-0.13878371,9.025727,4.005585,0.0,0.0,0.0
15860298466238,-0.13878371,9.016156,4.024728,0.0,0.0,0.0
15860300845405,-0.13878371,9.025727,4.034299,0.0,0.0,0.0
15860303224519,-0.13399807,9.020942,4.0438704,0.0,0.0,0.0
15860305603790,-0.148355,9.016156,4.0534415,0.0,0.0,0.0
15860307982957,-0.16749759,8.9826565,4.0438704,0.0,0.0,0.0
15860310362124,-0.18185452,8.977871,4.0390844,0.0,0.0,0.0
15860312741290,-0.19142582,8.992228,4.0534415,0.0,0.0,0.0
15860315120509,-0.22013968,8.987442,4.058227,0.0,0.0,0.0
15860317499676,-0.20578274,8.992228,4.0534415,0.0,0.0,0.0
15860319878842,-0.23928227,8.9826565,4.0295134,0.0,0.0,0.0
15860322258061,-0.24885355,9.001799,4.0390844,0.0,0.0,0.0
15860324637228,-0.23928227,9.006584,4.058227,0.0,0.0,0.0
15860327016394,-0.24885355,8.992228,4.063013,0.0,0.0,0.0
15860329395561,-0.2536392,8.997013,4.072584,0.0,0.0,0.0
15860331774728,-0.24885355,9.001799,4.058227,0.0,0.0,0.0
15860334153946,-0.21535404,9.006584,4.0677986,0.0,0.0,0.0
15860336533113,-0.2105684,8.973084,4.0677986,0.0,0.0,0.0
15860338912280,-0.19621146,8.997013,4.063013,0.0,0.0,0.0
15860341291499,-0.2009971,9.006584,4.048656,0.0,0.0,0.0
15860343670665,-0.17706887,9.001799,4.0438704,0.0,0.0,0.0
15860346049832,-0.15792629,8.992228,4.0534415,0.0,0.0,0.0
15860348428999,-0.148355,9.006584,4.063013,0.0,0.0,0.0
15860350808217,-0.15314065,9.001799,4.0677986,0.0,0.0,0.0
15860353187384,-0.15314065,9.01137,4.0677986,0.0,0.0,0.0
15860355566551,-0.15792629,9.001799,4.063013,0.0,0.0,0.0
15860357945769,-0.15314065,9.001799,4.063013,0.0,0.0,0.0
15860360324936,-0.15792629,8.997013,4.063013,0.0,0.0,0.0
15860362704103,-0.17228323,9.01137,4.0677986,0.0,0.0,0.0
15860365083269,-0.19621146,9.006584,4.0677986,0.0,0.0,0.0
15860367462436,-0.19142582,8.992228,4.063013,0.0,0.0,0.0
15860369841655,-0.17228323,8.992228,4.0677986,0.0,0.0,0.0
15860372220821,-0.19142582,8.977871,4.058227,0.0,0.0,0.0
15860374599988,-0.21535404,8.987442,4.0534415,0.0,0.0,0.0
15860376979207,-0.18664017,8.992228,4.0438704,0.0,0.0,0.0
15860379358374,-0.16271193,9.01137,4.048656,0.0,0.0,0.0
15860381737540,-0.16271193,9.01137,4.058227,0.0,0.0,0.0
15860384116707,-0.16271193,8.987442,4.0390844,0.0,0.0,0.0
15860386495874,-0.15314065,9.016156,4.0390844,0.0,0.0,0.0
15860388875092,-0.13878371,9.030513,4.019942,0.0,0.0,0.0
15860391254259,-0.15314065,9.030513,4.019942,0.0,0.0,0.0
15860393633426,-0.13399807,9.035298,4.024728,0.0,0.0,0.0
15860396012644,-0.11006984,9.025727,4.0151563,0.0,0.0,0.0
15860398391811,-0.1052842,9.044869,4.024728,0.0,0.0,0.0
15860400770978,-0.11006984,9.059227,4.0103707,0.0,0.0,0.0
15860403150144,-0.11485548,9.0544405,4.005585,0.0,0.0,0.0
15860405529363,-0.11964113,9.064013,4.005585,0.0,0.0,0.0
15860407908530,-0.11964113,9.064013,4.0007997,0.0,0.0,0.0
15860410287696,-0.12921242,9.035298,4.0007997,0.0,0.0,0.0
15860412666863,-0.13878371,9.030513,4.0007997,0.0,0.0,0.0
15860415046082,-0.15792629,9.044869,3.991228,0.0,0.0,0.0
15860417425249,-0.13399807,9.064013,3.9673,0.0,0.0,0.0
15860419804415,-0.15314065,9.064013,3.9577286,0.0,0.0,0.0
15860422183582,-0.17228323,9.049655,3.9673,0.0,0.0,0.0
15860424562801,-0.18185452,9.030513,3.9673,0.0,0.0,0.0
15860426941967,-0.17228323,9.025727,3.9577286,0.0,0.0,0.0
15860429321134,-0.16271193,9.035298,3.9720855,0.0,0.0,0.0
15860431700301,-0.17706887,9.030513,3.9577286,0.0,0.0,0.0
15860434079519,-0.148355,9.044869,3.9673,0.0,0.0,0.0
15860436458686,-0.13878371,9.044869,3.9625144,0.0,0.0,0.0
15860438837853,-0.13399807,9.059227,3.938586,0.0,0.0,0.0
15860441217071,-0.11964113,9.0544405,3.9433718,0.0,0.0,0.0
15860443596238,-0.11485548,9.064013,3.938586,0.0,0.0,0.0
15860445975405,-0.12921242,9.068798,3.9577286,0.0,0.0,0.0
15860448354571,-0.13399807,9.0544405,3.9433718,0.0,0.0,0.0
15860450733790,-0.12921242,9.064013,3.9481573,0.0,0.0,0.0
15860453112957,-0.13878371,9.040084,3.9242291,0.0,0.0,0.0
15860455492124,-0.14356937,9.078369,3.9242291,0.0,0.0,0.0
15860457871290,-0.11964113,9.064013,3.938586,0.0,0.0,0.0
15860460250457,-0.11964113,9.030513,3.9242291,0.0,0.0,0.0
15860462629676,-0.11485548,9.01137,3.9338005,0.0,0.0,0.0
