t_ns,ax,ay,az,bx,by,bz
20922880012889,1.0671989,8.896515,4.1922255,0.0,0.0,0.0
20922882389504,0.9619147,8.939586,3.9720855,0.0,0.0,0.0
20922884768462,0.82313097,8.953942,3.9050865,0.0,0.0,0.0
20922887147316,0.6987042,8.925228,4.0534415,0.0,0.0,0.0
20922889526379,0.5168497,8.906086,4.2831526,0.0,0.0,0.0
20922891904712,0.4019942,8.915657,4.45065,0.0,0.0,0.0
20922894284348,0.30149564,8.886943,4.4458647,0.0,0.0,0.0
20922896663306,0.22013968,8.9013,4.3118663,0.0,0.0,0.0
20922899042264,0.18664017,8.915657,4.125226,0.0,0.0,0.0
20922901420754,0.19621146,8.930014,4.034299,0.0,0.0,0.0
20922903800181,0.23449662,8.915657,4.0773697,0.0,0.0,0.0
20922906179139,0.32063824,8.925228,4.2161536,0.0,0.0,0.0
20922908558098,0.42592242,8.915657,4.3405805,0.0,0.0,0.0
20922910937056,0.55034924,8.9108715,4.3740797,0.0,0.0,0.0
20922913315598,0.6795616,8.9013,4.3118663,0.0,0.0,0.0
20922915694973,0.8039884,8.9013,4.1874394,0.0,0.0,0.0
20922918073931,0.8997013,8.891729,4.0677986,0.0,0.0,0.0
20922920452889,0.9762716,8.886943,4.063013,0.0,0.0,0.0
20922922831431,0.9906286,8.891729,4.130012,0.0,0.0,0.0
20922925210858,1.0001999,8.9013,4.2352962,0.0,0.0,0.0
20922927589816,0.971486,8.882157,4.321438,0.0,0.0,0.0
20922929968775,0.90448695,8.886943,4.3070807,0.0,0.0,0.0
20922932347733,0.8135597,8.886943,4.211368,0.0,0.0,0.0
20922934726639,0.72263247,8.9013,4.130012,0.0,0.0,0.0
20922937105650,0.6269195,8.891729,4.0773697,0.0,0.0,0.0
20922939484608,0.5312066,8.9108715,4.139583,0.0,0.0,0.0
20922941863566,0.42592242,8.925228,4.2161536,0.0,0.0,0.0
20922944242525,0.3589234,8.939586,4.2975097,0.0,0.0,0.0
20922946621483,0.33499518,8.9108715,4.316652,0.0,0.0,0.0
20922949000493,0.34456646,8.920443,4.2927237,0.0,0.0,0.0
20922951379452,0.35413775,8.906086,4.206582,0.0,0.0,0.0
20922953758410,0.3924229,8.915657,4.1491547,0.0,0.0,0.0
20922956137368,0.44985065,8.9108715,4.1443686,0.0,0.0,0.0
20922958516327,0.5312066,8.896515,4.206582,0.0,0.0,0.0
20922960895285,0.61734825,8.9013,4.249653,0.0,0.0,0.0
20922963274243,0.6939186,8.9108715,4.278367,0.0,0.0,0.0
20922965653202,0.7704889,8.930014,4.2448673,0.0,0.0,0.0
20922968032160,0.8327023,8.9108715,4.182654,0.0,0.0,0.0
20922970411118,0.8709874,8.920443,4.15394,0.0,0.0,0.0
20922972790077,0.89491564,8.925228,4.139583,0.0,0.0,0.0
20922975169035,0.89013004,8.9013,4.1587257,0.0,0.0,0.0
20922977548046,0.83748794,8.877372,4.197011,0.0,0.0,0.0
20922979927004,0.79920274,8.896515,4.2352962,0.0,0.0,0.0
20922982305962,0.74177504,8.9013,4.254439,0.0,0.0,0.0
20922984684921,0.6987042,8.896515,4.2448673,0.0,0.0,0.0
20922987063879,0.6364908,8.891729,4.197011,0.0,0.0,0.0
20922989442837,0.5407779,8.920443,4.1874394,0.0,0.0,0.0
20922991821796,0.4977071,8.925228,4.1922255,0.0,0.0,0.0
20922994200754,0.4642076,8.906086,4.220939,0.0,0.0,0.0
20922996579712,0.46899325,8.925228,4.2448673,0.0,0.0,0.0
20922998958671,0.45942193,8.896515,4.2592244,0.0,0.0,0.0
20923001337629,0.4977071,8.9013,4.249653,0.0,0.0,0.0
20923003716587,0.5312066,8.896515,4.211368,0.0,0.0,0.0
20923006095546,0.56470615,8.920443,4.1874394,0.0,0.0,0.0
20923008474504,0.6221339,8.9108715,4.173083,0.0,0.0,0.0
20923010853514,0.6652047,8.891729,4.168297,0.0,0.0,0.0
20923013232473,0.7513463,8.906086,4.1874394,0.0,0.0,0.0
20923015611431,0.79441714,8.9013,4.2017965,0.0,0.0,0.0
20923017990389,0.79920274,8.906086,4.1922255,0.0,0.0,0.0
20923020369348,0.8039884,8.882157,4.182654,0.0,0.0,0.0
20923022748306,0.82313097,8.886943,4.1635113,0.0,0.0,0.0
20923025127264,0.81834537,8.891729,4.168297,0.0,0.0,0.0
20923027506171,0.7848458,8.872586,4.173083,0.0,0.0,0.0
20923029885181,0.74177504,8.906086,4.168297,0.0,0.0,0.0
20923032264139,0.71306115,8.896515,4.2161536,0.0,0.0,0.0
20923034643150,0.66041905,8.896515,4.2448673,0.0,0.0,0.0
20923037022108,0.5886344,8.896515,4.23051,0.0,0.0,0.0
20923039401066,0.59342,8.896515,4.2161536,0.0,0.0,0.0
20923041780025,0.57427746,8.882157,4.1874394,0.0,0.0,0.0
20923044158983,0.56470615,8.9013,4.1874394,0.0,0.0,0.0
20923046537941,0.5455636,8.896515,4.220939,0.0,0.0,0.0
20923048916900,0.57427746,8.896515,4.2352962,0.0,0.0,0.0
20923051295858,0.59342,8.9108715,4.2257247,0.0,0.0,0.0
20923053674816,0.6221339,8.9013,4.220939,0.0,0.0,0.0
20923056053775,0.6891329,8.891729,4.211368,0.0,0.0,0.0
20923058432733,0.6891329,8.882157,4.1874394,0.0,0.0,0.0
20923060811691,0.72263247,8.906086,4.168297,0.0,0.0,0.0
20923063190650,0.7800602,8.930014,4.1778684,0.0,0.0,0.0
20923065569660,0.7848458,8.896515,4.1874394,0.0,0.0,0.0
20923067948618,0.7848458,8.891729,4.1922255,0.0,0.0,0.0
20923070327577,0.75613195,8.906086,4.2017965,0.0,0.0,0.0
20923072706535,0.7513463,8.9108715,4.2017965,0.0,0.0,0.0
20923075085493,0.74177504,8.9108715,4.1922255,0.0,0.0,0.0
20923077464452,0.70348984,8.939586,4.1874394,0.0,0.0,0.0
20923079843410,0.67477596,8.925228,4.2017965,0.0,0.0,0.0
20923082222368,0.6556334,8.915657,4.2017965,0.0,0.0,0.0
20923084601327,0.65084773,8.906086,4.197011,0.0,0.0,0.0
20923086980285,0.6221339,8.915657,4.220939,0.0,0.0,0.0
20923089359243,0.6029913,8.906086,4.2161536,0.0,0.0,0.0
20923091738254,0.59342,8.896515,4.1922255,0.0,0.0,0.0
20923094117212,0.59342,8.9013,4.173083,0.0,0.0,0.0
20923096496171,0.59342,8.906086,4.1874394,0.0,0.0,0.0
20923098875129,0.6364908,8.9013,4.1778684,0.0,0.0,0.0
20923101254087,0.6556334,8.896515,4.1922255,0.0,0.0,0.0
20923103633046,0.67477596,8.882157,4.211368,0.0,0.0,0.0
20923106012004,0.71306115,8.882157,4.2017965,0.0,0.0,0.0
20923108390962,0.72741807,8.882157,4.197011,0.0,0.0,0.0
20923110769921,0.72263247,8.867801,4.1922255,0.0,0.0,0.0
20923113148879,0.72741807,8.882157,4.1874394,0.0,0.0,0.0
20923115527837,0.74177504,8.896515,4.2017965,0.0,0.0,0.0
20923117906848,0.74177504,8.915657,4.2017965,0.0,0.0,0.0
20923120285806,0.7178468,8.915657,4.2017965,0.0,0.0,0.0
20923122664712,0.6987042,8.930014,4.1922255,0.0,0.0,0.0
20923125043723,0.6795616,8.9013,4.1922255,0.0,0.0,0.0
20923127422681,0.6652047,8.9108715,4.197011,0.0,0.0,0.0
20923129801639,0.61734825,8.915657,4.2161536,0.0,0.0,0.0
20923132180598,0.57906306,8.9108715,4.2017965,0.0,0.0,0.0
20923134559556,0.57906306,8.930014,4.206582,0.0,0.0,0.0
20923136938514,0.6029913,8.9348,4.182654,0.0,0.0,0.0
20923139317473,0.6125626,8.930014,4.1922255,0.0,0.0,0.0
20923141696431,0.6269195,8.9108715,4.1922255,0.0,0.0,0.0
20923144075389,0.64606214,8.9013,4.1874394,0.0,0.0,0.0
20923146454348,0.6412765,8.896515,4.1778684,0.0,0.0,0.0
20923148833358,0.6556334,8.9013,4.1778684,0.0,0.0,0.0
20923151212316,0.6987042,8.915657,4.182654,0.0,0.0,0.0
20923153591275,0.7322037,8.920443,4.197011,0.0,0.0,0.0
20923155970233,0.74177504,8.925228,4.206582,0.0,0.0,0.0
20923158349191,0.7322037,8.9013,4.197011,0.0,0.0,0.0
20923160728150,0.71306115,8.891729,4.1874394,0.0,0.0,0.0
20923163107108,0.74177504,8.891729,4.197011,0.0,0.0,0.0
20923165486066,0.7322037,8.9013,4.1922255,0.0,0.0,0.0
20923167865025,0.6987042,8.920443,4.1922255,0.0,0.0,0.0
20923170243983,0.66041905,8.9108715,4.1922255,0.0,0.0,0.0
20923172622941,0.6125626,8.896515,4.206582,0.0,0.0,0.0
20923175001900,0.6029913,8.882157,4.197011,0.0,0.0,0.0
20923177380910,0.5599205,8.886943,4.211368,0.0,0.0,0.0
20923179759868,0.57427746,8.886943,4.206582,0.0,0.0,0.0
20923182138827,0.5982057,8.906086,4.206582,0.0,0.0,0.0
20923184517785,0.59342,8.9013,4.1922255,0.0,0.0,0.0
20923186896743,0.5886344,8.9108715,4.2017965,0.0,0.0,0.0
20923189275702,0.59342,8.915657,4.206582,0.0,0.0,0.0
20923191654660,0.6029913,8.906086,4.197011,0.0,0.0,0.0
20923194033618,0.6412765,8.906086,4.2257247,0.0,0.0,0.0
20923196412577,0.66041905,8.925228,4.2161536,0.0,0.0,0.0
20923198791535,0.67477596,8.920443,4.197011,0.0,0.0,0.0
20923201170493,0.70348984,8.9348,4.197011,0.0,0.0,0.0
20923203549504,0.7322037,8.930014,4.2017965,0.0,0.0,0.0
20923205928462,0.7465607,8.930014,4.1778684,0.0,0.0,0.0
20923208307421,0.72263247,8.9108715,4.1874394,0.0,0.0,0.0
20923210686379,0.6843473,8.9013,4.206582,0.0,0.0,0.0
20923213065337,0.6891329,8.920443,4.197011,0.0,0.0,0.0
20923215444296,0.6843473,8.9013,4.2161536,0.0,0.0,0.0
20923217823254,0.6556334,8.906086,4.206582,0.0,0.0,0.0
20923220202212,0.61734825,8.9108715,4.206582,0.0,0.0,0.0
20923222581171,0.6029913,8.915657,4.211368,0.0,0.0,0.0
20923224960129,0.5886344,8.9108715,4.206582,0.0,0.0,0.0
20923227339139,0.5599205,8.915657,4.1874394,0.0,0.0,0.0
20923229718098,0.5599205,8.915657,4.2017965,0.0,0.0,0.0
20923232097056,0.56470615,8.920443,4.197011,0.0,0.0,0.0
20923234476014,0.5838487,8.925228,4.211368,0.0,0.0,0.0
20923236854973,0.5886344,8.906086,4.1922255,0.0,0.0,0.0
20923239233931,0.6029913,8.920443,4.206582,0.0,0.0,0.0
20923241612889,0.6221339,8.920443,4.211368,0.0,0.0,0.0
20923243991848,0.63170516,8.906086,4.220939,0.0,0.0,0.0
20923246370806,0.6652047,8.920443,4.197011,0.0,0.0,0.0
20923248749764,0.7082755,8.9013,4.2017965,0.0,0.0,0.0
20923251128723,0.7082755,8.9108715,4.1922255,0.0,0.0,0.0
20923253507681,0.7178468,8.9108715,4.1922255,0.0,0.0,0.0
20923255886691,0.7082755,8.920443,4.1778684,0.0,0.0,0.0
20923258265650,0.6843473,8.925228,4.1922255,0.0,0.0,0.0
20923260644608,0.6939186,8.9108715,4.206582,0.0,0.0,0.0
20923263023566,0.6556334,8.920443,4.1922255,0.0,0.0,0.0
20923265402525,0.6412765,8.925228,4.1922255,0.0,0.0,0.0
20923267781483,0.63170516,8.9108715,4.197011,0.0,0.0,0.0
20923270160441,0.61734825,8.9108715,4.211368,0.0,0.0,0.0
20923272539400,0.59342,8.896515,4.2017965,0.0,0.0,0.0
20923274918358,0.5838487,8.9108715,4.197011,0.0,0.0,0.0
20923277297316,0.55513483,8.906086,4.2017965,0.0,0.0,0.0
20923279676327,0.56470615,8.882157,4.206582,0.0,0.0,0.0
20923282055285,0.57427746,8.9013,4.1922255,0.0,0.0,0.0
20923284434243,0.6029913,8.906086,4.211368,0.0,0.0,0.0
20923286813202,0.6029913,8.9013,4.206582,0.0,0.0,0.0
20923289192160,0.61734825,8.9013,4.197011,0.0,0.0,0.0
20923291571118,0.6269195,8.9108715,4.197011,0.0,0.0,0.0
20923293950077,0.6652047,8.896515,4.211368,0.0,0.0,0.0
20923296329035,0.6987042,8.906086,4.1874394,0.0,0.0,0.0
20923298707993,0.6987042,8.9013,4.182654,0.0,0.0,0.0
20923301086952,0.71306115,8.906086,4.206582,0.0,0.0,0.0
20923303465910,0.72263247,8.925228,4.197011,0.0,0.0,0.0
20923305844868,0.72741807,8.906086,4.182654,0.0,0.0,0.0
20923308223879,0.6939186,8.915657,4.197011,0.0,0.0,0.0
20923310602837,0.6795616,8.920443,4.1874394,0.0,0.0,0.0
20923312981796,0.66999036,8.939586,4.1874394,0.0,0.0,0.0
20923315360754,0.6556334,8.915657,4.197011,0.0,0.0,0.0
20923317739712,0.6269195,8.925228,4.2257247,0.0,0.0,0.0
20923320118671,0.6125626,8.930014,4.2161536,0.0,0.0,0.0
20923322497629,0.57427746,8.930014,4.2017965,0.0,0.0,0.0
20923324876587,0.55513483,8.915657,4.1922255,0.0,0.0,0.0
20923327255546,0.5694918,8.915657,4.206582,0.0,0.0,0.0
20923329634504,0.5886344,8.9013,4.211368,0.0,0.0,0.0
20923332013462,0.5886344,8.891729,4.2017965,0.0,0.0,0.0
20923334392421,0.5982057,8.9108715,4.1922255,0.0,0.0,0.0
20923336771431,0.6221339,8.925228,4.182654,0.0,0.0,0.0
20923339150389,0.6412765,8.915657,4.182654,0.0,0.0,0.0
20923341529348,0.6412765,8.906086,4.182654,0.0,0.0,0.0
20923343908306,0.6795616,8.9013,4.182654,0.0,0.0,0.0
20923346287264,0.6987042,8.896515,4.2017965,0.0,0.0,0.0
20923348666223,0.7082755,8.891729,4.182654,0.0,0.0,0.0
20923351045181,0.72263247,8.920443,4.197011,0.0,0.0,0.0
20923353424087,0.74177504,8.915657,4.1922255,0.0,0.0,0.0
20923355803098,0.7322037,8.920443,4.1922255,0.0,0.0,0.0
20923358182056,0.7082755,8.9108715,4.1874394,0.0,0.0,0.0
20923360560962,0.6795616,8.925228,4.197011,0.0,0.0,0.0
20923362939973,0.6652047,8.925228,4.2017965,0.0,0.0,0.0
20923365318983,0.63170516,8.906086,4.182654,0.0,0.0,0.0
20923367697889,0.65084773,8.920443,4.1874394,0.0,0.0,0.0
20923370076900,0.6364908,8.930014,4.1874394,0.0,0.0,0.0
20923372455858,0.57906306,8.9108715,4.197011,0.0,0.0,0.0
20923374834816,0.5838487,8.9108715,4.2017965,0.0,0.0,0.0
20923377213775,0.6029913,8.915657,4.197011,0.0,0.0,0.0
20923379592733,0.6029913,8.9108715,4.197011,0.0,0.0,0.0
20923381971691,0.6269195,8.906086,4.1874394,0.0,0.0,0.0
20923384350650,0.64606214,8.930014,4.1922255,0.0,0.0,0.0
20923386729608,0.6556334,8.9108715,4.197011,0.0,0.0,0.0
20923389108618,0.6652047,8.920443,4.206582,0.0,0.0,0.0
20923391487525,0.66041905,8.920443,4.1922255,0.0,0.0,0.0
20923393866535,0.6795616,8.886943,4.1922255,0.0,0.0,0.0
20923396245493,0.7082755,8.886943,4.2017965,0.0,0.0,0.0
20923398624452,0.71306115,8.9108715,4.1922255,0.0,0.0,0.0
20923401003410,0.72263247,8.9013,4.1922255,0.0,0.0,0.0
20923403382368,0.7178468,8.906086,4.1778684,0.0,0.0,0.0
20923405761327,0.7322037,8.9013,4.197011,0.0,0.0,0.0
20923408140285,0.6987042,8.9013,4.2017965,0.0,0.0,0.0
20923410519243,0.66999036,8.920443,4.1922255,0.0,0.0,0.0
20923412898202,0.66041905,8.920443,4.206582,0.0,0.0,0.0
20923415277212,0.64606214,8.915657,4.2017965,0.0,0.0,0.0
20923417656171,0.6364908,8.896515,4.206582,0.0,0.0,0.0
20923420035129,0.6221339,8.9108715,4.1922255,0.0,0.0,0.0
20923422414087,0.6221339,8.915657,4.1874394,0.0,0.0,0.0
20923424793046,0.6125626,8.906086,4.211368,0.0,0.0,0.0
20923427172004,0.5982057,8.896515,4.197011,0.0,0.0,0.0
20923429550962,0.61734825,8.906086,4.211368,0.0,0.0,0.0
20923431929921,0.65084773,8.915657,4.220939,0.0,0.0,0.0
20923434308879,0.65084773,8.920443,4.206582,0.0,0.0,0.0
20923436687837,0.6652047,8.915657,4.197011,0.0,0.0,0.0
20923439066796,0.67477596,8.896515,4.2017965,0.0,0.0,0.0
20923441445754,0.6891329,8.9013,4.197011,0.0,0.0,0.0
20923443824764,0.6939186,8.9108715,4.1922255,0.0,0.0,0.0
20923446203723,0.7082755,8.896515,4.197011,0.0,0.0,0.0
20923448582681,0.71306115,8.915657,4.1874394,0.0,0.0,0.0
20923450961639,0.72741807,8.9013,4.182654,0.0,0.0,0.0
20923453340598,0.70348984,8.891729,4.1922255,0.0,0.0,0.0
20923455719556,0.7082755,8.906086,4.2017965,0.0,0.0,0.0
20923458098514,0.70348984,8.9013,4.206582,0.0,0.0,0.0
20923460477473,0.66999036,8.915657,4.211368,0.0,0.0,0.0
20923462856431,0.66999036,8.867801,4.2017965,0.0,0.0,0.0
20923465235389,0.6556334,8.882157,4.206582,0.0,0.0,0.0
20923467614400,0.65084773,8.891729,4.211368,0.0,0.0,0.0
20923469993358,0.6269195,8.915657,4.2017965,0.0,0.0,0.0
20923472372316,0.6364908,8.891729,4.197011,0.0,0.0,0.0
20923474751275,0.6125626,8.896515,4.2017965,0.0,0.0,0.0
20923477130233,0.6125626,8.9108715,4.1922255,0.0,0.0,0.0
20923479509139,0.6221339,8.906086,4.1874394,0.0,0.0,0.0
20923481888150,0.6412765,8.920443,4.1922255,0.0,0.0,0.0
20923484267108,0.6364908,8.9013,4.197011,0.0,0.0,0.0
20923486646014,0.6556334,8.920443,4.197011,0.0,0.0,0.0
20923489025025,0.6556334,8.886943,4.1778684,0.0,0.0,0.0
20923491403983,0.6843473,8.886943,4.197011,0.0,0.0,0.0
20923493782941,0.6891329,8.9108715,4.211368,0.0,0.0,0.0
20923496161952,0.7082755,8.915657,4.206582,0.0,0.0,0.0
20923498540910,0.7082755,8.9108715,4.211368,0.0,0.0,0.0
20923500919868,0.6891329,8.9108715,4.197011,0.0,0.0,0.0
20923503298827,0.6795616,8.9108715,4.1874394,0.0,0.0,0.0
20923505677785,0.6795616,8.9108715,4.1922255,0.0,0.0,0.0
20923508056743,0.6652047,8.9108715,4.197011,0.0,0.0,0.0
20923510435702,0.6652047,8.891729,4.1778684,0.0,0.0,0.0
20923512814660,0.65084773,8.9013,4.168297,0.0,0.0,0.0
20923515193618,0.61734825,8.915657,4.1922255,0.0,0.0,0.0
20923517572577,0.60777694,8.9013,4.206582,0.0,0.0,0.0
20923519951535,0.6221339,8.9108715,4.197011,0.0,0.0,0.0
20923522330546,0.60777694,8.925228,4.211368,0.0,0.0,0.0
20923524709504,0.6125626,8.906086,4.220939,0.0,0.0,0.0
20923527088462,0.61734825,8.882157,4.211368,0.0,0.0,0.0
20923529467421,0.63170516,8.896515,4.197011,0.0,0.0,0.0
20923531846379,0.6269195,8.9348,4.197011,0.0,0.0,0.0
20923534225337,0.6364908,8.9108715,4.2161536,0.0,0.0,0.0
20923536604296,0.6364908,8.9013,4.2161536,0.0,0.0,0.0
20923538983254,0.65084773,8.915657,4.2017965,0.0,0.0,0.0
20923541362212,0.65084773,8.891729,4.220939,0.0,0.0,0.0
20923543741171,0.64606214,8.9108715,4.211368,0.0,0.0,0.0
20923546120181,0.66999036,8.886943,4.2017965,0.0,0.0,0.0
20923548499139,0.66999036,8.877372,4.1874394,0.0,0.0,0.0
20923550878098,0.6556334,8.9013,4.1874394,0.0,0.0,0.0
20923553257056,0.66041905,8.9108715,4.1874394,0.0,0.0,0.0
20923555636014,0.6412765,8.891729,4.182654,0.0,0.0,0.0
20923558014973,0.66041905,8.9013,4.1922255,0.0,0.0,0.0
20923560393879,0.64606214,8.891729,4.1922255,0.0,0.0,0.0
20923562772889,0.6364908,8.872586,4.1922255,0.0,0.0,0.0
20923565151848,0.61734825,8.891729,4.211368,0.0,0.0,0.0
20923567530806,0.63170516,8.906086,4.211368,0.0,0.0,0.0
20923569909764,0.61734825,8.9013,4.206582,0.0,0.0,0.0
20923572288775,0.6029913,8.915657,4.211368,0.0,0.0,0.0
20923574667733,0.6029913,8.906086,4.2017965,0.0,0.0,0.0
20923577046691,0.6029913,8.896515,4.197011,0.0,0.0,0.0
20923579425650,0.60777694,8.896515,4.206582,0.0,0.0,0.0
20923581804608,0.6364908,8.896515,4.206582,0.0,0.0,0.0
20923584183566,0.63170516,8.9108715,4.1922255,0.0,0.0,0.0
20923586562525,0.64606214,8.930014,4.182654,0.0,0.0,0.0
20923588941483,0.66041905,8.906086,4.197011,0.0,0.0,0.0
20923591320441,0.6795616,8.915657,4.206582,0.0,0.0,0.0
20923593699400,0.67477596,8.9013,4.197011,0.0,0.0,0.0
20923596078410,0.67477596,8.9013,4.2017965,0.0,0.0,0.0
20923598457368,0.66041905,8.906086,4.197011,0.0,0.0,0.0
20923600836327,0.66999036,8.896515,4.1922255,0.0,0.0,0.0
20923603215285,0.66999036,8.920443,4.1922255,0.0,0.0,0.0
20923605594243,0.64606214,8.925228,4.1922255,0.0,0.0,0.0
20923607973202,0.66041905,8.9013,4.2017965,0.0,0.0,0.0
20923610352160,0.64606214,8.9013,4.197011,0.0,0.0,0.0
20923612731118,0.63170516,8.9108715,4.2161536,0.0,0.0,0.0
20923615110077,0.6364908,8.896515,4.211368,0.0,0.0,0.0
20923617489035,0.61734825,8.896515,4.2017965,0.0,0.0,0.0
20923619868046,0.61734825,8.915657,4.2017965,0.0,0.0,0.0
20923622247004,0.6364908,8.906086,4.206582,0.0,0.0,0.0
20923624625962,0.6269195,8.925228,4.1922255,0.0,0.0,0.0
20923627004921,0.6364908,8.915657,4.1922255,0.0,0.0,0.0
20923629383879,0.61734825,8.925228,4.211368,0.0,0.0,0.0
20923631762837,0.6412765,8.930014,4.2017965,0.0,0.0,0.0
20923634141796,0.66041905,8.915657,4.197011,0.0,0.0,0.0
20923636520754,0.6556334,8.915657,4.197011,0.0,0.0,0.0
20923638899712,0.6364908,8.925228,4.197011,0.0,0.0,0.0
20923641278671,0.65084773,8.906086,4.197011,0.0,0.0,0.0
20923643657629,0.6412765,8.891729,4.197011,0.0,0.0,0.0
20923646036535,0.66999036,8.896515,4.2017965,0.0,0.0,0.0
20923648415598,0.66999036,8.9108715,4.1922255,0.0,0.0,0.0
20923650794556,0.64606214,8.9108715,4.1874394,0.0,0.0,0.0
20923653173514,0.65084773,8.915657,4.1922255,0.0,0.0,0.0
20923655552473,0.6652047,8.920443,4.1922255,0.0,0.0,0.0
20923657931431,0.6412765,8.9108715,4.197011,0.0,0.0,0.0
20923660310389,0.6412765,8.896515,4.206582,0.0,0.0,0.0
20923662689348,0.64606214,8.9013,4.206582,0.0,0.0,0.0
20923665068306,0.6364908,8.906086,4.211368,0.0,0.0,0.0
20923667447264,0.6221339,8.920443,4.206582,0.0,0.0,0.0
20923669826223,0.6221339,8.920443,4.197011,0.0,0.0,0.0
20923672205181,0.6221339,8.9108715,4.211368,0.0,0.0,0.0
20923674584191,0.63170516,8.891729,4.1874394,0.0,0.0,0.0
20923676963150,0.6412765,8.906086,4.2161536,0.0,0.0,0.0
20923679342108,0.64606214,8.9013,4.220939,0.0,0.0,0.0
20923681721066,0.66041905,8.906086,4.206582,0.0,0.0,0.0
20923684100025,0.6652047,8.925228,4.206582,0.0,0.0,0.0
20923686478983,0.6987042,8.920443,4.206582,0.0,0.0,0.0
20923688857941,0.6652047,8.906086,4.206582,0.0,0.0,0.0
20923691236900,0.66999036,8.891729,4.2161536,0.0,0.0,0.0
20923693615858,0.67477596,8.9108715,4.197011,0.0,0.0,0.0
20923695994816,0.66041905,8.896515,4.2017965,0.0,0.0,0.0
20923698373827,0.6843473,8.906086,4.197011,0.0,0.0,0.0
20923700752785,0.70348984,8.9108715,4.206582,0.0,0.0,0.0
20923703131743,0.6556334,8.886943,4.206582,0.0,0.0,0.0
20923705510702,0.6364908,8.9108715,4.2017965,0.0,0.0,0.0
20923707889660,0.65084773,8.925228,4.2017965,0.0,0.0,0.0
20923710268618,0.65084773,8.9013,4.197011,0.0,0.0,0.0
20923712647577,0.65084773,8.882157,4.1922255,0.0,0.0,0.0
20923715026535,0.6652047,8.877372,4.197011,0.0,0.0,0.0
20923717405493,0.6556334,8.882157,4.197011,0.0,0.0,0.0
20923719784400,0.6412765,8.9013,4.1874394,0.0,0.0,0.0
20923722163462,0.65084773,8.9013,4.211368,0.0,0.0,0.0
20923724542421,0.6364908,8.9108715,4.197011,0.0,0.0,0.0
20923726921275,0.61734825,8.930014,4.182654,0.0,0.0,0.0
20923729300337,0.66999036,8.9108715,4.197011,0.0,0.0,0.0
20923731679296,0.66041905,8.9108715,4.211368,0.0,0.0,0.0
20923734058254,0.67477596,8.915657,4.1874394,0.0,0.0,0.0
20923736437212,0.6795616,8.9013,4.1922255,0.0,0.0,0.0
20923738816171,0.66999036,8.925228,4.1874394,0.0,0.0,0.0
20923741195129,0.6652047,8.9108715,4.1922255,0.0,0.0,0.0
20923743574087,0.6652047,8.925228,4.220939,0.0,0.0,0.0
20923745953098,0.6795616,8.930014,4.2017965,0.0,0.0,0.0
20923748332056,0.6843473,8.925228,4.2017965,0.0,0.0,0.0
20923750711014,0.6652047,8.920443,4.2017965,0.0,0.0,0.0
20923753089973,0.6556334,8.891729,4.2017965,0.0,0.0,0.0
20923755468931,0.65084773,8.906086,4.206582,0.0,0.0,0.0
20923757847889,0.66999036,8.915657,4.2017965,0.0,0.0,0.0
20923760226848,0.6652047,8.925228,4.197011,0.0,0.0,0.0
20923762605806,0.6556334,8.930014,4.1922255,0.0,0.0,0.0
20923764984764,0.6556334,8.925228,4.1922255,0.0,0.0,0.0
20923767363723,0.66999036,8.920443,4.206582,0.0,0.0,0.0
20923769742681,0.66999036,8.920443,4.206582,0.0,0.0,0.0
20923772121639,0.67477596,8.915657,4.2257247,0.0,0.0,0.0
20923774500650,0.6652047,8.930014,4.220939,0.0,0.0,0.0
20923776879608,0.6795616,8.9108715,4.2017965,0.0,0.0,0.0
20923779258566,0.66041905,8.891729,4.220939,0.0,0.0,0.0
20923781637473,0.66041905,8.896515,4.206582,0.0,0.0,0.0
20923784016483,0.64606214,8.9108715,4.197011,0.0,0.0,0.0
20923786395441,0.65084773,8.906086,4.1922255,0.0,0.0,0.0
20923788774400,0.6652047,8.891729,4.206582,0.0,0.0,0.0
20923791153358,0.66041905,8.882157,4.2017965,0.0,0.0,0.0
20923793532316,0.6795616,8.891729,4.197011,0.0,0.0,0.0
20923795911275,0.65084773,8.896515,4.182654,0.0,0.0,0.0
20923798290285,0.65084773,8.9108715,4.211368,0.0,0.0,0.0
20923800669243,0.66041905,8.9108715,4.211368,0.0,0.0,0.0
20923803048202,0.65084773,8.9108715,4.1874394,0.0,0.0,0.0
20923805427160,0.6221339,8.896515,4.182654,0.0,0.0,0.0
20923807806118,0.63170516,8.906086,4.2017965,0.0,0.0,0.0
20923810185077,0.64606214,8.896515,4.2017965,0.0,0.0,0.0
20923812564035,0.6556334,8.886943,4.2017965,0.0,0.0,0.0
20923814942993,0.6652047,8.891729,4.2161536,0.0,0.0,0.0
20923817321952,0.66041905,8.891729,4.2161536,0.0,0.0,0.0
20923819700910,0.6652047,8.9013,4.2017965,0.0,0.0,0.0
20923822079868,0.6556334,8.9108715,4.211368,0.0,0.0,0.0
20923824458879,0.64606214,8.920443,4.206582,0.0,0.0,0.0
20923826837837,0.64606214,8.915657,4.2017965,0.0,0.0,0.0
20923829216796,0.6412765,8.915657,4.211368,0.0,0.0,0.0
20923831595754,0.6556334,8.9013,4.2161536,0.0,0.0,0.0
20923833974712,0.66999036,8.925228,4.1922255,0.0,0.0,0.0
20923836353671,0.66041905,8.9108715,4.2161536,0.0,0.0,0.0
20923838732629,0.65084773,8.915657,4.2017965,0.0,0.0,0.0
20923841111587,0.63170516,8.915657,4.1874394,0.0,0.0,0.0
20923843490546,0.6412765,8.9108715,4.2017965,0.0,0.0,0.0
20923845869556,0.64606214,8.920443,4.1922255,0.0,0.0,0.0
20923848248514,0.6412765,8.906086,4.197011,0.0,0.0,0.0
20923850627473,0.6556334,8.906086,4.1874394,0.0,0.0,0.0
20923853006431,0.65084773,8.9108715,4.1778684,0.0,0.0,0.0
20923855385389,0.66041905,8.9013,4.182654,0.0,0.0,0.0
20923857764348,0.6652047,8.9013,4.1922255,0.0,0.0,0.0
20923860143306,0.6556334,8.867801,4.206582,0.0,0.0,0.0
20923862522264,0.6364908,8.891729,4.2161536,0.0,0.0,0.0
20923864901223,0.6556334,8.886943,4.206582,0.0,0.0,0.0
20923867280181,0.6795616,8.9013,4.206582,0.0,0.0,0.0
20923869659191,0.6939186,8.9013,4.2017965,0.0,0.0,0.0
20923872038150,0.74177504,8.863015,4.1922255,0.0,0.0,0.0
20923874417108,0.74177504,8.82473,4.1922255,0.0,0.0,0.0
20923876796066,0.7609176,8.834301,4.182654,0.0,0.0,0.0
20923879175025,0.7800602,8.843872,4.2161536,0.0,0.0,0.0
20923881553983,0.7800602,8.848659,4.2448673,0.0,0.0,0.0
20923883932941,0.7800602,8.810373,4.220939,0.0,0.0,0.0
20923886311900,0.7896315,8.776874,4.168297,0.0,0.0,0.0
20923888690858,0.79441714,8.724232,4.139583,0.0,0.0,0.0
20923891069816,0.8039884,8.743374,4.139583,0.0,0.0,0.0
20923893448775,0.7800602,8.733803,4.091727,0.0,0.0,0.0
20923895827785,0.7465607,8.796016,4.091727,0.0,0.0,0.0
20923898206743,0.74177504,8.810373,4.1347976,0.0,0.0,0.0
20923900585702,0.72741807,8.896515,4.1922255,0.0,0.0,0.0
20923902964660,0.7322037,8.915657,4.197011,0.0,0.0,0.0
20923905343618,0.7896315,8.977871,4.2257247,0.0,0.0,0.0
20923907722577,0.81834537,8.992228,4.2161536,0.0,0.0,0.0
20923910101535,0.85184485,9.035298,4.1874394,0.0,0.0,0.0
20923912480493,0.85184485,9.044869,4.173083,0.0,0.0,0.0
20923914859452,0.8327023,9.102298,4.249653,0.0,0.0,0.0
20923917238410,0.7752745,9.174082,4.3262234,0.0,0.0,0.0
20923919617421,0.7178468,9.159725,4.331009,0.0,0.0,0.0
20923921996379,0.6412765,9.150154,4.2927237,0.0,0.0,0.0
20923924375337,0.57427746,9.174082,4.2448673,0.0,0.0,0.0
20923926754296,0.57427746,9.178867,4.2927237,0.0,0.0,0.0
20923929133254,0.5838487,9.12144,4.316652,0.0,0.0,0.0
20923931512212,0.6412765,9.0544405,4.345366,0.0,0.0,0.0
20923933891171,0.7178468,9.006584,4.3357944,0.0,0.0,0.0
20923936270129,0.8039884,8.958728,4.273581,0.0,0.0,0.0
20923938649087,0.86141616,8.886943,4.1491547,0.0,0.0,0.0
20923941028046,0.9762716,8.834301,4.0773697,0.0,0.0,0.0
20923943407056,1.0097711,8.815159,4.115655,0.0,0.0,0.0
20923945786014,1.0241281,8.7577305,4.115655,0.0,0.0,0.0
20923948164973,0.9667004,8.733803,4.0438704,0.0,0.0,0.0
20923950543879,0.8805587,8.724232,4.0007997,0.0,0.0,0.0
20923952922889,0.7704889,8.695518,4.0151563,0.0,0.0,0.0
20923955301848,0.71306115,8.7673025,4.0534415,0.0,0.0,0.0
20923957680806,0.57427746,8.9013,4.1491547,0.0,0.0,0.0
20923960059764,0.49292147,8.877372,4.139583,0.0,0.0,0.0
20923962438723,0.41635114,8.863015,3.8955152,0.0,0.0,0.0
20923964817681,0.19142582,9.035298,3.7615173,0.0,0.0,0.0
20923967196691,0.16749759,9.001799,3.7663028,0.0,0.0,0.0
20923969575650,-0.076570325,8.992228,4.024728,0.0,0.0,0.0
20923971954608,-0.16271193,9.035298,4.2257247,0.0,0.0,0.0
20923974333566,-0.3589234,9.083155,4.2352962,0.0,0.0,0.0
20923976712525,-0.37806597,9.020942,4.0869412,0.0,0.0,0.0
20923979091483,-0.4546363,9.044869,4.1204405,0.0,0.0,0.0
20923981470441,-0.41156548,9.083155,4.2448673,0.0,0.0,0.0
20923983849400,-0.24885355,9.006584,4.3645086,0.0,0.0,0.0
20923986228358,0.019142581,8.939586,4.4075794,0.0,0.0,0.0
20923988607316,0.31585258,8.906086,4.402794,0.0,0.0,0.0
20923990986275,0.6269195,8.867801,4.4171505,0.0,0.0,0.0
20923993365285,0.9619147,8.810373,4.436293,0.0,0.0,0.0
20923995744243,1.2107682,8.800801,4.3740797,0.0,0.0,0.0
20923998123202,1.4356936,8.9013,4.1922255,0.0,0.0,0.0
20924000502108,1.5744773,8.939586,4.034299,0.0,0.0,0.0
20924002881118,1.6079768,8.930014,4.048656,0.0,0.0,0.0
20924005260077,1.5266209,8.949157,4.125226,0.0,0.0,0.0
20924007639035,1.3399807,8.973084,4.106084,0.0,0.0,0.0
20924010017993,1.1006985,8.9826565,3.9960139,0.0,0.0,0.0
20924012396952,0.81834537,9.01137,3.8524444,0.0,0.0,0.0
20924014775910,0.5024927,9.001799,3.842873,0.0,0.0,0.0
20924017154921,0.2105684,8.968299,4.0007997,0.0,0.0,0.0
20924019533879,-0.076570325,8.843872,4.139583,0.0,0.0,0.0
20924021912837,-0.33020952,8.79123,4.1922255,0.0,0.0,0.0
20924024291796,-0.5024927,8.752945,4.211368,0.0,0.0,0.0
20924026670754,-0.5838487,8.762517,4.3070807,0.0,0.0,0.0
20924029049712,-0.65084773,8.776874,4.4410787,0.0,0.0,0.0
20924031428671,-0.5407779,8.776874,4.493721,0.0,0.0,0.0
20924033807629,-0.2727818,8.815159,4.4554358,0.0,0.0,0.0
20924036186587,0.05742774,8.82473,4.4075794,0.0,0.0,0.0
20924038565598,0.4546363,8.872586,4.4171505,0.0,0.0,0.0
20924040944556,0.9092726,8.843872,4.4315076,0.0,0.0,0.0
20924043323514,1.3351951,8.882157,4.421936,0.0,0.0,0.0
20924045702473,1.6941184,8.9348,4.316652,0.0,0.0,0.0
20924048081431,1.9381863,8.963513,4.249653,0.0,0.0,0.0
20924050460389,2.1391835,8.944371,4.316652,0.0,0.0,0.0
20924052839348,2.1678972,8.977871,4.412365,0.0,0.0,0.0
20924055218306,2.1104696,8.992228,4.436293,0.0,0.0,0.0
20924057597264,2.0291135,8.920443,4.3357944,0.0,0.0,0.0
20924059976223,1.7754744,8.9826565,4.249653,0.0,0.0,0.0
20924062355233,1.4883357,8.968299,4.2448673,0.0,0.0,0.0
20924064734191,1.18684,8.863015,4.331009,0.0,0.0,0.0
20924067113150,0.8422736,8.810373,4.354937,0.0,0.0,0.0
20924069492108,0.44027936,8.82473,4.2927237,0.0,0.0,0.0
20924071871066,0.11006984,8.762517,4.2017965,0.0,0.0,0.0
20924074250025,-0.20578274,8.729017,4.220939,0.0,0.0,0.0
20924076628983,-0.44506502,8.7673025,4.3118663,0.0,0.0,0.0
20924079007941,-0.65084773,8.848659,4.316652,0.0,0.0,0.0
20924081386900,-0.72741807,8.839087,4.2352962,0.0,0.0,0.0
20924083765858,-0.6939186,8.815159,4.1778684,0.0,0.0,0.0
20924086144816,-0.5455636,8.800801,4.240082,0.0,0.0,0.0
20924088523827,-0.21535404,8.85823,4.2975097,0.0,0.0,0.0
20924090902733,0.13399807,8.853444,4.139583,0.0,0.0,0.0
20924093281743,0.55513483,8.748159,3.8763726,0.0,0.0,0.0
20924095660702,0.9619147,8.685946,3.8141594,0.0,0.0,0.0
20924098039660,1.3304094,8.776874,3.9864426,0.0,0.0,0.0
20924100418618,1.5409778,8.896515,4.173083,0.0,0.0,0.0
20924102797577,1.7419748,8.963513,4.2592244,0.0,0.0,0.0
20924105176535,1.7706888,9.025727,4.3070807,0.0,0.0,0.0
20924107555493,1.6893328,8.939586,4.426722,0.0,0.0,0.0
20924109934504,1.5361922,8.992228,4.503292,0.0,0.0,0.0
20924112313462,1.282553,9.23151,4.3357944,0.0,0.0,0.0
20924114692421,1.0911272,9.006584,3.9577286,0.0,0.0,0.0
20924117071379,0.8039884,8.906086,3.8620157,0.0,0.0,0.0
20924119450337,0.4881358,9.159725,4.115655,0.0,0.0,0.0
20924121829296,0.23928227,9.078369,4.517649,0.0,0.0,0.0
20924124208254,0.11964113,8.752945,4.723432,0.0,0.0,0.0
20924126587212,-0.038285162,8.939586,4.508078,0.0,0.0,0.0
20924128966171,-0.18664017,9.169296,4.106084,0.0,0.0,0.0
20924131345181,-0.19621146,8.9108715,3.8955152,0.0,0.0,0.0
20924133724087,-0.09571291,8.863015,4.005585,0.0,0.0,0.0
20924136103098,-0.014356935,9.111869,4.15394,0.0,0.0,0.0
20924138482056,0.11485548,8.930014,4.2017965,0.0,0.0,0.0
20924140861014,0.36370903,8.676374,4.197011,0.0,0.0,0.0
20924143239973,0.59342,8.867801,4.15394,0.0,0.0,0.0
20924145618931,0.8566305,8.920443,4.0677986,0.0,0.0,0.0
20924147997889,1.1772687,8.709874,4.0151563,0.0,0.0,0.0
20924150376848,1.3734802,8.7673025,3.9338005,0.0,0.0,0.0
20924152755806,1.4548361,8.863015,3.9338005,0.0,0.0,0.0
20924155134764,1.5888343,8.647661,4.0534415,0.0,0.0,0.0
20924157513723,1.6414764,8.657232,4.254439,0.0,0.0,0.0
20924159892733,1.564906,8.915657,4.3405805,0.0,0.0,0.0
20924162271691,1.4787644,8.882157,4.206582,0.0,0.0,0.0
20924164650650,1.3974084,8.79123,4.0773697,0.0,0.0,0.0
20924167029608,1.2251252,8.9013,4.0677986,0.0,0.0,0.0
20924169408566,0.9906286,8.891729,4.1778684,0.0,0.0,0.0
20924171787525,0.7896315,8.748159,4.3645086,0.0,0.0,0.0
20924174166483,0.5407779,8.819944,4.4315076,0.0,0.0,0.0
20924176545441,0.31585258,9.016156,4.2927237,0.0,0.0,0.0
20924178924400,0.14356937,9.078369,4.2161536,0.0,0.0,0.0
20924181303410,0.07178468,9.102298,4.240082,0.0,0.0,0.0
20924183682368,-0.019142581,9.150154,4.302295,0.0,0.0,0.0
20924186061327,-0.023928227,9.092726,4.287938,0.0,0.0,0.0
20924188440285,0.12921242,8.958728,4.2161536,0.0,0.0,0.0
20924190819243,0.32542387,8.968299,4.1778684,0.0,0.0,0.0
20924193198202,0.4546363,9.001799,4.182654,0.0,0.0,0.0
20924195577160,0.64606214,8.944371,4.2257247,0.0,0.0,0.0
20924197956118,0.86141616,8.886943,4.2017965,0.0,0.0,0.0
20924200335077,1.0241281,8.82473,4.1204405,0.0,0.0,0.0
20924202714035,1.1724831,8.719446,4.091727,0.0,0.0,0.0
20924205093046,1.2346965,8.642876,4.197011,0.0,0.0,0.0
20924207472004,1.2442678,8.671589,4.2831526,0.0,0.0,0.0
20924209850962,1.2107682,8.719446,4.2831526,0.0,0.0,0.0
20924212229921,1.2203395,8.743374,4.23051,0.0,0.0,0.0
20924214608879,1.1294123,8.786445,4.1874394,0.0,0.0,0.0
20924216987837,0.9810573,8.82473,4.1778684,0.0,0.0,0.0
20924219366796,0.8470592,8.79123,4.211368,0.0,0.0,0.0
20924221745754,0.7609176,8.781659,4.173083,0.0,0.0,0.0
20924224124712,0.6412765,8.877372,4.106084,0.0,0.0,0.0
20924226503723,0.5024927,8.939586,4.101298,0.0,0.0,0.0
20924228882681,0.3589234,8.973084,4.1922255,0.0,0.0,0.0
20924231261639,0.2727818,9.01137,4.3070807,0.0,0.0,0.0
20924233640598,0.2632105,9.020942,4.3118663,0.0,0.0,0.0
20924236019504,0.30149564,8.953942,4.273581,0.0,0.0,0.0
20924238398514,0.33020952,8.949157,4.249653,0.0,0.0,0.0
20924240777473,0.41156548,8.949157,4.3118663,0.0,0.0,0.0
20924243156431,0.5072784,8.9108715,4.354937,0.0,0.0,0.0
20924245535389,0.6412765,8.882157,4.354937,0.0,0.0,0.0
20924247914348,0.7369894,8.891729,4.369294,0.0,0.0,0.0
20924250293358,0.7896315,8.867801,4.3645086,0.0,0.0,0.0
20924252672316,0.8327023,8.839087,4.369294,0.0,0.0,0.0
20924255051275,0.8422736,8.85823,4.316652,0.0,0.0,0.0
20924257430233,0.82313097,8.906086,4.249653,0.0,0.0,0.0
20924259809139,0.80877405,8.949157,4.1491547,0.0,0.0,0.0
20924262188150,0.7513463,8.973084,4.1347976,0.0,0.0,0.0
20924264567108,0.67477596,9.001799,4.2017965,0.0,0.0,0.0
20924266946066,0.61734825,8.963513,4.278367,0.0,0.0,0.0
20924269325025,0.61734825,8.872586,4.26401,0.0,0.0,0.0
20924271703983,0.5599205,8.863015,4.2161536,0.0,0.0,0.0
20924274082993,0.5168497,8.863015,4.168297,0.0,0.0,0.0
20924276461952,0.4833502,8.82473,4.182654,0.0,0.0,0.0
20924278840910,0.47377887,8.819944,4.206582,0.0,0.0,0.0
20924281219868,0.47377887,8.834301,4.2257247,0.0,0.0,0.0
20924283598827,0.4642076,8.82473,4.2687955,0.0,0.0,0.0
20924285977785,0.4833502,8.82473,4.2927237,0.0,0.0,0.0
20924288356743,0.4881358,8.79123,4.316652,0.0,0.0,0.0
20924290735702,0.4833502,8.796016,4.331009,0.0,0.0,0.0
20924293114660,0.4881358,8.829515,4.316652,0.0,0.0,0.0
20924295493618,0.49292147,8.877372,4.26401,0.0,0.0,0.0
20924297872629,0.5168497,8.9108715,4.2257247,0.0,0.0,0.0
20924300251587,0.5024927,8.944371,4.254439,0.0,0.0,0.0
20924302630546,0.49292147,8.930014,4.26401,0.0,0.0,0.0
20924305009504,0.47856453,8.973084,4.254439,0.0,0.0,0.0
20924307388462,0.4546363,9.001799,4.1922255,0.0,0.0,0.0
20924309767421,0.45942193,8.997013,4.130012,0.0,0.0,0.0
20924312146379,0.43070808,9.020942,4.1347976,0.0,0.0,0.0
20924314525337,0.41156548,9.001799,4.1491547,0.0,0.0,0.0
20924316904296,0.39720857,8.973084,4.1778684,0.0,0.0,0.0
20924319283306,0.3924229,8.944371,4.168297,0.0,0.0,0.0
20924321662264,0.3493521,8.877372,4.1204405,0.0,0.0,0.0
20924324041223,0.3062813,8.863015,4.106084,0.0,0.0,0.0
20924326420181,0.28713873,8.867801,4.125226,0.0,0.0,0.0
20924328799139,0.24885355,8.896515,4.1587257,0.0,0.0,0.0
20924331178098,0.2009971,8.882157,4.220939,0.0,0.0,0.0
20924333557056,0.21535404,8.872586,4.240082,0.0,0.0,0.0
20924335936014,0.23928227,8.9013,4.2687955,0.0,0.0,0.0
20924338314973,0.27756742,8.920443,4.249653,0.0,0.0,0.0
20924340693931,0.3493521,8.939586,4.1922255,0.0,0.0,0.0
20924343072889,0.46899325,9.001799,4.1347976,0.0,0.0,0.0
20924345451900,0.56470615,9.020942,4.106084,0.0,0.0,0.0
20924347830858,0.6843473,9.020942,4.1491547,0.0,0.0,0.0
20924350209816,0.79441714,9.020942,4.1874394,0.0,0.0,0.0
20924352588775,0.8662018,9.01137,4.2161536,0.0,0.0,0.0
20924354967733,0.9379865,9.016156,4.1587257,0.0,0.0,0.0
20924357346691,0.9810573,9.044869,4.1347976,0.0,0.0,0.0
20924359725754,0.9954142,9.064013,4.130012,0.0,0.0,0.0
20924362104608,0.9523434,9.059227,4.206582,0.0,0.0,0.0
20924364483514,0.8757731,9.025727,4.2687955,0.0,0.0,0.0
20924366862525,0.82313097,9.001799,4.3118663,0.0,0.0,0.0
20924369241535,0.7465607,8.953942,4.3357944,0.0,0.0,0.0
20924371620493,0.64606214,8.9108715,4.3118663,0.0,0.0,0.0
20924373999452,0.56470615,8.930014,4.2592244,0.0,0.0,0.0
20924376378410,0.5312066,8.906086,4.2352962,0.0,0.0,0.0
20924378757368,0.526421,8.896515,4.2257247,0.0,0.0,0.0
20924381136327,0.55513483,8.906086,4.254439,0.0,0.0,0.0
20924383515285,0.6029913,8.877372,4.273581,0.0,0.0,0.0
20924385894243,0.6939186,8.819944,4.240082,0.0,0.0,0.0
20924388273202,0.80877405,8.796016,4.130012,0.0,0.0,0.0
20924390652212,0.94277215,8.776874,4.0534415,0.0,0.0,0.0
20924393031171,1.052842,8.7577305,4.034299,0.0,0.0,0.0
20924395410129,1.1437693,8.733803,4.0438704,0.0,0.0,0.0
20924397789087,1.2299109,8.685946,4.082155,0.0,0.0,0.0
20924400168046,1.2777673,8.662018,4.082155,0.0,0.0,0.0
20924402547004,1.253839,8.647661,4.0677986,0.0,0.0,0.0
20924404925962,1.2203395,8.652447,4.072584,0.0,0.0,0.0
20924407304921,1.1437693,8.695518,4.106084,0.0,0.0,0.0
20924409683879,1.038485,8.724232,4.125226,0.0,0.0,0.0
20924412062889,0.9379865,8.738588,4.168297,0.0,0.0,0.0
20924414441848,0.81834537,8.786445,4.240082,0.0,0.0,0.0
20924416820806,0.7513463,8.800801,4.302295,0.0,0.0,0.0
20924419199764,0.6987042,8.843872,4.331009,0.0,0.0,0.0
20924421578723,0.67477596,8.896515,4.3262234,0.0,0.0,0.0
20924423957681,0.6795616,8.944371,4.278367,0.0,0.0,0.0
20924426336639,0.72263247,8.968299,4.254439,0.0,0.0,0.0
20924428715598,0.7465607,8.963513,4.287938,0.0,0.0,0.0
20924431094556,0.8039884,8.949157,4.316652,0.0,0.0,0.0
20924433473514,0.8279166,8.963513,4.3118663,0.0,0.0,0.0
20924435852525,0.89013004,8.968299,4.278367,0.0,0.0,0.0
20924438231483,0.9236295,8.9826565,4.2161536,0.0,0.0,0.0
20924440610441,0.9619147,9.006584,4.1874394,0.0,0.0,0.0
20924442989400,0.95712906,8.968299,4.173083,0.0,0.0,0.0
20924445368358,0.93320084,8.939586,4.168297,0.0,0.0,0.0
20924447747316,0.8709874,8.925228,4.182654,0.0,0.0,0.0
20924450126275,0.82313097,8.891729,4.206582,0.0,0.0,0.0
20924452505233,0.76570326,8.867801,4.2352962,0.0,0.0,0.0
20924454884191,0.70348984,8.906086,4.2592244,0.0,0.0,0.0
20924457263150,0.61734825,8.886943,4.2448673,0.0,0.0,0.0
20924459642160,0.56470615,8.9108715,4.249653,0.0,0.0,0.0
20924462021118,0.53599226,8.920443,4.278367,0.0,0.0,0.0
20924464400077,0.51206404,8.906086,4.2687955,0.0,0.0,0.0
20924466779035,0.5407779,8.872586,4.220939,0.0,0.0,0.0
20924469157993,0.5599205,8.877372,4.1204405,0.0,0.0,0.0
20924471536952,0.56470615,8.882157,4.063013,0.0,0.0,0.0
20924473915910,0.5886344,8.872586,4.091727,0.0,0.0,0.0
20924476294868,0.5982057,8.82473,4.1491547,0.0,0.0,0.0
20924478673827,0.5599205,8.786445,4.1587257,0.0,0.0,0.0
20924481052837,0.53599226,8.805588,4.139583,0.0,0.0,0.0
20924483431796,0.5072784,8.810373,4.106084,0.0,0.0,0.0
20924485810754,0.47377887,8.829515,4.115655,0.0,0.0,0.0
20924488189712,0.43070808,8.853444,4.1491547,0.0,0.0,0.0
20924490568671,0.38285163,8.877372,4.168297,0.0,0.0,0.0
20924492947629,0.33020952,8.896515,4.182654,0.0,0.0,0.0
20924495326587,0.31585258,8.930014,4.211368,0.0,0.0,0.0
20924497705546,0.3062813,8.949157,4.2592244,0.0,0.0,0.0
20924500084504,0.25842485,9.01137,4.321438,0.0,0.0,0.0
20924502463514,0.26799613,9.08794,4.3645086,0.0,0.0,0.0
20924504842473,0.27756742,9.08794,4.3405805,0.0,0.0,0.0
20924507221431,0.3062813,9.08794,4.3932223,0.0,0.0,0.0
20924509600389,0.38763726,9.073584,4.402794,0.0,0.0,0.0
20924511979348,0.43070808,9.102298,4.402794,0.0,0.0,0.0
20924514358306,0.4881358,9.083155,4.369294,0.0,0.0,0.0
20924516737264,0.5455636,9.064013,4.3118663,0.0,0.0,0.0
20924519116223,0.6125626,9.0544405,4.26401,0.0,0.0,0.0
20924521495181,0.6412765,9.020942,4.23051,0.0,0.0,0.0
20924523874139,0.6652047,9.006584,4.182654,0.0,0.0,0.0
20924526253150,0.6269195,8.992228,4.168297,0.0,0.0,0.0
20924528632108,0.57906306,8.963513,4.1635113,0.0,0.0,0.0
20924531011066,0.4881358,8.9013,4.2161536,0.0,0.0,0.0
20924533390025,0.3684947,8.867801,4.254439,0.0,0.0,0.0
20924535768983,0.22492532,8.877372,4.2448673,0.0,0.0,0.0
20924538147941,0.124426775,8.896515,4.240082,0.0,0.0,0.0
20924540526900,0.038285162,8.886943,4.254439,0.0,0.0,0.0
20924542905858,-0.0047856453,8.839087,4.249653,0.0,0.0,0.0
20924545284816,-0.06699903,8.863015,4.3070807,0.0,0.0,0.0
20924547663775,-0.038285162,8.848659,4.302295,0.0,0.0,0.0
20924550042785,0.023928227,8.834301,4.3070807,0.0,0.0,0.0
20924552421743,0.11485548,8.829515,4.26401,0.0,0.0,0.0
20924554800702,0.22971097,8.815159,4.2592244,0.0,0.0,0.0
20924557179660,0.3589234,8.82473,4.23051,0.0,0.0,0.0
20924559558618,0.4833502,8.805588,4.211368,0.0,0.0,0.0
20924561937577,0.6125626,8.819944,4.197011,0.0,0.0,0.0
20924564316535,0.7082755,8.805588,4.168297,0.0,0.0,0.0
20924566695493,0.76570326,8.810373,4.1587257,0.0,0.0,0.0
20924569074452,0.76570326,8.82473,4.173083,0.0,0.0,0.0
20924571453410,0.7082755,8.839087,4.23051,0.0,0.0,0.0
20924573832421,0.6221339,8.867801,4.240082,0.0,0.0,0.0
20924576211379,0.5024927,8.9013,4.2352962,0.0,0.0,0.0
20924578590337,0.37806597,8.920443,4.2161536,0.0,0.0,0.0
20924580969296,0.25842485,8.939586,4.211368,0.0,0.0,0.0
20924583348254,0.12921242,8.963513,4.249653,0.0,0.0,0.0
20924585727212,0.047856454,8.9826565,4.3070807,0.0,0.0,0.0
20924588106171,-0.009571291,8.992228,4.3118663,0.0,0.0,0.0
20924590485129,-0.023928227,8.977871,4.273581,0.0,0.0,0.0
20924592864087,-0.047856454,8.992228,4.249653,0.0,0.0,0.0
20924595243098,-0.0047856453,8.9826565,4.240082,0.0,0.0,0.0
20924597622056,0.1052842,8.9826565,4.2161536,0.0,0.0,0.0
20924600001014,0.2440679,8.992228,4.206582,0.0,0.0,0.0
20924602379973,0.3684947,9.001799,4.206582,0.0,0.0,0.0
20924604758931,0.51206404,8.9826565,4.2352962,0.0,0.0,0.0
20924607137889,0.66999036,8.977871,4.23051,0.0,0.0,0.0
20924609516848,0.79441714,8.939586,4.1874394,0.0,0.0,0.0
20924611895806,0.9284152,8.939586,4.139583,0.0,0.0,0.0
20924614274764,1.0097711,8.9348,4.125226,0.0,0.0,0.0
20924616653775,1.052842,8.925228,4.1443686,0.0,0.0,0.0
20924619032733,1.0624132,8.882157,4.139583,0.0,0.0,0.0
20924621411691,1.0336994,8.877372,4.1108694,0.0,0.0,0.0
20924623790650,0.95712906,8.886943,4.101298,0.0,0.0,0.0
20924626169608,0.82313097,8.9108715,4.1108694,0.0,0.0,0.0
20924628548566,0.6795616,8.915657,4.106084,0.0,0.0,0.0
20924630927525,0.57427746,8.930014,4.0773697,0.0,0.0,0.0
20924633306483,0.4354937,8.949157,4.048656,0.0,0.0,0.0
20924635685441,0.33020952,8.973084,4.072584,0.0,0.0,0.0
20924638064400,0.22492532,8.987442,4.0965123,0.0,0.0,0.0
20924640443358,0.2105684,9.001799,4.130012,0.0,0.0,0.0
20924642822368,0.2105684,9.01137,4.1347976,0.0,0.0,0.0
20924645201327,0.25842485,9.006584,4.0773697,0.0,0.0,0.0
20924647580233,0.35413775,8.977871,4.0151563,0.0,0.0,0.0
20924649959243,0.45942193,8.987442,4.0295134,0.0,0.0,0.0
20924652338202,0.6125626,8.968299,4.048656,0.0,0.0,0.0
20924654717160,0.7609176,8.958728,4.072584,0.0,0.0,0.0
20924657096118,0.9523434,8.963513,4.082155,0.0,0.0,0.0
20924659475129,1.0624132,8.977871,4.115655,0.0,0.0,0.0
20924661854087,1.1772687,8.949157,4.1108694,0.0,0.0,0.0
20924664233046,1.2634103,8.9826565,4.072584,0.0,0.0,0.0
20924666612004,1.3112668,9.01137,4.0295134,0.0,0.0,0.0
20924668990962,1.3591232,9.020942,3.9864426,0.0,0.0,0.0
20924671369921,1.3447664,9.030513,4.0007997,0.0,0.0,0.0
20924673748879,1.3160524,9.016156,4.0151563,0.0,0.0,0.0
20924676127837,1.2251252,9.016156,4.0390844,0.0,0.0,0.0
20924678506796,1.134198,9.025727,4.063013,0.0,0.0,0.0
20924680885754,0.9619147,9.030513,4.0869412,0.0,0.0,0.0
20924683264764,0.82313097,9.020942,4.072584,0.0,0.0,0.0
20924685643723,0.6843473,9.020942,4.0438704,0.0,0.0,0.0
20924688022681,0.55513483,9.01137,3.9960139,0.0,0.0,0.0
20924690401639,0.43070808,9.006584,3.9768713,0.0,0.0,0.0
20924692780598,0.29671,9.006584,4.0390844,0.0,0.0,0.0
20924695159556,0.2105684,8.987442,4.115655,0.0,0.0,0.0
20924697538514,0.16271193,8.987442,4.1587257,0.0,0.0,0.0
20924699917473,0.124426775,9.006584,4.1347976,0.0,0.0,0.0
20924702296431,0.148355,9.001799,4.063013,0.0,0.0,0.0
20924704675441,0.18185452,8.987442,4.005585,0.0,0.0,0.0
20924707054400,0.28713873,8.9826565,3.9816568,0.0,0.0,0.0
20924709433358,0.38763726,8.977871,3.9960139,0.0,0.0,0.0
20924711812316,0.47856453,8.973084,4.0151563,0.0,0.0,0.0
20924714191275,0.55034924,8.973084,4.0295134,0.0,0.0,0.0
20924716570233,0.6221339,8.997013,4.024728,0.0,0.0,0.0
20924718949191,0.67477596,9.01137,3.9960139,0.0,0.0,0.0
20924721328150,0.6891329,8.997013,3.9673,0.0,0.0,0.0
20924723707108,0.6987042,9.025727,3.9338005,0.0,0.0,0.0
20924726086118,0.65084773,8.997013,3.9194436,0.0,0.0,0.0
20924728465077,0.63170516,8.987442,3.938586,0.0,0.0,0.0
20924730844035,0.5455636,8.963513,3.9768713,0.0,0.0,0.0
20924733222993,0.49292147,8.949157,4.0007997,0.0,0.0,0.0
20924735601952,0.4019942,8.9826565,4.0151563,0.0,0.0,0.0
20924737980910,0.33499518,8.9826565,4.005585,0.0,0.0,0.0
20924740359868,0.29192436,9.006584,3.991228,0.0,0.0,0.0
20924742738827,0.2727818,9.006584,3.9673,0.0,0.0,0.0
20924745117785,0.2632105,8.997013,3.9864426,0.0,0.0,0.0
20924747496743,0.2727818,8.992228,3.991228,0.0,0.0,0.0
20924749875754,0.29192436,9.016156,4.005585,0.0,0.0,0.0
20924752254712,0.3493521,8.997013,3.9864426,0.0,0.0,0.0
20924754633671,0.37806597,9.001799,3.952943,0.0,0.0,0.0
20924757012629,0.44506502,9.025727,3.9146578,0.0,0.0,0.0
20924759391587,0.5024927,9.035298,3.900301,0.0,0.0,0.0
20924761770546,0.57427746,9.025727,3.8955152,0.0,0.0,0.0
20924764149452,0.6412765,9.044869,3.8955152,0.0,0.0,0.0
20924766528462,0.66999036,9.049655,3.9146578,0.0,0.0,0.0
20924768907421,0.7178468,9.040084,3.9194436,0.0,0.0,0.0
20924771286431,0.7465607,9.044869,3.938586,0.0,0.0,0.0
20924773665337,0.7609176,9.0544405,3.9960139,0.0,0.0,0.0
20924776044348,0.7752745,9.078369,4.0534415,0.0,0.0,0.0
20924778423306,0.7513463,9.078369,4.0438704,0.0,0.0,0.0
20924780802264,0.72263247,9.025727,3.9864426,0.0,0.0,0.0
20924783181223,0.7082755,9.030513,3.9673,0.0,0.0,0.0
20924785560181,0.6939186,9.025727,3.9864426,0.0,0.0,0.0
20924787939087,0.6556334,8.997013,4.0007997,0.0,0.0,0.0
20924790318098,0.59342,9.020942,4.024728,0.0,0.0,0.0
20924792697108,0.5599205,9.0544405,4.0677986,0.0,0.0,0.0
20924795076066,0.5024927,9.107083,4.1347976,0.0,0.0,0.0
20924797455025,0.43070808,9.111869,4.168297,0.0,0.0,0.0
20924799833983,0.44985065,9.08794,4.2017965,0.0,0.0,0.0
20924802212941,0.44985065,9.159725,4.331009,0.0,0.0,0.0
20924804591900,0.37328035,9.150154,4.302295,0.0,0.0,0.0
20924806970858,0.43070808,9.068798,4.1778684,0.0,0.0,0.0
20924809349816,0.5072784,9.020942,4.15394,0.0,0.0,0.0
20924811728775,0.526421,9.001799,4.168297,0.0,0.0,0.0
20924814107733,0.526421,8.906086,4.0390844,0.0,0.0,0.0
20924816486691,0.56470615,8.829515,3.952943,0.0,0.0,0.0
20924818865702,0.6125626,8.863015,4.0151563,0.0,0.0,0.0
20924821244660,0.5072784,8.786445,4.0295134,0.0,0.0,0.0
20924823623618,0.4019942,8.719446,3.991228,0.0,0.0,0.0
20924826002577,0.38285163,8.743374,3.9577286,0.0,0.0,0.0
20924828381535,0.3397808,8.843872,4.0438704,0.0,0.0,0.0
20924830760493,0.23449662,8.863015,4.0534415,0.0,0.0,0.0
20924833139452,0.22971097,8.738588,3.9577286,0.0,0.0,0.0
20924835518410,0.2632105,8.915657,4.206582,0.0,0.0,0.0
20924837897421,0.2727818,8.9013,4.287938,0.0,0.0,0.0
20924840276379,0.28235307,8.85823,4.1874394,0.0,0.0,0.0
20924842655337,0.38285163,8.877372,4.0438704,0.0,0.0,0.0
20924845034296,0.52163535,8.987442,4.168297,0.0,0.0,0.0
20924847413254,0.53599226,8.968299,4.1587257,0.0,0.0,0.0
20924849792212,0.56470615,8.906086,4.0869412,0.0,0.0,0.0
20924852171171,0.6795616,8.992228,4.106084,0.0,0.0,0.0
20924854550129,0.7609176,9.049655,4.26401,0.0,0.0,0.0
20924856929087,0.7465607,8.992228,4.26401,0.0,0.0,0.0
20924859308098,0.7322037,8.973084,4.1874394,0.0,0.0,0.0
20924861687056,0.76570326,9.016156,4.173083,0.0,0.0,0.0
20924864066014,0.7465607,9.040084,4.206582,0.0,0.0,0.0
20924866444973,0.6364908,8.953942,4.139583,0.0,0.0,0.0
20924868823931,0.55034924,8.9108715,4.139583,0.0,0.0,0.0
20924871202889,0.53599226,8.953942,4.2592244,0.0,0.0,0.0
20924873581848,0.44506502,8.963513,4.316652,0.0,0.0,0.0
20924875960806,0.29192436,8.920443,4.2975097,0.0,0.0,0.0
20924878339764,0.28713873,8.920443,4.287938,0.0,0.0,0.0
20924880718775,0.33499518,8.997013,4.2831526,0.0,0.0,0.0
20924883097681,0.31585258,8.977871,4.26401,0.0,0.0,0.0
20924885476691,0.37328035,8.853444,4.2017965,0.0,0.0,0.0
20924887855650,0.53599226,8.896515,4.240082,0.0,0.0,0.0
20924890234608,0.6795616,8.958728,4.26401,0.0,0.0,0.0
20924892613566,0.79920274,8.863015,4.2592244,0.0,0.0,0.0
20924894992525,0.94277215,8.805588,4.249653,0.0,0.0,0.0
20924897371431,1.134198,8.853444,4.2257247,0.0,0.0,0.0
20924899750441,1.2107682,8.848659,4.2017965,0.0,0.0,0.0
20924902129400,1.2490535,8.729017,4.2352962,0.0,0.0,0.0
20924904508410,1.2777673,8.705089,4.249653,0.0,0.0,0.0
20924906887368,1.2777673,8.796016,4.302295,0.0,0.0,0.0
20924909266327,1.282553,8.762517,4.3357944,0.0,0.0,0.0
20924911645285,1.2442678,8.705089,4.321438,0.0,0.0,0.0
20924914024191,1.2251252,8.752945,4.3070807,0.0,0.0,0.0
20924916403202,1.2299109,8.796016,4.316652,0.0,0.0,0.0
20924918782160,1.1964114,8.700303,4.331009,0.0,0.0,0.0
20924921161118,1.1294123,8.681161,4.345366,0.0,0.0,0.0
20924923540129,1.0671989,8.743374,4.398008,0.0,0.0,0.0
20924925919087,1.0241281,8.729017,4.421936,0.0,0.0,0.0
20924928298046,0.91884387,8.743374,4.398008,0.0,0.0,0.0
20924930677004,0.7800602,8.815159,4.354937,0.0,0.0,0.0
20924933055962,0.7178468,8.85823,4.354937,0.0,0.0,0.0
20924935434921,0.66999036,8.843872,4.402794,0.0,0.0,0.0
20924937813879,0.5694918,8.848659,4.4315076,0.0,0.0,0.0
20924940192837,0.4977071,8.843872,4.4985065,0.0,0.0,0.0
20924942571848,0.5024927,8.810373,4.5224347,0.0,0.0,0.0
20924944950806,0.5407779,8.829515,4.5272202,0.0,0.0,0.0
20924947329764,0.5024927,8.85823,4.5224347,0.0,0.0,0.0
20924949708723,0.5168497,8.843872,4.4889355,0.0,0.0,0.0
20924952087681,0.6364908,8.82473,4.508078,0.0,0.0,0.0
20924954466639,0.74177504,8.829515,4.546363,0.0,0.0,0.0
20924956845598,0.81834537,8.781659,4.56072,0.0,0.0,0.0
20924959224556,0.8997013,8.7673025,4.5559344,0.0,0.0,0.0
20924961603514,1.0049855,8.762517,4.5655055,0.0,0.0,0.0
20924963982473,1.052842,8.748159,4.536792,0.0,0.0,0.0
20924966361431,1.0576276,8.719446,4.493721,0.0,0.0,0.0
20924968740441,1.0576276,8.705089,4.465007,0.0,0.0,0.0
20924971119400,1.0145568,8.743374,4.479364,0.0,0.0,0.0
20924973498306,0.93320084,8.762517,4.4841495,0.0,0.0,0.0
20924975877316,0.79920274,8.733803,4.465007,0.0,0.0,0.0
20924978256275,0.6939186,8.7577305,4.479364,0.0,0.0,0.0
20924980635233,0.59342,8.781659,4.469793,0.0,0.0,0.0
20924983014191,0.44027936,8.7673025,4.4554358,0.0,0.0,0.0
20924985393150,0.3062813,8.748159,4.45065,0.0,0.0,0.0
20924987772108,0.23928227,8.733803,4.4458647,0.0,0.0,0.0
20924990151118,0.21535404,8.7577305,4.469793,0.0,0.0,0.0
20924992530077,0.18664017,8.748159,4.4889355,0.0,0.0,0.0
20924994909035,0.2105684,8.719446,4.4985065,0.0,0.0,0.0
20924997287941,0.31585258,8.719446,4.517649,0.0,0.0,0.0
20924999666952,0.42592242,8.748159,4.508078,0.0,0.0,0.0
20925002045910,0.49292147,8.743374,4.4745784,0.0,0.0,0.0
20925004424868,0.6269195,8.729017,4.465007,0.0,0.0,0.0
20925006803827,0.7752745,8.738588,4.493721,0.0,0.0,0.0
20925009182837,0.8997013,8.729017,4.4602213,0.0,0.0,0.0
20925011561796,0.95712906,8.590233,4.4458647,0.0,0.0,0.0
20925013940754,1.0193424,8.52802,4.479364,0.0,0.0,0.0
20925016319712,1.0671989,8.647661,4.503292,0.0,0.0,0.0
20925018698671,1.1150553,8.580662,4.220939,0.0,0.0,0.0
20925021077629,0.9762716,9.059227,4.287938,0.0,0.0,0.0
20925023456587,0.90448695,8.705089,3.9960139,0.0,0.0,0.0
20925025835546,0.8566305,8.772088,4.220939,0.0,0.0,0.0
20925028214504,0.5312066,8.896515,4.211368,0.0,0.0,0.0
20925030593410,0.44027936,9.236296,4.412365,0.0,0.0,0.0
20925032972473,0.124426775,9.140582,4.063013,0.0,0.0,0.0
20925035351431,0.13878371,9.561719,4.139583,0.0,0.0,0.0
20925037730389,0.033499517,9.801002,3.9960139,0.0,0.0,0.0
20925040109348,-0.13878371,10.207782,4.599005,0.0,0.0,0.0
20925042488306,0.019142581,9.5665045,4.3357944,0.0,0.0,0.0
20925044867264,0.27756742,9.226724,4.6085763,0.0,0.0,0.0
20925047246223,0.4354937,8.805588,4.240082,0.0,0.0,0.0
20925049625181,0.83748794,8.6141615,3.9577286,0.0,0.0,0.0
20925052004139,1.1006985,8.709874,3.723232,0.0,0.0,0.0
20925054383150,1.2586247,8.762517,3.7758741,0.0,0.0,0.0
20925056762108,1.3256238,8.805588,3.938586,0.0,0.0,0.0
20925059141066,1.0241281,8.800801,4.2448673,0.0,0.0,0.0
20925061520025,1.119841,8.738588,4.26401,0.0,0.0,0.0
20925063898983,0.91884387,8.863015,4.302295,0.0,0.0,0.0
20925066277941,0.8279166,8.566305,3.8955152,0.0,0.0,0.0
20925068656900,0.94277215,8.800801,3.938586,0.0,0.0,0.0
20925071035962,0.9523434,8.810373,3.9481573,0.0,0.0,0.0
20925073414816,0.8757731,8.432307,4.197011,0.0,0.0,0.0
20925075793827,0.65084773,8.092526,4.2927237,0.0,0.0,0.0
20925078172785,0.4642076,8.212168,4.316652,0.0,0.0,0.0
20925080551743,0.29192436,8.666803,4.1778684,0.0,0.0,0.0
20925082930702,0.023928227,8.685946,3.790231,0.0,0.0,0.0
20925085309660,-0.086141616,9.035298,3.900301,0.0,0.0,0.0
20925087688618,0.02871387,9.078369,3.9816568,0.0,0.0,0.0
20925090067577,0.19142582,9.016156,4.26401,0.0,0.0,0.0
20925092446535,0.4977071,8.997013,4.3932223,0.0,0.0,0.0
20925094825493,0.8039884,8.863015,4.0965123,0.0,0.0,0.0
20925097204504,1.1820544,9.025727,3.9673,0.0,0.0,0.0
20925099583462,1.4548361,9.020942,3.6658044,0.0,0.0,0.0
20925101962368,1.5936198,9.131011,3.7710886,0.0,0.0,0.0
20925104341379,1.564906,9.150154,4.101298,0.0,0.0,0.0
20925106720337,1.550549,8.906086,4.3262234,0.0,0.0,0.0
20925109099296,1.3878372,8.9826565,4.5415773,0.0,0.0,0.0
20925111478254,1.2107682,8.920443,4.4171505,0.0,0.0,0.0
20925113857212,1.0576276,9.030513,4.321438,0.0,0.0,0.0
20925116236171,0.82313097,8.9348,4.0534415,0.0,0.0,0.0
20925118615181,0.5072784,8.896515,4.0390844,0.0,0.0,0.0
20925120994139,0.22013968,8.7577305,4.130012,0.0,0.0,0.0
20925123373098,0.043070808,8.872586,4.316652,0.0,0.0,0.0
20925125752056,-0.11964113,9.006584,4.2687955,0.0,0.0,0.0
20925128131014,-0.26799613,9.188439,4.2927237,0.0,0.0,0.0
20925130509973,-0.23449662,9.193225,4.139583,0.0,0.0,0.0
20925132888931,-0.07178468,9.284152,4.058227,0.0,0.0,0.0
20925135267889,0.0526421,9.19801,3.9577286,0.0,0.0,0.0
20925137646848,0.22492532,9.016156,4.0390844,0.0,0.0,0.0
20925140025858,0.47856453,8.973084,4.106084,0.0,0.0,0.0
20925142404816,0.65084773,9.049655,4.058227,0.0,0.0,0.0
20925144783775,0.8135597,9.040084,4.0151563,0.0,0.0,0.0
20925147162733,1.0097711,8.9826565,4.019942,0.0,0.0,0.0
20925149541691,1.134198,8.953942,3.991228,0.0,0.0,0.0
20925151920650,1.2490535,8.886943,4.0534415,0.0,0.0,0.0
20925154299608,1.3686945,8.700303,4.115655,0.0,0.0,0.0
20925156678566,1.4596218,8.690732,4.2687955,0.0,0.0,0.0
20925159057525,1.4069797,8.676374,4.254439,0.0,0.0,0.0
20925161436535,1.2921243,8.700303,4.249653,0.0,0.0,0.0
20925163815493,1.1581261,8.786445,4.1922255,0.0,0.0,0.0
20925166194452,0.93320084,8.9013,4.058227,0.0,0.0,0.0
20925168573410,0.67477596,8.987442,3.952943,0.0,0.0,0.0
20925170952368,0.44985065,9.01137,3.9050865,0.0,0.0,0.0
20925173331327,0.2105684,9.064013,3.9720855,0.0,0.0,0.0
20925175710285,0.023928227,9.006584,4.019942,0.0,0.0,0.0
20925178089243,-0.076570325,8.906086,3.991228,0.0,0.0,0.0
20925180468202,-0.1052842,8.925228,4.0103707,0.0,0.0,0.0
20925182847212,-0.17706887,8.920443,3.9242291,0.0,0.0,0.0
20925185226171,-0.14356937,8.9108715,3.8668015,0.0,0.0,0.0
20925187605129,0.02871387,8.939586,3.8907297,0.0,0.0,0.0
20925189984087,0.22492532,8.987442,3.9625144,0.0,0.0,0.0
20925192363046,0.47377887,8.9013,4.048656,0.0,0.0,0.0
20925194742004,0.7322037,8.7673025,4.058227,0.0,0.0,0.0
20925197120962,0.9954142,8.772088,4.0151563,0.0,0.0,0.0
20925199499921,1.134198,8.738588,3.9098723,0.0,0.0,0.0
20925201878931,1.2299109,8.719446,3.8237305,0.0,0.0,0.0
20925204257889,1.2107682,8.853444,3.8285162,0.0,0.0,0.0
20925206636848,1.1150553,8.973084,3.8763726,0.0,0.0,0.0
20925209015806,0.9379865,9.016156,3.9194436,0.0,0.0,0.0
20925211394764,0.74177504,9.111869,3.9768713,0.0,0.0,0.0
20925213773723,0.5024927,9.236296,3.952943,0.0,0.0,0.0
20925216152681,0.2536392,9.288938,3.9050865,0.0,0.0,0.0
20925218531639,0.0526421,9.30808,3.8524444,0.0,0.0,0.0
20925220910598,-0.1052842,9.3511505,3.8763726,0.0,0.0,0.0
20925223289608,-0.19621146,9.370294,3.8955152,0.0,0.0,0.0
20925225668566,-0.24885355,9.312865,3.9338005,0.0,0.0,0.0
20925228047525,-0.2440679,9.303294,4.0295134,0.0,0.0,0.0
20925230426483,-0.16749759,9.269794,4.0773697,0.0,0.0,0.0
20925232805441,-0.10049855,9.19801,4.091727,0.0,0.0,0.0
20925235184400,0.033499517,9.140582,4.072584,0.0,0.0,0.0
20925237563358,0.15792629,9.116654,4.063013,0.0,0.0,0.0
20925239942316,0.28713873,9.083155,4.082155,0.0,0.0,0.0
20925242321275,0.39720857,9.040084,4.0534415,0.0,0.0,0.0
20925244700233,0.46899325,9.083155,4.0677986,0.0,0.0,0.0
20925247079243,0.5072784,9.097511,4.048656,0.0,0.0,0.0
20925249458202,0.5072784,9.131011,3.9768713,0.0,0.0,0.0
20925251837160,0.51206404,9.164511,3.9146578,0.0,0.0,0.0
20925254216118,0.46899325,9.178867,3.8763726,0.0,0.0,0.0
20925256595077,0.4211368,9.131011,3.8524444,0.0,0.0,0.0
20925258974035,0.34456646,9.111869,3.8285162,0.0,0.0,0.0
20925261352993,0.27756742,9.097511,3.7998023,0.0,0.0,0.0
20925263731952,0.2105684,9.08794,3.8237305,0.0,0.0,0.0
20925266110962,0.15792629,9.044869,3.8476589,0.0,0.0,0.0
20925268489921,0.10049855,9.035298,3.9050865,0.0,0.0,0.0
20925270868879,0.11485548,9.001799,3.9433718,0.0,0.0,0.0
20925273247837,0.17706887,8.987442,3.952943,0.0,0.0,0.0
20925275626796,0.2440679,8.9013,3.9673,0.0,0.0,0.0
20925278005754,0.35413775,8.685946,3.9194436,0.0,0.0,0.0
20925280384712,0.4546363,8.327023,3.8380876,0.0,0.0,0.0
20925282763671,0.59342,7.7479596,3.67059,0.0,0.0,0.0
20925285142629,0.66999036,8.12124,3.9194436,0.0,0.0,0.0
20925287521587,1.0001999,9.375079,4.0965123,0.0,0.0,0.0
20925289900598,0.36370903,8.9013,3.8572302,0.0,0.0,0.0
20925292279556,0.90448695,8.082955,4.3932223,0.0,0.0,0.0
20925294658514,1.5457634,8.786445,4.536792,0.0,0.0,0.0
20925297037473,0.65084773,9.762716,3.7854455,0.0,0.0,0.0
20925299416431,0.6987042,8.939586,3.0819557,0.0,0.0,0.0
20925301795389,1.6079768,8.762517,3.6131623,0.0,0.0,0.0
20925304174348,1.4835501,8.949157,3.7328033,0.0,0.0,0.0
20925306553358,0.38285163,8.977871,3.9338005,0.0,0.0,0.0
20925308932264,1.1916257,8.465807,3.900301,0.0,0.0,0.0
20925311311275,1.3208381,8.877372,3.9098723,0.0,0.0,0.0
20925313690233,0.65084773,8.743374,3.345166,0.0,0.0,0.0
20925316069191,0.60777694,8.551949,3.3834512,0.0,0.0,0.0
20925318448150,0.9906286,8.944371,3.5988052,0.0,0.0,0.0
20925320827108,0.45942193,9.12144,3.5557344,0.0,0.0,0.0
20925323206066,0.34456646,8.810373,3.723232,0.0,0.0,0.0
20925325585025,0.79920274,9.0544405,4.359723,0.0,0.0,0.0
20925327963983,0.9379865,9.355937,4.421936,0.0,0.0,0.0
20925330342993,0.51206404,9.485149,4.182654,0.0,0.0,0.0
20925332721952,1.0959128,9.461221,3.7998023,0.0,0.0,0.0
20925335100910,1.6079768,9.767502,3.455236,0.0,0.0,0.0
20925337479868,1.6749759,9.944571,3.2685957,0.0,0.0,0.0
20925339858827,1.7324036,9.911072,3.7710886,0.0,0.0,0.0
20925342237785,2.091327,9.925428,4.5128636,0.0,0.0,0.0
20925344616743,2.440679,9.949356,4.766503,0.0,0.0,0.0
20925346995702,2.5794628,9.958928,4.642076,0.0,0.0,0.0
20925349374660,2.7900312,9.743574,4.354937,0.0,0.0,0.0
20925351753671,2.737389,9.710074,4.125226,0.0,0.0,0.0
20925354132629,2.8666015,9.537791,3.9146578,0.0,0.0,0.0
20925356511587,2.9575288,9.284152,4.091727,0.0,0.0,0.0
20925358890546,2.684747,8.9013,4.3118663,0.0,0.0,0.0
20925361269452,2.158326,8.776874,4.4315076,0.0,0.0,0.0
20925363648462,1.7898313,8.776874,4.316652,0.0,0.0,0.0
20925366027421,1.4452649,8.915657,4.034299,0.0,0.0,0.0
20925368406379,0.76570326,8.585447,3.7184465,0.0,0.0,0.0
20925370785337,0.3493521,8.30788,3.5365918,0.0,0.0,0.0
20925373164348,0.0526421,8.872586,3.5365918,0.0,0.0,0.0
20925375543306,-0.3397808,8.724232,3.359523,0.0,0.0,0.0
20925377922264,-0.46899325,8.3174515,3.5557344,0.0,0.0,0.0
20925380301223,-0.47856453,7.958528,3.4217365,0.0,0.0,0.0
20925382680181,-0.42592242,8.609376,3.8476589,0.0,0.0,0.0
20925385059139,-0.80877405,8.274381,4.005585,0.0,0.0,0.0
20925387438098,-0.45942193,8.039884,4.139583,0.0,0.0,0.0
20925389817056,-0.17228323,8.41795,3.818945,0.0,0.0,0.0
20925392196014,0.033499517,8.843872,3.7998023,0.0,0.0,0.0
20925394574973,-0.014356935,8.331808,3.67059,0.0,0.0,0.0
20925396953983,0.32063824,8.34138,3.9194436,0.0,0.0,0.0
20925399332941,0.71306115,8.805588,4.1587257,0.0,0.0,0.0
20925401711900,0.66041905,8.848659,4.369294,0.0,0.0,0.0
20925404090858,0.85184485,8.585447,4.220939,0.0,0.0,0.0
20925406469816,0.8662018,8.9348,4.2592244,0.0,0.0,0.0
20925408848775,0.9379865,9.016156,4.0390844,0.0,0.0,0.0
20925411227733,0.72741807,8.968299,3.885944,0.0,0.0,0.0
20925413606743,0.8566305,9.025727,3.9050865,0.0,0.0,0.0
20925415985702,0.6364908,9.255438,4.23051,0.0,0.0,0.0
20925418364660,0.37328035,9.2075815,4.2927237,0.0,0.0,0.0
20925420743618,0.31585258,9.078369,4.273581,0.0,0.0,0.0
20925423122577,0.44985065,9.049655,4.23051,0.0,0.0,0.0
20925425501535,0.40677986,9.145369,4.106084,0.0,0.0,0.0
20925427880493,0.28713873,9.107083,3.9098723,0.0,0.0,0.0
20925430259452,0.40677986,9.030513,3.9098723,0.0,0.0,0.0
20925432638462,0.5407779,9.078369,4.091727,0.0,0.0,0.0
20925435017421,0.56470615,9.116654,4.2161536,0.0,0.0,0.0
20925437396379,0.53599226,9.102298,4.206582,0.0,0.0,0.0
20925439775337,0.6556334,9.131011,4.139583,0.0,0.0,0.0
20925442154296,0.7896315,9.092726,3.9720855,0.0,0.0,0.0
20925444533254,0.91884387,9.020942,3.8524444,0.0,0.0,0.0
20925446912212,1.105484,9.370294,3.9050865,0.0,0.0,0.0
20925449291171,1.3304094,9.623933,3.5892339,0.0,0.0,0.0
20925451670129,1.3256238,9.38465,3.6658044,0.0,0.0,0.0
20925454049087,1.7563318,8.7673025,3.5509489,0.0,0.0,0.0
20925456428098,1.7419748,9.542577,3.8668015,0.0,0.0,0.0
20925458807056,1.8185452,9.810573,3.7615173,0.0,0.0,0.0
20925461186014,1.5601203,9.293723,3.603591,0.0,0.0,0.0
20925463564973,1.7515461,8.633304,3.6658044,0.0,0.0,0.0
20925465943931,1.402194,9.987641,3.9290147,0.0,0.0,0.0
20925468322889,0.8470592,9.556933,3.871587,0.0,0.0,0.0
20925470701848,0.6221339,9.188439,4.1204405,0.0,0.0,0.0
20925473080806,0.2105684,9.667004,3.9816568,0.0,0.0,0.0
20925475459816,-0.15314065,9.992428,3.9481573,0.0,0.0,0.0
20925477838775,-0.6843473,8.9013,3.6897326,0.0,0.0,0.0
20925480217733,-0.4546363,9.12144,3.9433718,0.0,0.0,0.0
20925482596691,-0.7465607,9.375079,4.058227,0.0,0.0,0.0
20925484975650,-1.0863415,8.829515,4.0438704,0.0,0.0,0.0
20925487354608,-0.8757731,8.719446,3.952943,0.0,0.0,0.0
20925489733566,-0.74177504,9.265009,3.9242291,0.0,0.0,0.0
20925492112525,-0.8566305,9.078369,3.7758741,0.0,0.0,0.0
20925494491483,-1.0049855,8.662018,3.7280176,0.0,0.0,0.0
20925496870493,-0.526421,8.915657,3.8237305,0.0,0.0,0.0
20925499249452,-0.4881358,9.01137,3.991228,0.0,0.0,0.0
20925501628410,-0.49292147,8.3174515,4.024728,0.0,0.0,0.0
20925504007368,-0.37806597,8.623733,4.302295,0.0,0.0,0.0
20925506386327,-0.08135597,8.925228,4.019942,0.0,0.0,0.0
20925508765285,-0.033499517,8.518449,3.8763726,0.0,0.0,0.0
20925511144243,0.09571291,8.135597,3.8668015,0.0,0.0,0.0
20925513523202,0.29192436,8.752945,4.101298,0.0,0.0,0.0
20925515902160,0.36370903,8.633304,4.168297,0.0,0.0,0.0
20925518281171,0.5886344,8.274381,4.5415773,0.0,0.0,0.0
20925520660129,0.6939186,8.685946,4.6037908,0.0,0.0,0.0
20925523039087,0.8566305,9.0544405,4.1874394,0.0,0.0,0.0
20925525418046,0.8039884,8.958728,3.871587,0.0,0.0,0.0
20925527797004,0.9379865,9.016156,3.7710886,0.0,0.0,0.0
20925530175962,0.81834537,9.394221,3.8524444,0.0,0.0,0.0
20925532554921,0.86141616,9.044869,4.0965123,0.0,0.0,0.0
20925534933879,0.80877405,8.973084,4.718646,0.0,0.0,0.0
20925537312837,0.80877405,9.059227,4.9674997,0.0,0.0,0.0
20925539691848,0.55034924,9.020942,4.895715,0.0,0.0,0.0
20925542070806,0.61734825,8.896515,4.74736,0.0,0.0,0.0
20925544449764,0.7322037,9.135797,4.5224347,0.0,0.0,0.0
20925546828723,0.526421,9.2075815,4.273581,0.0,0.0,0.0
20925549207681,0.5312066,8.872586,4.5798626,0.0,0.0,0.0
20925551586639,0.74177504,8.762517,5.4221363,0.0,0.0,0.0
20925553965598,0.9906286,8.705089,5.814559,0.0,0.0,0.0
20925556344556,0.71306115,8.906086,5.986842,0.0,0.0,0.0
20925558723514,0.90448695,8.705089,5.642276,0.0,0.0,0.0
20925561102525,1.2059826,8.829515,5.3072805,0.0,0.0,0.0
20925563481483,1.1006985,8.82473,4.833502,0.0,0.0,0.0
20925565860441,0.8853444,8.810373,4.895715,0.0,0.0,0.0
20925568239400,1.052842,8.666803,5.1158547,0.0,0.0,0.0
20925570618358,1.0480564,8.63809,5.393422,0.0,0.0,0.0
20925572997316,0.6795616,8.532805,5.584848,0.0,0.0,0.0
20925575376275,0.6987042,8.523234,5.74756,0.0,0.0,0.0
20925577755233,0.79441714,8.60459,5.436493,0.0,0.0,0.0
20925580134243,0.65084773,8.451449,4.996214,0.0,0.0,0.0
20925582513202,0.6939186,7.9920278,4.7282176,0.0,0.0,0.0
20925584892160,0.8997013,8.236095,5.048856,0.0,0.0,0.0
20925587271118,0.91405827,8.015956,5.245067,0.0,0.0,0.0
20925589650077,0.9284152,7.728817,5.6709895,0.0,0.0,0.0
20925592029035,0.94277215,7.6426754,5.7523456,0.0,0.0,0.0
20925594407993,1.0336994,7.5182486,5.6470613,0.0,0.0,0.0
20925596786952,1.0480564,7.389036,5.2977095,0.0,0.0,0.0
20925599165910,1.0336994,7.585248,5.1014977,0.0,0.0,0.0
20925601544921,0.9810573,7.8149586,5.063213,0.0,0.0,0.0
20925603923879,0.8327023,7.8628154,5.0344987,0.0,0.0,0.0
20925606302837,0.9379865,8.087741,5.2642097,0.0,0.0,0.0
20925608681796,0.91405827,8.063812,5.436493,0.0,0.0,0.0
20925611060754,0.8566305,8.111669,5.608776,0.0,0.0,0.0
20925613439712,0.8662018,8.12124,5.355137,0.0,0.0,0.0
20925615818671,1.0959128,8.350951,5.144569,0.0,0.0,0.0
20925618197629,1.0863415,8.41795,4.9722853,0.0,0.0,0.0
20925620576587,1.0049855,8.34138,4.9866424,0.0,0.0,0.0
20925622955598,1.0959128,8.360522,5.2929235,0.0,0.0,0.0
20925625334556,1.0863415,8.547162,5.757131,0.0,0.0,0.0
20925627713514,1.0145568,8.350951,5.9150577,0.0,0.0,0.0
20925630092473,1.0336994,8.336594,5.8480587,0.0,0.0,0.0
20925632471431,1.1294123,8.79123,5.5896335,0.0,0.0,0.0
20925634850389,1.0719845,9.078369,5.211568,0.0,0.0,0.0
20925637229348,0.8327023,8.977871,4.9340005,0.0,0.0,0.0
20925639608306,0.81834537,9.064013,4.9196434,0.0,0.0,0.0
20925641987264,0.6987042,9.241081,4.9722853,0.0,0.0,0.0
20925644366275,0.5024927,9.001799,5.048856,0.0,0.0,0.0
20925646745233,0.3493521,9.15494,5.197211,0.0,0.0,0.0
20925649124191,0.29671,9.23151,4.895715,0.0,0.0,0.0
20925651503150,0.28235307,9.245867,4.651647,0.0,0.0,0.0
20925653882108,0.24885355,9.15494,4.3645086,0.0,0.0,0.0
20925656261066,0.2727818,9.332008,4.197011,0.0,0.0,0.0
20925658640025,0.34456646,9.059227,4.168297,0.0,0.0,0.0
20925661018983,0.55034924,8.848659,4.331009,0.0,0.0,0.0
20925663397993,0.7082755,8.920443,4.517649,0.0,0.0,0.0
20925665776952,0.7800602,8.867801,4.575077,0.0,0.0,0.0
20925668155910,0.98584294,8.657232,4.45065,0.0,0.0,0.0
20925670534868,1.1916257,8.810373,4.2257247,0.0,0.0,0.0
20925672913827,1.2346965,8.834301,3.7615173,0.0,0.0,0.0
20925675292785,1.2490535,8.848659,3.546163,0.0,0.0,0.0
20925677671743,1.4739788,8.796016,3.4121652,0.0,0.0,0.0
20925680050702,1.4500505,8.987442,3.6227336,0.0,0.0,0.0
20925682429660,1.5218352,8.796016,3.6275191,0.0,0.0,0.0
20925684808671,1.4596218,8.977871,3.8285162,0.0,0.0,0.0
20925687187629,1.579263,8.9013,3.5700915,0.0,0.0,0.0
20925689566587,1.2490535,9.025727,3.4456646,0.0,0.0,0.0
20925691945546,1.038485,8.743374,3.1489546,0.0,0.0,0.0
20925694324504,0.91405827,8.882157,3.2398818,0.0,0.0,0.0
20925696703462,0.7082755,8.79123,3.2159536,0.0,0.0,0.0
20925699082421,0.41156548,8.733803,3.4791641,0.0,0.0,0.0
20925701461327,0.22492532,8.537591,3.641876,0.0,0.0,0.0
20925703840389,0.22971097,8.609376,3.8141594,0.0,0.0,0.0
20925706219348,0.11485548,8.618947,3.8763726,0.0,0.0,0.0
20925708598306,0.21535404,8.595019,3.9960139,0.0,0.0,0.0
20925710977264,0.30149564,8.676374,4.0677986,0.0,0.0,0.0
20925713356223,0.4354937,8.776874,4.173083,0.0,0.0,0.0
20925715735181,0.59342,8.781659,4.3405805,0.0,0.0,0.0
20925718114139,0.7465607,8.815159,4.6085763,0.0,0.0,0.0
20925720493098,0.79920274,8.906086,4.8047876,0.0,0.0,0.0
20925722872056,0.79920274,9.044869,4.8095737,0.0,0.0,0.0
20925725251014,0.8566305,9.188439,4.6564326,0.0,0.0,0.0
20925727630806,0.85184485,9.245867,4.436293,0.0,0.0,0.0
20925730008983,0.85184485,9.303294,4.26401,0.0,0.0,0.0
20925732387941,0.8422736,9.399008,4.2927237,0.0,0.0,0.0
20925734766900,0.8039884,9.504292,4.3645086,0.0,0.0,0.0
20925737145858,0.7609176,9.284152,4.436293,0.0,0.0,0.0
20925739524816,0.7752745,9.202796,4.5272202,0.0,0.0,0.0
20925741903775,0.7513463,9.23151,4.546363,0.0,0.0,0.0
20925744282733,0.6652047,9.164511,4.517649,0.0,0.0,0.0
20925746661743,0.5838487,8.987442,4.426722,0.0,0.0,0.0
20925749040702,0.55034924,8.963513,4.4602213,0.0,0.0,0.0
20925751419660,0.4546363,8.867801,4.493721,0.0,0.0,0.0
20925753798618,0.32063824,8.690732,4.5798626,0.0,0.0,0.0
20925756177577,0.25842485,8.590233,4.6229334,0.0,0.0,0.0
20925758556483,0.19621146,8.6141615,4.5798626,0.0,0.0,0.0
20925760935493,0.16271193,8.575876,4.4315076,0.0,0.0,0.0
20925763314452,0.13878371,8.532805,4.2352962,0.0,0.0,0.0
20925765693462,0.09092726,8.599805,4.1347976,0.0,0.0,0.0
20925768072421,0.014356935,8.633304,4.063013,0.0,0.0,0.0
20925770451379,0.0,8.671589,4.091727,0.0,0.0,0.0
20925772830337,-0.009571291,8.752945,4.139583,0.0,0.0,0.0
20925775209296,-0.02871387,8.85823,4.139583,0.0,0.0,0.0
20925777588202,-0.019142581,8.9013,4.091727,0.0,0.0,0.0
20925779967212,0.06699903,8.997013,4.0390844,0.0,0.0,0.0
20925782346171,0.18185452,9.001799,3.952943,0.0,0.0,0.0
20925784725129,0.3062813,8.9826565,3.9194436,0.0,0.0,0.0
20925787104087,0.4881358,8.953942,3.900301,0.0,0.0,0.0
20925789483098,0.64606214,8.9826565,3.9194436,0.0,0.0,0.0
20925791862056,0.8135597,8.915657,3.900301,0.0,0.0,0.0
20925794241014,0.94277215,8.848659,3.8572302,0.0,0.0,0.0
20925796619973,1.052842,8.848659,3.7950168,0.0,0.0,0.0
20925798998931,1.0001999,8.848659,3.7615173,0.0,0.0,0.0
20925801377889,0.8853444,8.839087,3.7758741,0.0,0.0,0.0
20925803756848,0.7178468,8.853444,3.871587,0.0,0.0,0.0
20925806135858,0.49292147,8.886943,4.0103707,0.0,0.0,0.0
20925808514816,0.19142582,8.925228,4.1204405,0.0,0.0,0.0
20925810893775,-0.086141616,8.939586,4.2161536,0.0,0.0,0.0
20925813272733,-0.29192436,8.997013,4.287938,0.0,0.0,0.0
20925815651691,-0.41156548,9.049655,4.3118663,0.0,0.0,0.0
20925818030650,-0.5312066,9.08794,4.354937,0.0,0.0,0.0
20925820409608,-0.6125626,9.131011,4.4458647,0.0,0.0,0.0
20925822788566,-0.6269195,9.188439,4.570291,0.0,0.0,0.0
20925825167525,-0.63170516,9.23151,4.6803613,0.0,0.0,0.0
20925827546483,-0.55513483,9.212367,4.723432,0.0,0.0,0.0
20925829925493,-0.41635114,9.2075815,4.7425747,0.0,0.0,0.0
20925832304452,-0.28235307,9.19801,4.7282176,0.0,0.0,0.0
20925834683410,-0.11006984,9.15494,4.699504,0.0,0.0,0.0
20925837062368,0.12921242,9.078369,4.666004,0.0,0.0,0.0
20925839441327,0.35413775,9.016156,4.6564326,0.0,0.0,0.0
20925841820285,0.5694918,8.973084,4.651647,0.0,0.0,0.0
20925844199243,0.74177504,8.886943,4.613362,0.0,0.0,0.0
20925846578202,0.9236295,8.733803,4.402794,0.0,0.0,0.0
20925848957160,1.0719845,8.700303,4.1108694,0.0,0.0,0.0
20925851336171,1.0863415,8.676374,4.0103707,0.0,0.0,0.0
20925853715129,1.2011969,8.575876,4.0390844,0.0,0.0,0.0
20925856094087,1.0767702,8.647661,4.106084,0.0,0.0,0.0
20925858473046,0.9379865,8.700303,4.0773697,0.0,0.0,0.0
20925860852004,0.83748794,8.690732,3.9864426,0.0,0.0,0.0
20925863230962,0.6939186,8.729017,3.818945,0.0,0.0,0.0
20925865609921,0.4642076,8.877372,3.7184465,0.0,0.0,0.0
20925867988931,0.3397808,8.944371,3.7040894,0.0,0.0,0.0
20925870367889,0.30149564,8.968299,3.737589,0.0,0.0,0.0
20925872746848,0.2009971,9.044869,3.7998023,0.0,0.0,0.0
20925875125806,0.17228323,9.107083,3.8380876,0.0,0.0,0.0
20925877504764,0.19621146,9.116654,3.8955152,0.0,0.0,0.0
20925879883723,0.23449662,9.12144,3.9146578,0.0,0.0,0.0
20925882262681,0.3062813,9.116654,3.9338005,0.0,0.0,0.0
20925884641639,0.41156548,9.097511,3.9960139,0.0,0.0,0.0
20925887020598,0.53599226,9.073584,4.0773697,0.0,0.0,0.0
20925889399608,0.61734825,9.064013,4.173083,0.0,0.0,0.0
20925891778566,0.7513463,9.01137,4.2687955,0.0,0.0,0.0
20925894157525,0.90448695,8.963513,4.3357944,0.0,0.0,0.0
20925896536483,0.9667004,8.963513,4.3645086,0.0,0.0,0.0
20925898915441,1.0097711,8.963513,4.4075794,0.0,0.0,0.0
20925901294400,1.0432707,8.939586,4.4602213,0.0,0.0,0.0
20925903673358,1.0624132,8.930014,4.469793,0.0,0.0,0.0
20925906052316,1.052842,8.906086,4.479364,0.0,0.0,0.0
20925908431275,1.0241281,8.877372,4.479364,0.0,0.0,0.0
20925910810233,0.9092726,8.848659,4.469793,0.0,0.0,0.0
20925913189243,0.8327023,8.85823,4.4315076,0.0,0.0,0.0
20925915568202,0.7322037,8.829515,4.3788652,0.0,0.0,0.0
20925917947108,0.67477596,8.796016,4.345366,0.0,0.0,0.0
20925920326118,0.56470615,8.810373,4.331009,0.0,0.0,0.0
20925922705077,0.5168497,8.805588,4.3501515,0.0,0.0,0.0
20925925084035,0.4977071,8.7577305,4.3405805,0.0,0.0,0.0
20925927462993,0.46899325,8.776874,4.331009,0.0,0.0,0.0
20925929841952,0.4354937,8.786445,4.3357944,0.0,0.0,0.0
20925932220962,0.4211368,8.819944,4.331009,0.0,0.0,0.0
20925934599921,0.49292147,8.843872,4.321438,0.0,0.0,0.0
20925936978879,0.5407779,8.867801,4.321438,0.0,0.0,0.0
20925939357837,0.59342,8.867801,4.3118663,0.0,0.0,0.0
20925941736796,0.66041905,8.896515,4.3070807,0.0,0.0,0.0
20925944115754,0.6795616,8.896515,4.2687955,0.0,0.0,0.0
20925946494712,0.6987042,8.9108715,4.2448673,0.0,0.0,0.0
20925948873671,0.74177504,8.9348,4.211368,0.0,0.0,0.0
20925951252629,0.7800602,8.939586,4.211368,0.0,0.0,0.0
20925953631639,0.7752745,8.958728,4.197011,0.0,0.0,0.0
20925956010598,0.74177504,8.949157,4.182654,0.0,0.0,0.0
20925958389556,0.7609176,8.939586,4.1443686,0.0,0.0,0.0
20925960768514,0.79920274,8.925228,4.0869412,0.0,0.0,0.0
20925963147421,0.79441714,8.930014,4.034299,0.0,0.0,0.0
20925965526379,0.79920274,8.925228,3.9816568,0.0,0.0,0.0
20925967905389,0.8566305,8.930014,3.938586,0.0,0.0,0.0
20925970284348,0.9284152,8.9108715,3.9098723,0.0,0.0,0.0
20925972663306,0.95712906,8.863015,3.871587,0.0,0.0,0.0
20925975042316,1.0097711,8.810373,3.8476589,0.0,0.0,0.0
20925977421275,1.052842,8.79123,3.8380876,0.0,0.0,0.0
20925979800233,1.1246266,8.776874,3.818945,0.0,0.0,0.0
20925982179191,1.1485549,8.71466,3.7998023,0.0,0.0,0.0
20925984558150,1.1916257,8.724232,3.8141594,0.0,0.0,0.0
20925986937108,1.2155539,8.729017,3.8476589,0.0,0.0,0.0
20925989316066,1.2011969,8.743374,3.8907297,0.0,0.0,0.0
20925991695025,1.1629118,8.738588,3.952943,0.0,0.0,0.0
20925994074035,1.0959128,8.800801,4.019942,0.0,0.0,0.0
20925996452993,1.0097711,8.853444,4.091727,0.0,0.0,0.0
20925998831952,0.9092726,8.877372,4.1443686,0.0,0.0,0.0
20926001210910,0.80877405,8.896515,4.1587257,0.0,0.0,0.0
20926003589868,0.7369894,8.915657,4.1491547,0.0,0.0,0.0
20926005968827,0.66041905,8.973084,4.1587257,0.0,0.0,0.0
20926008347785,0.6029913,8.987442,4.2017965,0.0,0.0,0.0
20926010726743,0.5838487,8.968299,4.302295,0.0,0.0,0.0
20926013105754,0.6029913,8.939586,4.3836513,0.0,0.0,0.0
20926015484712,0.6652047,8.958728,4.4410787,0.0,0.0,0.0
20926017863671,0.7513463,8.920443,4.436293,0.0,0.0,0.0
20926020242629,0.8135597,8.9013,4.421936,0.0,0.0,0.0
20926022621587,0.89491564,8.891729,4.388437,0.0,0.0,0.0
20926025000546,1.0193424,8.882157,4.359723,0.0,0.0,0.0
20926027379504,1.1102697,8.891729,4.426722,0.0,0.0,0.0
20926029758462,1.2107682,8.877372,4.45065,0.0,0.0,0.0
20926032137421,1.3543376,8.843872,4.4602213,0.0,0.0,0.0
20926034516431,1.4787644,8.738588,4.4745784,0.0,0.0,0.0
20926036895389,1.5840486,8.671589,4.4410787,0.0,0.0,0.0
20926039274348,1.6223338,8.623733,4.4075794,0.0,0.0,0.0
20926041653306,1.6127625,8.628518,4.3932223,0.0,0.0,0.0
20926044032264,1.5696917,8.642876,4.4171505,0.0,0.0,0.0
20926046411223,1.4548361,8.695518,4.465007,0.0,0.0,0.0
20926048790129,1.3399807,8.781659,4.5320063,0.0,0.0,0.0
20926051169139,1.2299109,8.79123,4.5798626,0.0,0.0,0.0
20926053548098,1.1102697,8.748159,4.618148,0.0,0.0,0.0
20926055927108,0.9619147,8.733803,4.613362,0.0,0.0,0.0
20926058306066,0.7752745,8.743374,4.5894337,0.0,0.0,0.0
20926060685025,0.6412765,8.772088,4.5320063,0.0,0.0,0.0
20926063063983,0.49292147,8.834301,4.5320063,0.0,0.0,0.0
20926065442889,0.38285163,8.872586,4.536792,0.0,0.0,0.0
20926067821900,0.30149564,8.925228,4.5798626,0.0,0.0,0.0
20926070200858,0.2632105,8.906086,4.6325045,0.0,0.0,0.0
20926072579816,0.29671,8.891729,4.642076,0.0,0.0,0.0
20926074958775,0.35413775,8.863015,4.5942197,0.0,0.0,0.0
20926077337785,0.4977071,8.843872,4.4841495,0.0,0.0,0.0
20926079716743,0.67477596,8.829515,4.3501515,0.0,0.0,0.0
20926082095702,0.8470592,8.848659,4.2592244,0.0,0.0,0.0
20926084474660,1.0719845,8.839087,4.206582,0.0,0.0,0.0
20926086853618,1.282553,8.786445,4.1587257,0.0,0.0,0.0
20926089232577,1.4452649,8.752945,4.130012,0.0,0.0,0.0
20926091611535,1.5696917,8.733803,4.0773697,0.0,0.0,0.0
20926093990493,1.6797615,8.743374,3.9625144,0.0,0.0,0.0
20926096369504,1.7371893,8.772088,3.8285162,0.0,0.0,0.0
20926098748462,1.7180467,8.7673025,3.7184465,0.0,0.0,0.0
20926101127421,1.6797615,8.7673025,3.6801612,0.0,0.0,0.0
20926103506379,1.564906,8.748159,3.6849468,0.0,0.0,0.0
20926105885337,1.3878372,8.7673025,3.737589,0.0,0.0,0.0
20926108264296,1.1629118,8.786445,3.7758741,0.0,0.0,0.0
20926110643254,0.89491564,8.815159,3.7950168,0.0,0.0,0.0
20926113022212,0.6221339,8.867801,3.7710886,0.0,0.0,0.0
20926115401171,0.36370903,8.9348,3.7663028,0.0,0.0,0.0
20926117780181,0.13878371,8.977871,3.8476589,0.0,0.0,0.0
20926120159139,-0.02871387,8.973084,3.9433718,0.0,0.0,0.0
20926122538098,-0.11485548,8.992228,4.0390844,0.0,0.0,0.0
20926124917056,-0.15792629,9.025727,4.1204405,0.0,0.0,0.0
20926127296014,-0.16749759,9.049655,4.173083,0.0,0.0,0.0
20926129674973,-0.11964113,9.016156,4.182654,0.0,0.0,0.0
20926132053931,0.0047856453,9.035298,4.173083,0.0,0.0,0.0
20926134432889,0.16271193,9.035298,4.1778684,0.0,0.0,0.0
20926136811900,0.3589234,9.006584,4.173083,0.0,0.0,0.0
20926139190858,0.5455636,8.973084,4.2448673,0.0,0.0,0.0
20926141569816,0.7369894,8.920443,4.287938,0.0,0.0,0.0
20926143948775,0.9619147,8.886943,4.3405805,0.0,0.0,0.0
20926146327733,1.1629118,8.877372,4.331009,0.0,0.0,0.0
20926148706691,1.3399807,8.815159,4.331009,0.0,0.0,0.0
20926151085650,1.4931214,8.71466,4.287938,0.0,0.0,0.0
20926153464608,1.5457634,8.685946,4.278367,0.0,0.0,0.0
20926155843566,1.5074782,8.642876,4.3118663,0.0,0.0,0.0
20926158222577,1.416551,8.6141615,4.359723,0.0,0.0,0.0
20926160601535,1.253839,8.709874,4.426722,0.0,0.0,0.0
20926162980493,1.0576276,8.772088,4.469793,0.0,0.0,0.0
20926165359452,0.85184485,8.815159,4.5272202,0.0,0.0,0.0
20926167738410,0.6652047,8.82473,4.570291,0.0,0.0,0.0
20926170117368,0.4833502,8.834301,4.5942197,0.0,0.0,0.0
20926172496327,0.3062813,8.819944,4.5655055,0.0,0.0,0.0
20926174875285,0.16271193,8.834301,4.5559344,0.0,0.0,0.0
20926177254296,0.07178468,8.863015,4.5224347,0.0,0.0,0.0
20926179633254,0.0047856453,8.915657,4.493721,0.0,0.0,0.0
20926182012212,-0.023928227,8.9348,4.4889355,0.0,0.0,0.0
20926184391171,-0.009571291,8.939586,4.4985065,0.0,0.0,0.0
20926186770129,0.086141616,8.930014,4.5272202,0.0,0.0,0.0
20926189149087,0.2009971,8.9108715,4.503292,0.0,0.0,0.0
20926191528046,0.35413775,8.872586,4.421936,0.0,0.0,0.0
20926193907004,0.55034924,8.877372,4.3405805,0.0,0.0,0.0
20926196285962,0.7465607,8.891729,4.2687955,0.0,0.0,0.0
20926198664973,1.0576276,8.85823,4.220939,0.0,0.0,0.0
20926201043879,1.3256238,8.863015,4.220939,0.0,0.0,0.0
20926203422889,1.6127625,8.82473,4.26401,0.0,0.0,0.0
20926205801848,1.8137596,8.815159,4.302295,0.0,0.0,0.0
20926208180806,1.9621146,8.796016,4.2592244,0.0,0.0,0.0
20926210559764,2.009971,8.819944,4.1874394,0.0,0.0,0.0
20926212938723,2.0051854,8.819944,4.0965123,0.0,0.0,0.0
20926215317681,1.9046868,8.810373,4.063013,0.0,0.0,0.0
20926217696639,1.7467605,8.85823,4.082155,0.0,0.0,0.0
20926220075650,1.5170496,8.891729,4.1443686,0.0,0.0,0.0
20926222454608,1.2921243,8.896515,4.182654,0.0,0.0,0.0
20926224833566,1.0576276,8.925228,4.1874394,0.0,0.0,0.0
20926227212525,0.8327023,8.958728,4.139583,0.0,0.0,0.0
20926229591483,0.64606214,8.939586,4.101298,0.0,0.0,0.0
20926231970441,0.5072784,8.920443,4.0869412,0.0,0.0,0.0
20926234349400,0.41156548,8.9108715,4.125226,0.0,0.0,0.0
20926236728410,0.32063824,8.882157,4.168297,0.0,0.0,0.0
20926239107316,0.25842485,8.867801,4.2448673,0.0,0.0,0.0
20926241486327,0.22971097,8.925228,4.2975097,0.0,0.0,0.0
20926243865285,0.23449662,8.915657,4.3118663,0.0,0.0,0.0
20926246244243,0.30149564,8.85823,4.3070807,0.0,0.0,0.0
20926248623150,0.37328035,8.882157,4.321438,0.0,0.0,0.0
20926251002160,0.47856453,8.925228,4.321438,0.0,0.0,0.0
20926253381118,0.59342,8.9013,4.3262234,0.0,0.0,0.0
20926255760077,0.75613195,8.906086,4.3070807,0.0,0.0,0.0
20926258139087,0.89013004,8.930014,4.316652,0.0,0.0,0.0
20926260518046,1.0241281,8.939586,4.2831526,0.0,0.0,0.0
20926262897004,1.1629118,8.872586,4.2592244,0.0,0.0,0.0
20926265275962,1.2490535,8.85823,4.2161536,0.0,0.0,0.0
20926267654921,1.2490535,8.85823,4.1922255,0.0,0.0,0.0
20926270033879,1.1916257,8.834301,4.1922255,0.0,0.0,0.0
20926272412837,1.1006985,8.829515,4.206582,0.0,0.0,0.0
20926274791796,0.9379865,8.867801,4.2257247,0.0,0.0,0.0
20926277170754,0.7369894,8.834301,4.2448673,0.0,0.0,0.0
20926279549764,0.55513483,8.886943,4.2831526,0.0,0.0,0.0
20926281928723,0.3589234,8.9013,4.2687955,0.0,0.0,0.0
20926284307681,0.16749759,8.882157,4.302295,0.0,0.0,0.0
20926286686639,0.033499517,8.906086,4.3357944,0.0,0.0,0.0
20926289065598,-0.07178468,8.944371,4.321438,0.0,0.0,0.0
20926291444556,-0.148355,8.958728,4.2927237,0.0,0.0,0.0
20926293823514,-0.2105684,8.987442,4.240082,0.0,0.0,0.0
20926296202473,-0.2536392,9.01137,4.220939,0.0,0.0,0.0
20926298581483,-0.22013968,9.020942,4.1922255,0.0,0.0,0.0
20926300960441,-0.22492532,9.016156,4.182654,0.0,0.0,0.0
20926303339400,-0.16271193,9.035298,4.1874394,0.0,0.0,0.0
20926305718358,-0.047856454,9.016156,4.182654,0.0,0.0,0.0
20926308097316,0.033499517,9.049655,4.1874394,0.0,0.0,0.0
20926310476275,0.16271193,9.0544405,4.1874394,0.0,0.0,0.0
20926312855233,0.31585258,9.049655,4.220939,0.0,0.0,0.0
20926315234191,0.46899325,9.059227,4.197011,0.0,0.0,0.0
20926317613150,0.59342,9.0544405,4.197011,0.0,0.0,0.0
20926319992108,0.7178468,8.992228,4.1443686,0.0,0.0,0.0
20926322371118,0.82313097,8.968299,4.106084,0.0,0.0,0.0
20926324750077,0.89013004,8.958728,4.034299,0.0,0.0,0.0
20926327129035,0.89013004,8.906086,4.0151563,0.0,0.0,0.0
20926329507993,0.8470592,8.882157,4.0295134,0.0,0.0,0.0
20926331886952,0.7752745,8.9013,4.0438704,0.0,0.0,0.0
20926334265910,0.6556334,8.853444,4.0534415,0.0,0.0,0.0
20926336644868,0.52163535,8.848659,4.072584,0.0,0.0,0.0
20926339023879,0.39720857,8.853444,4.0869412,0.0,0.0,0.0
20926341402837,0.27756742,8.85823,4.101298,0.0,0.0,0.0
20926343781796,0.17228323,8.853444,4.115655,0.0,0.0,0.0
20926346160754,0.09092726,8.839087,4.15394,0.0,0.0,0.0
20926348539712,0.033499517,8.896515,4.1778684,0.0,0.0,0.0
20926350918671,0.0,8.920443,4.182654,0.0,0.0,0.0
20926353297629,-0.047856454,8.9013,4.1587257,0.0,0.0,0.0
20926355676587,-0.023928227,8.920443,4.1778684,0.0,0.0,0.0
20926358055546,0.02871387,8.958728,4.197011,0.0,0.0,0.0
20926360434556,0.10049855,8.953942,4.1778684,0.0,0.0,0.0
20926362813514,0.16749759,8.968299,4.182654,0.0,0.0,0.0
20926365192473,0.23449662,9.006584,4.182654,0.0,0.0,0.0
20926367571431,0.34456646,8.992228,4.1778684,0.0,0.0,0.0
20926369950389,0.47856453,8.958728,4.168297,0.0,0.0,0.0
20926372329348,0.55513483,9.006584,4.1778684,0.0,0.0,0.0
20926374708306,0.6652047,9.01137,4.1635113,0.0,0.0,0.0
20926377087264,0.76570326,9.006584,4.173083,0.0,0.0,0.0
20926379466275,0.8279166,8.963513,4.1635113,0.0,0.0,0.0
20926381845233,0.8327023,8.9108715,4.1587257,0.0,0.0,0.0
20926384224191,0.82313097,8.906086,4.2257247,0.0,0.0,0.0
20926386603150,0.8279166,8.915657,4.287938,0.0,0.0,0.0
20926388982108,0.7513463,8.906086,4.316652,0.0,0.0,0.0
20926391361066,0.6556334,8.886943,4.302295,0.0,0.0,0.0
20926393740025,0.5455636,8.848659,4.2927237,0.0,0.0,0.0
20926396118983,0.44027936,8.805588,4.2257247,0.0,0.0,0.0
20926398497941,0.32063824,8.819944,4.182654,0.0,0.0,0.0
20926400876952,0.25842485,8.815159,4.1922255,0.0,0.0,0.0
20926403255910,0.148355,8.872586,4.3118663,0.0,0.0,0.0
20926405634868,0.11964113,8.968299,4.4171505,0.0,0.0,0.0
20926408013827,0.07178468,8.987442,4.4458647,0.0,0.0,0.0
20926410392785,0.08135597,8.920443,4.412365,0.0,0.0,0.0
20926412771743,0.12921242,8.958728,4.3740797,0.0,0.0,0.0
20926415150702,0.22971097,8.953942,4.2831526,0.0,0.0,0.0
20926417529660,0.34456646,8.891729,4.2017965,0.0,0.0,0.0
20926419908618,0.44027936,8.920443,4.1922255,0.0,0.0,0.0
20926422287577,0.5694918,8.930014,4.2257247,0.0,0.0,0.0
20926424666587,0.64606214,8.9348,4.254439,0.0,0.0,0.0
20926427045546,0.71306115,8.953942,4.254439,0.0,0.0,0.0
20926429424504,0.80877405,8.963513,4.2161536,0.0,0.0,0.0
20926431803462,0.89013004,8.973084,4.1491547,0.0,0.0,0.0
20926434182421,0.9762716,8.997013,4.082155,0.0,0.0,0.0
20926436561379,1.0289137,8.997013,4.0438704,0.0,0.0,0.0
20926438940337,1.0671989,8.987442,4.063013,0.0,0.0,0.0
20926441319348,1.1533405,9.01137,4.1108694,0.0,0.0,0.0
20926443698306,1.1820544,9.044869,4.130012,0.0,0.0,0.0
20926446077264,1.1916257,9.016156,4.091727,0.0,0.0,0.0
20926448456223,1.18684,8.9826565,4.034299,0.0,0.0,0.0
20926450835181,1.18684,8.973084,4.024728,0.0,0.0,0.0
20926453214139,1.134198,8.9348,4.0007997,0.0,0.0,0.0
20926455593098,1.0671989,8.891729,4.019942,0.0,0.0,0.0
20926457972056,0.9810573,8.920443,4.0534415,0.0,0.0,0.0
20926460351014,0.89013004,8.939586,4.091727,0.0,0.0,0.0
20926462729973,0.76570326,8.843872,4.048656,0.0,0.0,0.0
20926465108983,0.66999036,8.853444,4.063013,0.0,0.0,0.0
20926467487941,0.57427746,8.85823,4.101298,0.0,0.0,0.0
20926469866900,0.51206404,8.839087,4.106084,0.0,0.0,0.0
20926472245858,0.44506502,8.829515,4.139583,0.0,0.0,0.0
20926474624816,0.3589234,8.882157,4.15394,0.0,0.0,0.0
20926477003775,0.32063824,8.896515,4.168297,0.0,0.0,0.0
20926479382733,0.3062813,8.886943,4.168297,0.0,0.0,0.0
20926481761743,0.29192436,8.85823,4.1443686,0.0,0.0,0.0
20926484140702,0.31585258,8.85823,4.168297,0.0,0.0,0.0
20926486519660,0.37806597,8.872586,4.15394,0.0,0.0,0.0
20926488898618,0.43070808,8.9108715,4.1204405,0.0,0.0,0.0
20926491277577,0.49292147,8.925228,4.082155,0.0,0.0,0.0
20926493656535,0.5694918,8.9348,4.091727,0.0,0.0,0.0
20926496035493,0.66041905,8.949157,4.082155,0.0,0.0,0.0
20926498414452,0.7609176,8.992228,4.1108694,0.0,0.0,0.0
20926500793410,0.80877405,8.987442,4.1347976,0.0,0.0,0.0
20926503172368,0.8470592,9.035298,4.0965123,0.0,0.0,0.0
20926505551379,0.89013004,9.044869,4.024728,0.0,0.0,0.0
20926507930337,0.8997013,8.987442,3.938586,0.0,0.0,0.0
20926510309296,0.90448695,9.020942,3.9625144,0.0,0.0,0.0
20926512688254,0.8422736,9.040084,4.048656,0.0,0.0,0.0
20926515067212,0.8662018,8.9826565,4.106084,0.0,0.0,0.0
20926517446171,0.7752745,8.992228,4.139583,0.0,0.0,0.0
20926519825129,0.5599205,9.068798,4.063013,0.0,0.0,0.0
20926522204087,0.4977071,9.044869,3.9864426,0.0,0.0,0.0
20926524583098,0.3924229,9.006584,3.9673,0.0,0.0,0.0
20926526962056,0.2536392,8.997013,4.0534415,0.0,0.0,0.0
20926529341014,0.124426775,8.953942,4.1874394,0.0,0.0,0.0
20926531719973,0.17706887,8.930014,4.249653,0.0,0.0,0.0
20926534098931,0.16749759,8.992228,4.254439,0.0,0.0,0.0
20926536477889,0.15314065,8.939586,4.2017965,0.0,0.0,0.0
20926538856848,0.22971097,8.949157,4.182654,0.0,0.0,0.0
20926541235806,0.33499518,8.977871,4.220939,0.0,0.0,0.0
20926543614816,0.3924229,8.977871,4.302295,0.0,0.0,0.0
20926545993775,0.4019942,8.915657,4.3740797,0.0,0.0,0.0
20926548372733,0.4977071,8.886943,4.412365,0.0,0.0,0.0
20926550751691,0.5455636,8.85823,4.3740797,0.0,0.0,0.0
20926553130598,0.5599205,8.796016,4.345366,0.0,0.0,0.0
20926555509608,0.60777694,8.815159,4.316652,0.0,0.0,0.0
20926557888566,0.67477596,8.819944,4.2927237,0.0,0.0,0.0
20926560267525,0.6987042,8.848659,4.2975097,0.0,0.0,0.0
20926562646535,0.6891329,8.896515,4.2927237,0.0,0.0,0.0
20926565025493,0.6987042,8.863015,4.2448673,0.0,0.0,0.0
20926567404452,0.7178468,8.896515,4.2257247,0.0,0.0,0.0
20926569783410,0.6843473,8.915657,4.173083,0.0,0.0,0.0
20926572162368,0.6364908,8.896515,4.0869412,0.0,0.0,0.0
20926574541327,0.60777694,8.920443,4.019942,0.0,0.0,0.0
20926576920285,0.5694918,8.896515,3.9481573,0.0,0.0,0.0
20926579299243,0.4546363,8.886943,3.952943,0.0,0.0,0.0
20926581678202,0.37328035,8.867801,4.0151563,0.0,0.0,0.0
20926584057160,0.32542387,8.819944,4.0677986,0.0,0.0,0.0
20926586436171,0.31585258,8.79123,4.1108694,0.0,0.0,0.0
20926588815129,0.22971097,8.781659,4.0677986,0.0,0.0,0.0
20926591194087,0.19621146,8.786445,4.005585,0.0,0.0,0.0
20926593573046,0.16271193,8.800801,3.9338005,0.0,0.0,0.0
20926595952004,0.18185452,8.848659,3.9481573,0.0,0.0,0.0
20926598330962,0.11006984,8.882157,4.005585,0.0,0.0,0.0
20926600709921,0.06699903,8.891729,4.048656,0.0,0.0,0.0
20926603088931,0.047856454,8.9826565,4.082155,0.0,0.0,0.0
20926605467889,0.043070808,9.049655,4.091727,0.0,0.0,0.0
20926607846848,0.014356935,9.030513,4.0677986,0.0,0.0,0.0
20926610225806,0.019142581,9.073584,4.063013,0.0,0.0,0.0
20926612604764,-0.009571291,9.135797,4.125226,0.0,0.0,0.0
20926614983723,0.0,9.030513,4.1778684,0.0,0.0,0.0
20926617362681,0.023928227,9.016156,4.249653,0.0,0.0,0.0
20926619741639,0.038285162,9.044869,4.2687955,0.0,0.0,0.0
20926622120598,0.033499517,9.035298,4.2975097,0.0,0.0,0.0
20926624499556,0.023928227,9.006584,4.2831526,0.0,0.0,0.0
20926626878566,0.08135597,9.092726,4.321438,0.0,0.0,0.0
20926629257525,0.13399807,9.049655,4.2975097,0.0,0.0,0.0
20926631636483,0.17228323,9.030513,4.278367,0.0,0.0,0.0
20926634015441,0.20578274,9.020942,4.254439,0.0,0.0,0.0
20926636394400,0.28713873,8.9826565,4.2352962,0.0,0.0,0.0
20926638773358,0.4211368,8.973084,4.1587257,0.0,0.0,0.0
20926641152316,0.4881358,9.020942,4.115655,0.0,0.0,0.0
20926643531275,0.5599205,8.958728,4.0438704,0.0,0.0,0.0
20926645910285,0.6269195,8.944371,4.024728,0.0,0.0,0.0
20926648289243,0.7178468,8.944371,4.0295134,0.0,0.0,0.0
20926650668202,0.7513463,8.85823,4.0677986,0.0,0.0,0.0
20926653047160,0.81834537,8.85823,4.091727,0.0,0.0,0.0
20926655426118,0.7513463,8.939586,4.115655,0.0,0.0,0.0
20926657805077,0.75613195,8.920443,4.115655,0.0,0.0,0.0
20926660184035,0.6891329,8.9108715,4.115655,0.0,0.0,0.0
20926662562993,0.66999036,8.925228,4.1204405,0.0,0.0,0.0
20926664942004,0.526421,8.977871,4.1587257,0.0,0.0,0.0
20926667320962,0.44027936,8.925228,4.1874394,0.0,0.0,0.0
20926669699921,0.3924229,8.953942,4.206582,0.0,0.0,0.0
20926672078879,0.2632105,9.020942,4.1778684,0.0,0.0,0.0
20926674457837,0.16749759,8.9348,4.0869412,0.0,0.0,0.0
20926676836796,0.07178468,8.953942,4.0965123,0.0,0.0,0.0
20926679215754,-0.023928227,9.001799,4.082155,0.0,0.0,0.0
20926681594712,-0.09092726,8.949157,4.0965123,0.0,0.0,0.0
20926683973671,-0.11485548,8.877372,4.1108694,0.0,0.0,0.0
20926686352681,-0.16749759,8.930014,4.1204405,0.0,0.0,0.0
20926688731639,-0.25842485,8.987442,4.072584,0.0,0.0,0.0
20926691110598,-0.2536392,8.925228,4.048656,0.0,0.0,0.0
20926693489556,-0.17706887,8.886943,4.0677986,0.0,0.0,0.0
20926695868514,-0.18185452,8.968299,4.106084,0.0,0.0,0.0
20926698247473,-0.148355,8.977871,4.1491547,0.0,0.0,0.0
20926700626431,-0.062213387,8.9348,4.1108694,0.0,0.0,0.0
20926703005389,0.047856454,8.987442,4.0869412,0.0,0.0,0.0
20926705384348,0.14356937,8.992228,4.0390844,0.0,0.0,0.0
20926707763358,0.28713873,8.953942,4.0390844,0.0,0.0,0.0
20926710142316,0.38285163,9.001799,4.101298,0.0,0.0,0.0
20926712521275,0.45942193,9.01137,4.1443686,0.0,0.0,0.0
20926714900233,0.5407779,8.963513,4.168297,0.0,0.0,0.0
20926717279191,0.57906306,8.944371,4.2017965,0.0,0.0,0.0
20926719658150,0.6412765,8.968299,4.2352962,0.0,0.0,0.0
20926722037108,0.66041905,8.915657,4.23051,0.0,0.0,0.0
20926724416066,0.72741807,8.920443,4.26401,0.0,0.0,0.0
20926726795077,0.7322037,8.9108715,4.2161536,0.0,0.0,0.0
20926729174035,0.6987042,8.953942,4.2257247,0.0,0.0,0.0
20926731552993,0.66999036,8.853444,4.197011,0.0,0.0,0.0
20926733931952,0.76570326,8.82473,4.2592244,0.0,0.0,0.0
20926736310910,0.7322037,8.886943,4.278367,0.0,0.0,0.0
20926738689868,0.7369894,8.9013,4.302295,0.0,0.0,0.0
20926741068827,0.79920274,8.815159,4.26401,0.0,0.0,0.0
20926743447733,0.91405827,8.906086,4.2975097,0.0,0.0,0.0
20926745826743,0.95712906,8.882157,4.2352962,0.0,0.0,0.0
20926748205754,1.0289137,8.85823,4.254439,0.0,0.0,0.0
20926750584712,1.1676974,8.863015,4.2831526,0.0,0.0,0.0
20926752963671,1.282553,8.915657,4.316652,0.0,0.0,0.0
20926755342629,1.4069797,8.886943,4.2975097,0.0,0.0,0.0
20926757721587,1.5266209,8.872586,4.287938,0.0,0.0,0.0
20926760100493,1.6510476,8.886943,4.2352962,0.0,0.0,0.0
20926762479504,1.7084754,8.925228,4.1778684,0.0,0.0,0.0
20926764858514,1.7994026,8.896515,4.173083,0.0,0.0,0.0
20926767237473,1.8951155,9.01137,4.211368,0.0,0.0,0.0
20926769616431,1.8568304,8.9013,4.2448673,0.0,0.0,0.0
20926771995389,1.8089739,8.843872,4.2927237,0.0,0.0,0.0
20926774374296,1.5266209,8.886943,4.220939,0.0,0.0,0.0
20926776753306,1.3208381,8.953942,4.1587257,0.0,0.0,0.0
20926779132264,1.0863415,8.877372,4.1204405,0.0,0.0,0.0
20926781511223,0.7178468,8.930014,4.15394,0.0,0.0,0.0
20926783890181,0.39720857,8.930014,4.240082,0.0,0.0,0.0
20926786269191,0.2009971,8.939586,4.3740797,0.0,0.0,0.0
20926788648150,0.023928227,8.920443,4.412365,0.0,0.0,0.0
20926791027108,-0.148355,8.930014,4.3405805,0.0,0.0,0.0
20926793406066,-0.2105684,8.930014,4.302295,0.0,0.0,0.0
20926795785025,-0.11006984,8.9348,4.2448673,0.0,0.0,0.0
20926798163983,-0.13399807,8.930014,4.2161536,0.0,0.0,0.0
20926800542941,0.02871387,8.920443,4.240082,0.0,0.0,0.0
20926802921900,0.16749759,8.953942,4.3405805,0.0,0.0,0.0
20926805300858,0.32542387,8.891729,4.426722,0.0,0.0,0.0
20926807679868,0.35413775,8.853444,4.4458647,0.0,0.0,0.0
20926810058827,0.36370903,8.896515,4.4841495,0.0,0.0,0.0
20926812437785,0.40677986,8.930014,4.503292,0.0,0.0,0.0
20926814816743,0.15314065,8.9348,4.508078,0.0,0.0,0.0
20926817195702,0.009571291,8.925228,4.5224347,0.0,0.0,0.0
20926819574660,-0.124426775,8.915657,4.575077,0.0,0.0,0.0
20926821953618,-0.20578274,8.882157,4.613362,0.0,0.0,0.0
20926824332577,-0.30149564,8.85823,4.5942197,0.0,0.0,0.0
20926826711587,-0.23449662,8.863015,4.503292,0.0,0.0,0.0
20926829090546,-0.14356937,8.882157,4.402794,0.0,0.0,0.0
20926831469504,-0.023928227,8.863015,4.254439,0.0,0.0,0.0
20926833848462,0.15314065,8.848659,4.168297,0.0,0.0,0.0
20926836227421,0.38285163,8.920443,4.1874394,0.0,0.0,0.0
20926838606379,0.5312066,8.906086,4.1922255,0.0,0.0,0.0
20926840985337,0.6412765,8.886943,4.2257247,0.0,0.0,0.0
20926843364296,0.72741807,8.896515,4.2831526,0.0,0.0,0.0
20926845743254,0.76570326,8.872586,4.273581,0.0,0.0,0.0
20926848122264,0.79441714,8.863015,4.2352962,0.0,0.0,0.0
20926850501223,0.7513463,8.863015,4.26401,0.0,0.0,0.0
20926852880181,0.7465607,8.848659,4.240082,0.0,0.0,0.0
20926855259139,0.7322037,8.872586,4.254439,0.0,0.0,0.0
20926857638098,0.66999036,8.863015,4.2687955,0.0,0.0,0.0
20926860017056,0.5694918,8.863015,4.26401,0.0,0.0,0.0
20926862396014,0.47377887,8.843872,4.2161536,0.0,0.0,0.0
20926864774973,0.38763726,8.891729,4.197011,0.0,0.0,0.0
20926867153931,0.32542387,8.9013,4.15394,0.0,0.0,0.0
20926869532941,0.23449662,8.906086,4.130012,0.0,0.0,0.0
20926871911900,0.21535404,8.9826565,4.1108694,0.0,0.0,0.0
20926874290858,0.20578274,9.049655,4.139583,0.0,0.0,0.0
20926876669816,0.18185452,9.078369,4.173083,0.0,0.0,0.0
20926879048775,0.2105684,9.044869,4.115655,0.0,0.0,0.0
20926881427733,0.2727818,9.08794,4.115655,0.0,0.0,0.0
20926883806691,0.3493521,9.078369,4.101298,0.0,0.0,0.0
20926886185650,0.44027936,8.992228,4.072584,0.0,0.0,0.0
20926888564660,0.55513483,8.9826565,4.072584,0.0,0.0,0.0
20926890943618,0.57906306,8.958728,4.0773697,0.0,0.0,0.0
20926893322577,0.6891329,8.867801,4.048656,0.0,0.0,0.0
20926895701535,0.7513463,8.781659,4.024728,0.0,0.0,0.0
20926898080493,0.7896315,8.772088,4.0534415,0.0,0.0,0.0
20926900459452,0.7800602,8.690732,4.058227,0.0,0.0,0.0
20926902838410,0.75613195,8.729017,4.072584,0.0,0.0,0.0
20926905217368,0.7178468,8.719446,4.048656,0.0,0.0,0.0
20926907596379,0.66999036,8.748159,4.0534415,0.0,0.0,0.0
20926909975337,0.67477596,8.810373,4.082155,0.0,0.0,0.0
20926912354296,0.6221339,8.867801,4.082155,0.0,0.0,0.0
20926914733254,0.5694918,8.872586,4.0869412,0.0,0.0,0.0
20926917112212,0.49292147,8.853444,4.130012,0.0,0.0,0.0
20926919491171,0.4881358,8.915657,4.173083,0.0,0.0,0.0
20926921870129,0.4546363,9.01137,4.2017965,0.0,0.0,0.0
20926924249087,0.36370903,8.963513,4.182654,0.0,0.0,0.0
20926926628046,0.33020952,8.958728,4.182654,0.0,0.0,0.0
20926929007056,0.3397808,8.963513,4.240082,0.0,0.0,0.0
20926931386014,0.38285163,8.872586,4.254439,0.0,0.0,0.0
20926933764973,0.44027936,8.79123,4.2927237,0.0,0.0,0.0
20926936143931,0.4977071,8.79123,4.3118663,0.0,0.0,0.0
20926938522889,0.5694918,8.748159,4.254439,0.0,0.0,0.0
20926940901848,0.65084773,8.729017,4.182654,0.0,0.0,0.0
20926943280806,0.7369894,8.729017,4.2017965,0.0,0.0,0.0
20926945659764,0.7752745,8.748159,4.197011,0.0,0.0,0.0
20926948038723,0.79441714,8.743374,4.2017965,0.0,0.0,0.0
20926950417733,0.79441714,8.7673025,4.2017965,0.0,0.0,0.0
20926952796691,0.7800602,8.781659,4.1874394,0.0,0.0,0.0
20926955175650,0.79441714,8.800801,4.15394,0.0,0.0,0.0
20926957554608,0.7609176,8.843872,4.106084,0.0,0.0,0.0
20926959933566,0.6556334,8.848659,4.0869412,0.0,0.0,0.0
20926962312525,0.60777694,8.819944,4.072584,0.0,0.0,0.0
20926964691483,0.61734825,8.853444,4.0773697,0.0,0.0,0.0
20926967070441,0.59342,8.882157,4.115655,0.0,0.0,0.0
20926969449400,0.5694918,8.882157,4.091727,0.0,0.0,0.0
20926971828410,0.6029913,8.9108715,4.0677986,0.0,0.0,0.0
20926974207368,0.67477596,8.963513,4.0438704,0.0,0.0,0.0
20926976586327,0.74177504,8.9826565,3.9960139,0.0,0.0,0.0
20926978965285,0.7800602,8.968299,3.9625144,0.0,0.0,0.0
20926981344243,0.8422736,8.987442,3.9673,0.0,0.0,0.0
20926983723202,0.91884387,9.020942,3.991228,0.0,0.0,0.0
20926986102160,0.9667004,9.040084,3.9864426,0.0,0.0,0.0
20926988481118,0.971486,9.001799,3.9816568,0.0,0.0,0.0
20926990860129,0.95712906,9.025727,3.9673,0.0,0.0,0.0
20926993239087,0.9236295,9.0544405,3.9816568,0.0,0.0,0.0
20926995618046,0.8327023,9.059227,4.0295134,0.0,0.0,0.0
20926997997004,0.6987042,9.068798,4.091727,0.0,0.0,0.0
20927000375962,0.55513483,9.068798,4.125226,0.0,0.0,0.0
20927002754921,0.3589234,9.059227,4.168297,0.0,0.0,0.0
20927005133879,0.15314065,9.0544405,4.2161536,0.0,0.0,0.0
20927007512837,-0.019142581,8.992228,4.2352962,0.0,0.0,0.0
20927009891848,-0.13399807,8.9826565,4.26401,0.0,0.0,0.0
20927012270806,-0.30149564,9.006584,4.316652,0.0,0.0,0.0
20927014649764,-0.39720857,8.968299,4.3118663,0.0,0.0,0.0
20927017028723,-0.42592242,8.963513,4.3118663,0.0,0.0,0.0
20927019407681,-0.4354937,8.977871,4.2927237,0.0,0.0,0.0
20927021786639,-0.43070808,8.958728,4.278367,0.0,0.0,0.0
20927024165598,-0.44506502,8.958728,4.26401,0.0,0.0,0.0
20927026544556,-0.38763726,8.992228,4.249653,0.0,0.0,0.0
20927028923514,-0.35413775,9.006584,4.2352962,0.0,0.0,0.0
20927031302473,-0.31585258,9.006584,4.249653,0.0,0.0,0.0
20927033681483,-0.3062813,9.025727,4.2448673,0.0,0.0,0.0
20927036060441,-0.29671,9.073584,4.2257247,0.0,0.0,0.0
20927038439400,-0.29671,9.102298,4.211368,0.0,0.0,0.0
20927040818358,-0.33020952,9.164511,4.2017965,0.0,0.0,0.0
20927043197316,-0.36370903,9.250652,4.2017965,0.0,0.0,0.0
20927045576275,-0.40677986,9.3511505,4.2161536,0.0,0.0,0.0
20927047955233,-0.44985065,9.317652,4.1778684,0.0,0.0,0.0
20927050334243,-0.4977071,9.303294,4.197011,0.0,0.0,0.0
20927052713202,-0.5455636,9.250652,4.2161536,0.0,0.0,0.0
20927055092160,-0.57906306,9.15494,4.2257247,0.0,0.0,0.0
20927057471118,-0.63170516,9.08794,4.2017965,0.0,0.0,0.0
20927059850077,-0.71306115,9.0544405,4.182654,0.0,0.0,0.0
20927062229035,-0.7609176,9.030513,4.1347976,0.0,0.0,0.0
20927064607993,-0.7896315,8.997013,4.1204405,0.0,0.0,0.0
20927066986952,-0.8327023,8.958728,4.1491547,0.0,0.0,0.0
20927069365910,-0.89013004,8.930014,4.15394,0.0,0.0,0.0
20927071744921,-0.8853444,8.997013,4.139583,0.0,0.0,0.0
20927074123879,-0.86141616,9.068798,4.0773697,0.0,0.0,0.0
20927076502837,-0.81834537,9.164511,4.005585,0.0,0.0,0.0
20927078881796,-0.7369894,9.126225,3.8763726,0.0,0.0,0.0
20927081260754,-0.66041905,9.183653,3.8333018,0.0,0.0,0.0
20927083639660,-0.5886344,9.164511,3.7998023,0.0,0.0,0.0
20927086018671,-0.41635114,9.135797,3.8333018,0.0,0.0,0.0
20927088397629,-0.22971097,9.116654,3.900301,0.0,0.0,0.0
20927090776587,-0.12921242,9.083155,3.9050865,0.0,0.0,0.0
20927093155598,0.019142581,9.116654,3.9481573,0.0,0.0,0.0
20927095534556,0.20578274,9.107083,4.005585,0.0,0.0,0.0
20927097913514,0.3397808,9.111869,4.034299,0.0,0.0,0.0
20927100292473,0.5168497,9.135797,4.091727,0.0,0.0,0.0
20927102671431,0.7082755,9.15494,4.2257247,0.0,0.0,0.0
20927105050389,0.8279166,9.12144,4.2448673,0.0,0.0,0.0
20927107429348,1.0049855,9.178867,4.182654,0.0,0.0,0.0
20927109808306,1.2203395,9.217153,4.0869412,0.0,0.0,0.0
20927112187264,1.3399807,9.236296,4.019942,0.0,0.0,0.0
20927114566275,1.3016955,9.217153,3.9864426,0.0,0.0,0.0
20927116945233,1.3016955,9.250652,4.024728,0.0,0.0,0.0
20927119324191,1.2873386,9.269794,4.082155,0.0,0.0,0.0
20927121703150,1.038485,9.178867,4.1108694,0.0,0.0,0.0
20927124082108,0.81834537,9.12144,4.1874394,0.0,0.0,0.0
20927126461066,0.5886344,9.049655,4.2257247,0.0,0.0,0.0
20927128840025,0.38763726,8.958728,4.249653,0.0,0.0,0.0
20927131218983,0.18185452,8.877372,4.2352962,0.0,0.0,0.0
20927133597993,-0.043070808,8.85823,4.206582,0.0,0.0,0.0
20927135976952,-0.11485548,8.839087,4.197011,0.0,0.0,0.0
20927138355910,-0.23928227,8.786445,4.139583,0.0,0.0,0.0
20927140734868,-0.28713873,8.748159,3.9960139,0.0,0.0,0.0
20927143113827,-0.29192436,8.752945,4.0007997,0.0,0.0,0.0
20927145492785,-0.23928227,8.724232,3.9625144,0.0,0.0,0.0
20927147871743,-0.4642076,8.781659,3.9433718,0.0,0.0,0.0
20927150250702,-0.42592242,8.79123,3.9433718,0.0,0.0,0.0
20927152629660,-0.5312066,8.82473,3.9768713,0.0,0.0,0.0
20927155008671,-0.72263247,8.867801,3.9673,0.0,0.0,0.0
20927157387629,-0.86141616,8.863015,3.9577286,0.0,0.0,0.0
20927159766587,-0.8757731,8.839087,4.019942,0.0,0.0,0.0
20927162145546,-0.90448695,8.805588,4.034299,0.0,0.0,0.0
20927164524504,-0.91405827,8.810373,4.034299,0.0,0.0,0.0
20927166903410,-0.7704889,8.82473,4.034299,0.0,0.0,0.0
20927169282421,-0.6412765,8.815159,3.9720855,0.0,0.0,0.0
20927171661379,-0.4642076,8.729017,3.885944,0.0,0.0,0.0
20927174040389,-0.27756742,8.705089,3.8620157,0.0,0.0,0.0
20927176419348,-0.15792629,8.700303,3.8668015,0.0,0.0,0.0
20927178798306,-0.13878371,8.685946,3.885944,0.0,0.0,0.0
20927181177264,-0.12921242,8.647661,3.9338005,0.0,0.0,0.0
20927183556223,-0.09571291,8.618947,4.034299,0.0,0.0,0.0
20927185935181,-0.16749759,8.6141615,4.0677986,0.0,0.0,0.0
20927188314139,-0.29671,8.633304,4.1108694,0.0,0.0,0.0
20927190693098,-0.3589234,8.662018,4.130012,0.0,0.0,0.0
20927193072056,-0.42592242,8.676374,4.197011,0.0,0.0,0.0
20927195451066,-0.4977071,8.681161,4.254439,0.0,0.0,0.0
20927197830025,-0.5886344,8.719446,4.3357944,0.0,0.0,0.0
20927200208983,-0.64606214,8.748159,4.398008,0.0,0.0,0.0
20927202587941,-0.72741807,8.7577305,4.412365,0.0,0.0,0.0
20927204966900,-0.7896315,8.743374,4.3836513,0.0,0.0,0.0
20927207345858,-0.8327023,8.752945,4.398008,0.0,0.0,0.0
20927209724816,-0.86141616,8.772088,4.4554358,0.0,0.0,0.0
20927212103775,-0.90448695,8.776874,4.493721,0.0,0.0,0.0
20927214482733,-0.94755775,8.843872,4.584648,0.0,0.0,0.0
20927216861743,-0.89491564,8.906086,4.6803613,0.0,0.0,0.0
20927219240702,-0.89013004,8.9348,4.6899323,0.0,0.0,0.0
20927221619660,-0.89013004,8.939586,4.666004,0.0,0.0,0.0
20927223998618,-0.8422736,8.973084,4.6755753,0.0,0.0,0.0
20927226377577,-0.80877405,8.963513,4.790431,0.0,0.0,0.0
20927228756535,-0.71306115,8.85823,4.752146,0.0,0.0,0.0
20927231135493,-0.76570326,8.997013,4.8382874,0.0,0.0,0.0
20927233514452,-0.4642076,8.973084,4.85743,0.0,0.0,0.0
20927235893462,-0.34456646,8.963513,4.7425747,0.0,0.0,0.0
20927238272421,-0.10049855,8.9826565,4.546363,0.0,0.0,0.0
20927240651379,0.23449662,8.992228,4.436293,0.0,0.0,0.0
20927243030337,0.40677986,8.973084,4.402794,0.0,0.0,0.0
20927245409296,0.47377887,8.968299,4.3118663,0.0,0.0,0.0
20927247788254,0.526421,9.064013,4.278367,0.0,0.0,0.0
20927250167212,0.5024927,9.0544405,4.254439,0.0,0.0,0.0
20927252546171,0.2727818,8.977871,4.1922255,0.0,0.0,0.0
20927254925129,0.07178468,9.020942,4.106084,0.0,0.0,0.0
20927257304139,-0.20578274,9.12144,4.058227,0.0,0.0,0.0
20927259683098,-0.4977071,9.025727,3.9481573,0.0,0.0,0.0
20927262062056,-0.7369894,8.953942,3.8620157,0.0,0.0,0.0
20927264441014,-0.8566305,9.020942,3.8237305,0.0,0.0,0.0
20927266819973,-0.9906286,9.0544405,3.8093736,0.0,0.0,0.0
20927269198931,-1.0576276,9.020942,3.7710886,0.0,0.0,0.0
20927271577889,-1.0432707,9.064013,3.7710886,0.0,0.0,0.0
20927273956848,-0.9762716,9.097511,3.7184465,0.0,0.0,0.0
20927276335858,-0.971486,9.135797,3.6993039,0.0,0.0,0.0
20927278714816,-0.9092726,9.164511,3.7088752,0.0,0.0,0.0
20927281093775,-0.7609176,9.221938,3.7710886,0.0,0.0,0.0
20927283472733,-0.57427746,9.202796,3.8093736,0.0,0.0,0.0
20927285851691,-0.4211368,9.226724,3.8907297,0.0,0.0,0.0
20927288230650,-0.2727818,9.236296,3.9673,0.0,0.0,0.0
20927290609608,-0.043070808,9.221938,4.0151563,0.0,0.0,0.0
20927292988566,0.19142582,9.164511,4.0677986,0.0,0.0,0.0
20927295367525,0.3924229,9.097511,4.091727,0.0,0.0,0.0
20927297746535,0.5407779,9.0544405,4.1443686,0.0,0.0,0.0
20927300125441,0.66999036,8.997013,4.168297,0.0,0.0,0.0
20927302504452,0.7369894,8.9826565,4.206582,0.0,0.0,0.0
20927304883410,0.7465607,8.906086,4.220939,0.0,0.0,0.0
20927307262368,0.65084773,8.85823,4.220939,0.0,0.0,0.0
20927309641327,0.49292147,8.810373,4.240082,0.0,0.0,0.0
20927312020233,0.29671,8.776874,4.240082,0.0,0.0,0.0
20927314399243,0.07178468,8.748159,4.2592244,0.0,0.0,0.0
20927316778254,-0.09571291,8.729017,4.287938,0.0,0.0,0.0
20927319157212,-0.2536392,8.700303,4.3070807,0.0,0.0,0.0
20927321536171,-0.43070808,8.681161,4.3262234,0.0,0.0,0.0
20927323915129,-0.5599205,8.647661,4.3740797,0.0,0.0,0.0
20927326294087,-0.6269195,8.642876,4.3788652,0.0,0.0,0.0
20927328673046,-0.67477596,8.609376,4.398008,0.0,0.0,0.0
20927331052004,-0.6652047,8.6141615,4.3932223,0.0,0.0,0.0
20927333430962,-0.6221339,8.585447,4.388437,0.0,0.0,0.0
20927335809921,-0.4977071,8.6141615,4.3740797,0.0,0.0,0.0
20927338188931,-0.3493521,8.628518,4.2927237,0.0,0.0,0.0
20927340567889,-0.26799613,8.652447,4.240082,0.0,0.0,0.0
20927342946848,-0.09092726,8.6141615,4.1874394,0.0,0.0,0.0
20927345325806,-0.062213387,8.623733,4.1587257,0.0,0.0,0.0
20927347704764,-0.076570325,8.666803,4.173083,0.0,0.0,0.0
20927350083723,-0.124426775,8.666803,4.211368,0.0,0.0,0.0
20927352462681,-0.28235307,8.681161,4.254439,0.0,0.0,0.0
20927354841639,-0.52163535,8.743374,4.23051,0.0,0.0,0.0
20927357220650,-0.71306115,8.781659,4.2352962,0.0,0.0,0.0
20927359599608,-0.8757731,8.805588,4.273581,0.0,0.0,0.0
20927361978566,-1.038485,8.848659,4.2831526,0.0,0.0,0.0
20927364357525,-1.0863415,8.9108715,4.2927237,0.0,0.0,0.0
20927366736483,-1.134198,8.953942,4.2975097,0.0,0.0,0.0
20927369115441,-1.1389836,9.049655,4.3070807,0.0,0.0,0.0
20927371494400,-1.1533405,9.202796,4.3405805,0.0,0.0,0.0
20927373873358,-1.1006985,9.288938,4.278367,0.0,0.0,0.0
20927376252316,-1.1485549,9.288938,4.2257247,0.0,0.0,0.0
20927378631327,-1.2155539,9.336794,4.316652,0.0,0.0,0.0
20927381010285,-1.2107682,9.250652,4.354937,0.0,0.0,0.0
20927383389243,-1.1533405,9.221938,4.421936,0.0,0.0,0.0
20927385768202,-1.2299109,9.212367,4.4985065,0.0,0.0,0.0
20927388147160,-1.3160524,9.150154,4.465007,0.0,0.0,0.0
20927390526118,-1.2634103,9.135797,4.4315076,0.0,0.0,0.0
20927392905077,-1.2059826,9.169296,4.4745784,0.0,0.0,0.0
20927395284035,-1.1485549,9.040084,4.5128636,0.0,0.0,0.0
20927397663046,-1.0480564,9.01137,4.575077,0.0,0.0,0.0
20927400042004,-0.8853444,9.068798,4.584648,0.0,0.0,0.0
20927402420962,-0.7848458,9.107083,4.5224347,0.0,0.0,0.0
20927404799921,-0.7082755,9.107083,4.421936,0.0,0.0,0.0
20927407178879,-0.5694918,9.188439,4.316652,0.0,0.0,0.0
20927409557837,-0.55034924,9.303294,4.197011,0.0,0.0,0.0
20927411936796,-0.6125626,9.365508,4.173083,0.0,0.0,0.0
20927414315754,-0.66041905,9.327223,4.240082,0.0,0.0,0.0
20927416694712,-0.61734825,9.274581,4.249653,0.0,0.0,0.0
20927419073671,-0.79441714,9.303294,4.287938,0.0,0.0,0.0
20927421452681,-0.94755775,9.241081,4.278367,0.0,0.0,0.0
20927423831639,-1.119841,9.221938,4.4075794,0.0,0.0,0.0
20927426210598,-1.2059826,9.145369,4.3836513,0.0,0.0,0.0
20927428589556,-1.579263,9.217153,4.3836513,0.0,0.0,0.0
20927430968514,-1.5457634,9.19801,4.4602213,0.0,0.0,0.0
20927433347473,-1.4261223,9.073584,4.426722,0.0,0.0,0.0
20927435726431,-1.4644074,9.111869,4.3118663,0.0,0.0,0.0
20927438105389,-1.1485549,9.140582,4.15394,0.0,0.0,0.0
20927440484348,-0.82313097,9.064013,4.034299,0.0,0.0,0.0
20927442863358,-0.6221339,9.016156,3.8572302,0.0,0.0,0.0
20927445242316,-0.5838487,9.111869,3.7615173,0.0,0.0,0.0
20927447621275,-0.28235307,9.12144,3.804588,0.0,0.0,0.0
20927450000233,-0.21535404,9.01137,3.900301,0.0,0.0,0.0
20927452379191,-0.24885355,8.992228,3.938586,0.0,0.0,0.0
20927454758150,-0.21535404,9.006584,4.0151563,0.0,0.0,0.0
20927457137108,-0.21535404,8.963513,4.058227,0.0,0.0,0.0
20927459516066,-0.37328035,8.915657,3.991228,0.0,0.0,0.0
20927461895077,-0.39720857,8.896515,3.952943,0.0,0.0,0.0
20927464274035,-0.29671,8.896515,3.9816568,0.0,0.0,0.0
20927466652993,-0.37328035,8.853444,3.991228,0.0,0.0,0.0
20927469031952,-0.4642076,8.805588,3.9720855,0.0,0.0,0.0
20927471410910,-0.3924229,8.79123,3.9577286,0.0,0.0,0.0
20927473789868,-0.39720857,8.796016,3.8811584,0.0,0.0,0.0
20927476168827,-0.51206404,8.79123,3.790231,0.0,0.0,0.0
20927478547785,-0.55034924,8.796016,3.7088752,0.0,0.0,0.0
20927480926796,-0.53599226,8.829515,3.6753755,0.0,0.0,0.0
20927483305754,-0.5407779,8.839087,3.6514473,0.0,0.0,0.0
20927485684712,-0.5838487,8.829515,3.6801612,0.0,0.0,0.0
20927488063671,-0.5168497,8.800801,3.7423747,0.0,0.0,0.0
20927490442629,-0.46899325,8.79123,3.7950168,0.0,0.0,0.0
20927492821587,-0.3589234,8.7577305,3.7615173,0.0,0.0,0.0
20927495200546,-0.23449662,8.695518,3.737589,0.0,0.0,0.0
20927497579504,-0.15314065,8.633304,3.737589,0.0,0.0,0.0
20927499958462,-0.1052842,8.609376,3.7615173,0.0,0.0,0.0
20927502337473,-0.09092726,8.52802,3.818945,0.0,0.0,0.0
20927504716431,-0.1052842,8.465807,3.9290147,0.0,0.0,0.0
20927507095389,-0.17228323,8.422736,4.0007997,0.0,0.0,0.0
20927509474348,-0.24885355,8.437093,4.019942,0.0,0.0,0.0
20927511853306,-0.37328035,8.41795,4.019942,0.0,0.0,0.0
20927514232264,-0.4977071,8.398808,4.0103707,0.0,0.0,0.0
20927516611223,-0.65084773,8.403593,3.9960139,0.0,0.0,0.0
20927518990181,-0.7465607,8.413164,4.0007997,0.0,0.0,0.0
20927521369139,-0.8853444,8.394022,4.0295134,0.0,0.0,0.0
20927523748098,-1.0480564,8.365308,4.0677986,0.0,0.0,0.0
20927526127108,-1.1676974,8.360522,4.082155,0.0,0.0,0.0
20927528506066,-1.3064811,8.374879,4.091727,0.0,0.0,0.0
20927530885025,-1.4644074,8.355737,4.0773697,0.0,0.0,0.0
20927533263983,-1.6462619,8.336594,4.082155,0.0,0.0,0.0
20927535642941,-1.7419748,8.355737,4.130012,0.0,0.0,0.0
20927538021900,-1.8711873,8.350951,4.1874394,0.0,0.0,0.0
20927540400858,-2.024328,8.346166,4.249653,0.0,0.0,0.0
20927542779816,-2.120041,8.336594,4.302295,0.0,0.0,0.0
20927545158827,-2.1487548,8.360522,4.3405805,0.0,0.0,0.0
20927547537785,-2.1822543,8.384451,4.345366,0.0,0.0,0.0
20927549916743,-2.1822543,8.365308,4.3357944,0.0,0.0,0.0
20927552295702,-2.1487548,8.389236,4.331009,0.0,0.0,0.0
20927554674660,-2.120041,8.403593,4.345366,0.0,0.0,0.0
20927557053618,-2.0291135,8.360522,4.273581,0.0,0.0,0.0
20927559432577,-1.9573289,8.312666,4.26401,0.0,0.0,0.0
20927561811535,-1.8903298,8.346166,4.26401,0.0,0.0,0.0
20927564190546,-1.7850457,8.379665,4.2161536,0.0,0.0,0.0
20927566569504,-1.6893328,8.374879,4.173083,0.0,0.0,0.0
20927568948462,-1.6079768,8.41795,4.1347976,0.0,0.0,0.0
20927571327421,-1.550549,8.504091,4.091727,0.0,0.0,0.0
20927573706379,-1.4883357,8.575876,4.0773697,0.0,0.0,0.0
20927576085337,-1.4500505,8.652447,4.0965123,0.0,0.0,0.0
20927578464296,-1.4739788,8.709874,4.1204405,0.0,0.0,0.0
20927580843254,-1.4931214,8.762517,4.101298,0.0,0.0,0.0
20927583222212,-1.5266209,8.800801,4.101298,0.0,0.0,0.0
20927585601223,-1.5888343,8.810373,4.1108694,0.0,0.0,0.0
20927587980181,-1.6654046,8.829515,4.1587257,0.0,0.0,0.0
20927590359139,-1.7084754,8.848659,4.211368,0.0,0.0,0.0
20927592738098,-1.7563318,8.848659,4.2831526,0.0,0.0,0.0
20927595117056,-1.7994026,8.867801,4.3262234,0.0,0.0,0.0
20927597496014,-1.7850457,8.882157,4.3788652,0.0,0.0,0.0
20927599874973,-1.7324036,8.9108715,4.4075794,0.0,0.0,0.0
20927602253931,-1.7180467,8.939586,4.4602213,0.0,0.0,0.0
20927604632889,-1.6271194,8.953942,4.493721,0.0,0.0,0.0
20927607011900,-1.4835501,8.997013,4.5655055,0.0,0.0,0.0
20927609390858,-1.3064811,9.035298,4.6325045,0.0,0.0,0.0
20927611769816,-1.1246266,9.083155,4.718646,0.0,0.0,0.0
20927614148775,-0.94277215,9.126225,4.7425747,0.0,0.0,0.0
20927616527733,-0.6939186,9.169296,4.74736,0.0,0.0,0.0
20927618906691,-0.44027936,9.265009,4.7425747,0.0,0.0,0.0
20927621285650,-0.19621146,9.336794,4.7138605,0.0,0.0,0.0
20927623664608,0.0526421,9.427721,4.7042894,0.0,0.0,0.0
20927626043618,0.29671,9.542577,4.7138605,0.0,0.0,0.0
20927628422577,0.49292147,9.643075,4.733003,0.0,0.0,0.0
20927630801535,0.65084773,9.700503,4.761717,0.0,0.0,0.0
20927633180493,0.72741807,9.762716,4.761717,0.0,0.0,0.0
20927635559452,0.7752745,9.79143,4.685147,0.0,0.0,0.0
20927637938410,0.76570326,9.820144,4.5942197,0.0,0.0,0.0
20927640317368,0.6987042,9.810573,4.4889355,0.0,0.0,0.0
20927642696327,0.57906306,9.839287,4.4171505,0.0,0.0,0.0
20927645075285,0.41156548,9.82493,4.3932223,0.0,0.0,0.0
20927647454296,0.23449662,9.7196455,4.3740797,0.0,0.0,0.0
20927649833254,0.062213387,9.667004,4.398008,0.0,0.0,0.0
20927652212212,-0.0526421,9.628718,4.3836513,0.0,0.0,0.0
20927654591171,-0.15314065,9.68136,4.4315076,0.0,0.0,0.0
20927656970129,-0.29671,9.671789,4.5415773,0.0,0.0,0.0
20927659349087,-0.32063824,9.595219,4.570291,0.0,0.0,0.0
20927661728046,-0.4642076,9.647861,4.575077,0.0,0.0,0.0
20927664107004,-0.57906306,9.652647,4.412365,0.0,0.0,0.0
20927666486014,-0.6843473,9.60479,4.321438,0.0,0.0,0.0
20927668864973,-0.66999036,9.52822,4.3405805,0.0,0.0,0.0
20927671243931,-0.6987042,9.442079,4.4458647,0.0,0.0,0.0
20927673622889,-0.6029913,9.312865,4.56072,0.0,0.0,0.0
20927676001848,-0.5024927,9.202796,4.651647,0.0,0.0,0.0
20927678380806,-0.37806597,9.135797,4.479364,0.0,0.0,0.0
20927680759764,-0.18664017,9.164511,4.240082,0.0,0.0,0.0
20927683138723,0.13399807,9.116654,4.0151563,0.0,0.0,0.0
20927685517681,0.35413775,8.987442,3.8668015,0.0,0.0,0.0
20927687896639,0.47377887,8.953942,3.8524444,0.0,0.0,0.0
20927690275650,0.6269195,8.930014,3.7806597,0.0,0.0,0.0
20927692654608,0.7082755,8.85823,3.7806597,0.0,0.0,0.0
20927695033566,0.6843473,8.729017,3.6753755,0.0,0.0,0.0
20927697412525,0.39720857,8.786445,3.5030923,0.0,0.0,0.0
20927699791483,0.11485548,8.834301,3.37388,0.0,0.0,0.0
20927702170441,-0.31106696,8.834301,3.2877383,0.0,0.0,0.0
20927704549348,-0.8135597,8.800801,3.3499517,0.0,0.0,0.0
20927706928358,-1.1676974,8.810373,3.5126636,0.0,0.0,0.0
20927709307368,-1.4644074,8.786445,3.6610186,0.0,0.0,0.0
20927711686327,-1.7324036,8.709874,3.7088752,0.0,0.0,0.0
20927714065285,-1.8568304,8.700303,3.6083765,0.0,0.0,0.0
20927716444243,-1.7994026,8.748159,3.4648073,0.0,0.0,0.0
20927718823202,-1.727618,8.815159,3.2638102,0.0,0.0,0.0
20927721202160,-1.6701902,8.829515,3.129812,0.0,0.0,0.0
20927723581118,-1.4404793,8.853444,3.1250265,0.0,0.0,0.0
20927725960077,-1.2203395,8.872586,3.2063823,0.0,0.0,0.0
20927728339087,-1.0959128,8.925228,3.3020952,0.0,0.0,0.0
20927730718046,-1.0193424,8.968299,3.345166,0.0,0.0,0.0
20927733097004,-0.8757731,9.040084,3.306881,0.0,0.0,0.0
20927735475962,-0.76570326,9.178867,3.2398818,0.0,0.0,0.0
20927737854921,-0.7465607,9.317652,3.2207394,0.0,0.0,0.0
20927740233879,-0.71306115,9.332008,3.2638102,0.0,0.0,0.0
20927742612837,-0.6795616,9.365508,3.4504502,0.0,0.0,0.0
20927744991796,-0.6795616,9.446864,3.6323047,0.0,0.0,0.0
20927747370754,-0.74177504,9.480363,3.7471602,0.0,0.0,0.0
20927749749764,-0.8327023,9.547362,3.7758741,0.0,0.0,0.0
20927752128671,-0.9906286,9.667004,3.7615173,0.0,0.0,0.0
20927754507681,-1.1676974,9.79143,3.7328033,0.0,0.0,0.0
20927756886639,-1.4548361,9.891929,3.7950168,0.0,0.0,0.0
20927759265598,-1.6941184,9.915857,3.9960139,0.0,0.0,0.0
20927761644556,-1.9286151,9.934999,4.220939,0.0,0.0,0.0
20927764023514,-2.1487548,9.963714,4.4602213,0.0,0.0,0.0
20927766402473,-2.2971098,9.930214,4.5798626,0.0,0.0,0.0
20927768781431,-2.3784657,9.8727865,4.613362,0.0,0.0,0.0
20927771160441,-2.349752,9.805787,4.575077,0.0,0.0,0.0
20927773539348,-2.2301106,9.767502,4.56072,0.0,0.0,0.0
20927775918358,-2.0482562,9.647861,4.570291,0.0,0.0,0.0
20927778297316,-1.7802601,9.547362,4.642076,0.0,0.0,0.0
20927780676275,-1.3926228,9.45165,4.699504,0.0,0.0,0.0
20927783055233,-0.971486,9.365508,4.7042894,0.0,0.0,0.0
20927785434191,-0.5599205,9.245867,4.6085763,0.0,0.0,0.0
20927787813150,-0.043070808,9.19801,4.465007,0.0,0.0,0.0
20927790192108,0.526421,9.164511,4.359723,0.0,0.0,0.0
20927792571118,1.0624132,9.140582,4.316652,0.0,0.0,0.0
20927794950077,1.5601203,9.030513,4.321438,0.0,0.0,0.0
20927797329035,1.9908284,8.915657,4.3788652,0.0,0.0,0.0
20927799707993,2.416751,8.786445,4.3740797,0.0,0.0,0.0
20927802086952,2.7038896,8.71466,4.331009,0.0,0.0,0.0
20927804465910,2.8474588,8.609376,4.220939,0.0,0.0,0.0
20927806844868,2.8809586,8.566305,4.130012,0.0,0.0,0.0
20927809223827,2.7708886,8.532805,4.082155,0.0,0.0,0.0
20927811602837,2.4502504,8.4705925,4.106084,0.0,0.0,0.0
20927813981796,2.0482562,8.451449,4.1443686,0.0,0.0,0.0
20927816360754,1.6223338,8.451449,4.173083,0.0,0.0,0.0
20927818739712,1.1581261,8.441878,4.182654,0.0,0.0,0.0
20927821118671,0.7465607,8.370093,4.1204405,0.0,0.0,0.0
20927823497629,0.31585258,8.384451,4.019942,0.0,0.0,0.0
20927825876587,0.23449662,8.389236,4.0007997,0.0,0.0,0.0
20927828255546,0.19621146,8.283952,3.952943,0.0,0.0,0.0
20927830634504,0.06699903,8.188239,3.871587,0.0,0.0,0.0
20927833013462,0.23449662,8.126026,3.7663028,0.0,0.0,0.0
20927835392473,0.40677986,8.130812,3.751946,0.0,0.0,0.0
20927837771431,0.4881358,8.025527,3.723232,0.0,0.0,0.0
20927840150389,0.43070808,8.068598,3.7471602,0.0,0.0,0.0
20927842529348,0.5168497,8.207381,3.7950168,0.0,0.0,0.0
20927844908306,0.41156548,8.283952,3.8955152,0.0,0.0,0.0
20927847287264,0.4354937,8.260024,3.9481573,0.0,0.0,0.0
20927849666223,0.25842485,8.355737,4.0103707,0.0,0.0,0.0
20927852045181,0.17228323,8.508878,4.048656,0.0,0.0,0.0
20927854424191,0.033499517,8.518449,4.0534415,0.0,0.0,0.0
20927856803150,-0.14356937,8.532805,4.0965123,0.0,0.0,0.0
20927859182108,-0.22013968,8.60459,4.1347976,0.0,0.0,0.0
20927861561066,-0.41156548,8.681161,4.197011,0.0,0.0,0.0
20927863940025,-0.64606214,8.662018,4.2831526,0.0,0.0,0.0
20927866318983,-0.8757731,8.642876,4.359723,0.0,0.0,0.0
20927868697941,-1.0432707,8.695518,4.4410787,0.0,0.0,0.0
20927871076900,-1.3112668,8.743374,4.4889355,0.0,0.0,0.0
20927873455858,-1.5936198,8.7577305,4.570291,0.0,0.0,0.0
20927875834868,-1.7850457,8.729017,4.6564326,0.0,0.0,0.0
20927878213827,-1.9142581,8.748159,4.733003,0.0,0.0,0.0
20927880592785,-2.009971,8.743374,4.766503,0.0,0.0,0.0
20927882971743,-2.1104696,8.729017,4.8287163,0.0,0.0,0.0
20927885350702,-2.1104696,8.63809,4.8047876,0.0,0.0,0.0
20927887729660,-1.9716859,8.63809,4.7808595,0.0,0.0,0.0
20927890108618,-1.8520447,8.595019,4.7712884,0.0,0.0,0.0
20927892487577,-1.7467605,8.513663,4.7569313,0.0,0.0,0.0
20927894866535,-1.5840486,8.537591,4.8047876,0.0,0.0,0.0
20927897245546,-1.3830515,8.504091,4.867001,0.0,0.0,0.0
20927899624504,-1.2107682,8.456235,4.9292145,0.0,0.0,0.0
20927902003462,-1.0145568,8.408379,4.9770713,0.0,0.0,0.0
20927904382421,-0.79920274,8.441878,5.020142,0.0,0.0,0.0
20927906761379,-0.64606214,8.456235,5.058427,0.0,0.0,0.0
20927909140337,-0.4833502,8.398808,5.0823555,0.0,0.0,0.0
20927911519296,-0.31585258,8.379665,5.096712,0.0,0.0,0.0
20927913898254,-0.17228323,8.398808,5.048856,0.0,0.0,0.0
20927916277212,-0.13399807,8.41795,4.962714,0.0,0.0,0.0
20927918656223,-0.17228323,8.398808,4.843073,0.0,0.0,0.0
20927921035181,-0.2105684,8.441878,4.6707897,0.0,0.0,0.0
20927923414139,-0.27756742,8.508878,4.5224347,0.0,0.0,0.0
20927925793098,-0.4642076,8.571091,4.398008,0.0,0.0,0.0
20927928172056,-0.6891329,8.623733,4.345366,0.0,0.0,0.0
20927930551014,-0.89491564,8.733803,4.354937,0.0,0.0,0.0
20927932929973,-1.0959128,8.800801,4.354937,0.0,0.0,0.0
20927935308931,-1.3112668,8.848659,4.331009,0.0,0.0,0.0
20927937687941,-1.4739788,8.867801,4.321438,0.0,0.0,0.0
20927940066900,-1.5936198,8.906086,4.2927237,0.0,0.0,0.0
20927942445858,-1.6414764,8.953942,4.2352962,0.0,0.0,0.0
20927944824816,-1.6271194,8.949157,4.2352962,0.0,0.0,0.0
20927947203775,-1.5170496,8.949157,4.182654,0.0,0.0,0.0
20927949582733,-1.4691931,9.001799,4.15394,0.0,0.0,0.0
20927951961691,-1.2011969,8.992228,4.1443686,0.0,0.0,0.0
20927954340650,-0.9523434,8.953942,4.091727,0.0,0.0,0.0
20927956719608,-0.7178468,8.958728,4.0007997,0.0,0.0,0.0
20927959098566,-0.41635114,8.977871,3.8763726,0.0,0.0,0.0
20927961477577,-0.10049855,9.001799,3.7950168,0.0,0.0,0.0
20927963856535,0.13399807,8.9826565,3.7088752,0.0,0.0,0.0
20927966235493,0.38763726,9.006584,3.5988052,0.0,0.0,0.0
20927968614452,0.57427746,9.025727,3.507878,0.0,0.0,0.0
20927970993410,0.6412765,9.016156,3.426522,0.0,0.0,0.0
