t_ns,ax,ay,az,bx,by,bz
21358214422664,-0.93320084,8.949157,4.3405805,0.0,0.0,0.0
21358216801779,-0.9523434,8.977871,4.3501515,0.0,0.0,0.0
21358219180893,-0.9379865,8.987442,4.3740797,0.0,0.0,0.0
21358221560008,-0.9619147,8.9826565,4.3788652,0.0,0.0,0.0
21358223939122,-0.9810573,8.997013,4.402794,0.0,0.0,0.0
21358226318237,-0.9906286,9.016156,4.412365,0.0,0.0,0.0
21358228697352,-1.0432707,9.016156,4.402794,0.0,0.0,0.0
21358231076466,-1.0480564,9.006584,4.412365,0.0,0.0,0.0
21358233455581,-1.0624132,8.987442,4.412365,0.0,0.0,0.0
21358235834591,-1.1006985,8.9826565,4.4075794,0.0,0.0,0.0
21358238213758,-1.0815558,8.973084,4.398008,0.0,0.0,0.0
21358240592872,-1.0815558,8.949157,4.3836513,0.0,0.0,0.0
21358242971987,-1.0767702,8.944371,4.3932223,0.0,0.0,0.0
21358245351102,-1.0576276,8.920443,4.3836513,0.0,0.0,0.0
21358247730216,-1.0289137,8.896515,4.3645086,0.0,0.0,0.0
21358250109331,-0.9667004,8.886943,4.345366,0.0,0.0,0.0
21358252488445,-0.9236295,8.848659,4.321438,0.0,0.0,0.0
21358254867560,-0.8566305,8.82473,4.3118663,0.0,0.0,0.0
21358257246674,-0.81834537,8.810373,4.2831526,0.0,0.0,0.0
21358259625789,-0.76570326,8.805588,4.2592244,0.0,0.0,0.0
21358262004904,-0.7369894,8.829515,4.23051,0.0,0.0,0.0
21358264384018,-0.71306115,8.79123,4.206582,0.0,0.0,0.0
21358266763081,-0.7082755,8.796016,4.1778684,0.0,0.0,0.0
21358269142247,-0.6987042,8.786445,4.1491547,0.0,0.0,0.0
21358271521310,-0.70348984,8.815159,4.1635113,0.0,0.0,0.0
21358273900424,-0.72263247,8.834301,4.1635113,0.0,0.0,0.0
21358276279539,-0.7465607,8.82473,4.1922255,0.0,0.0,0.0
21358278658654,-0.7896315,8.815159,4.1874394,0.0,0.0,0.0
21358281037768,-0.85184485,8.839087,4.206582,0.0,0.0,0.0
21358283416883,-0.89491564,8.834301,4.182654,0.0,0.0,0.0
21358285795997,-0.91884387,8.848659,4.182654,0.0,0.0,0.0
21358288175112,-0.94755775,8.815159,4.2017965,0.0,0.0,0.0
21358290554227,-0.9810573,8.79123,4.2448673,0.0,0.0,0.0
21358292933341,-0.9906286,8.79123,4.2687955,0.0,0.0,0.0
21358295312456,-0.9906286,8.781659,4.2831526,0.0,0.0,0.0
21358297691570,-1.0193424,8.772088,4.273581,0.0,0.0,0.0
21358300070685,-0.9906286,8.7577305,4.287938,0.0,0.0,0.0
21358302449747,-0.9762716,8.772088,4.26401,0.0,0.0,0.0
21358304828862,-0.9762716,8.762517,4.2687955,0.0,0.0,0.0
21358307207924,-0.9667004,8.762517,4.2687955,0.0,0.0,0.0
21358309587091,-0.95712906,8.752945,4.2687955,0.0,0.0,0.0
21358311966206,-0.9236295,8.743374,4.278367,0.0,0.0,0.0
21358314345320,-0.89491564,8.738588,4.2927237,0.0,0.0,0.0
21358316724435,-0.8757731,8.738588,4.2831526,0.0,0.0,0.0
21358319103549,-0.86141616,8.748159,4.302295,0.0,0.0,0.0
21358321482664,-0.8662018,8.748159,4.302295,0.0,0.0,0.0
21358323861779,-0.8470592,8.748159,4.321438,0.0,0.0,0.0
21358326240893,-0.85184485,8.7673025,4.321438,0.0,0.0,0.0
21358328620008,-0.8662018,8.781659,4.3405805,0.0,0.0,0.0
21358330999122,-0.89013004,8.79123,4.3405805,0.0,0.0,0.0
21358333378185,-0.91405827,8.79123,4.3357944,0.0,0.0,0.0
21358335757299,-0.9379865,8.796016,4.3501515,0.0,0.0,0.0
21358338136414,-0.98584294,8.796016,4.3788652,0.0,0.0,0.0
21358340515529,-0.9762716,8.805588,4.388437,0.0,0.0,0.0
21358342894643,-0.9906286,8.829515,4.436293,0.0,0.0,0.0
21358345273758,-0.9906286,8.815159,4.465007,0.0,0.0,0.0
21358347652872,-1.0193424,8.848659,4.479364,0.0,0.0,0.0
21358350031987,-1.0097711,8.853444,4.4554358,0.0,0.0,0.0
21358352411102,-1.0001999,8.886943,4.436293,0.0,0.0,0.0
21358354790216,-0.9906286,8.891729,4.426722,0.0,0.0,0.0
21358357169331,-0.9954142,8.877372,4.4075794,0.0,0.0,0.0
21358359548445,-0.9954142,8.915657,4.421936,0.0,0.0,0.0
21358361927560,-1.0001999,8.920443,4.426722,0.0,0.0,0.0
21358364306674,-0.9810573,8.939586,4.412365,0.0,0.0,0.0
21358366685737,-1.0193424,8.953942,4.3788652,0.0,0.0,0.0
21358369064852,-1.0145568,8.958728,4.359723,0.0,0.0,0.0
21358371443966,-1.0336994,8.949157,4.331009,0.0,0.0,0.0
21358373823081,-1.0336994,8.953942,4.2975097,0.0,0.0,0.0
21358376202195,-1.0480564,8.953942,4.302295,0.0,0.0,0.0
21358378581310,-1.0576276,8.944371,4.3118663,0.0,0.0,0.0
21358380960424,-1.052842,8.925228,4.2831526,0.0,0.0,0.0
21358383339539,-1.052842,8.9013,4.254439,0.0,0.0,0.0
21358385718654,-1.052842,8.896515,4.211368,0.0,0.0,0.0
21358388097768,-1.0432707,8.872586,4.197011,0.0,0.0,0.0
21358390476883,-1.0241281,8.853444,4.1874394,0.0,0.0,0.0
21358392855997,-1.0193424,8.819944,4.206582,0.0,0.0,0.0
21358395235060,-1.0001999,8.815159,4.23051,0.0,0.0,0.0
21358397614174,-0.98584294,8.772088,4.240082,0.0,0.0,0.0
21358399993289,-0.94277215,8.776874,4.2161536,0.0,0.0,0.0
21358402372404,-0.90448695,8.786445,4.197011,0.0,0.0,0.0
21358404751518,-0.8662018,8.776874,4.1635113,0.0,0.0,0.0
21358407130633,-0.8470592,8.772088,4.1587257,0.0,0.0,0.0
21358409509747,-0.8135597,8.786445,4.182654,0.0,0.0,0.0
21358411888862,-0.8135597,8.810373,4.2017965,0.0,0.0,0.0
21358414267977,-0.8039884,8.815159,4.2017965,0.0,0.0,0.0
21358416647091,-0.7848458,8.805588,4.2161536,0.0,0.0,0.0
21358419026206,-0.81834537,8.848659,4.211368,0.0,0.0,0.0
21358421405320,-0.8566305,8.839087,4.2017965,0.0,0.0,0.0
21358423784435,-0.8805587,8.848659,4.2017965,0.0,0.0,0.0
21358426163497,-0.8805587,8.853444,4.2161536,0.0,0.0,0.0
21358428542612,-0.89491564,8.848659,4.249653,0.0,0.0,0.0
21358430921727,-0.9236295,8.848659,4.2927237,0.0,0.0,0.0
21358433300841,-0.9284152,8.843872,4.302295,0.0,0.0,0.0
21358435679956,-0.95712906,8.834301,4.3070807,0.0,0.0,0.0
21358438059070,-0.9906286,8.805588,4.287938,0.0,0.0,0.0
21358440438185,-0.98584294,8.79123,4.2927237,0.0,0.0,0.0
21358442817299,-0.9906286,8.796016,4.3070807,0.0,0.0,0.0
21358445196414,-0.9762716,8.772088,4.321438,0.0,0.0,0.0
21358447575529,-0.98584294,8.772088,4.3357944,0.0,0.0,0.0
21358449954643,-0.9762716,8.786445,4.354937,0.0,0.0,0.0
21358452333758,-0.9906286,8.7577305,4.3405805,0.0,0.0,0.0
21358454712872,-0.98584294,8.772088,4.321438,0.0,0.0,0.0
21358457091987,-0.95712906,8.786445,4.3118663,0.0,0.0,0.0
21358459471049,-0.94755775,8.7673025,4.3262234,0.0,0.0,0.0
21358461850164,-0.93320084,8.781659,4.3501515,0.0,0.0,0.0
21358464229279,-0.9379865,8.786445,4.359723,0.0,0.0,0.0
21358466608393,-0.94755775,8.800801,4.3501515,0.0,0.0,0.0
21358468987508,-0.9667004,8.79123,4.3357944,0.0,0.0,0.0
21358471366622,-0.9667004,8.815159,4.3262234,0.0,0.0,0.0
21358473745737,-0.9810573,8.82473,4.321438,0.0,0.0,0.0
21358476124852,-0.9954142,8.815159,4.316652,0.0,0.0,0.0
21358478503966,-1.0241281,8.82473,4.3262234,0.0,0.0,0.0
21358480883081,-1.0289137,8.867801,4.331009,0.0,0.0,0.0
21358483262195,-1.0241281,8.872586,4.316652,0.0,0.0,0.0
21358485641310,-1.0097711,8.882157,4.302295,0.0,0.0,0.0
21358488020424,-1.0145568,8.906086,4.2975097,0.0,0.0,0.0
21358490399487,-1.0001999,8.925228,4.273581,0.0,0.0,0.0
21358492778602,-0.98584294,8.930014,4.2831526,0.0,0.0,0.0
21358495157716,-0.9810573,8.963513,4.2927237,0.0,0.0,0.0
21358497536831,-0.9906286,8.968299,4.316652,0.0,0.0,0.0
21358499915945,-0.9667004,8.977871,4.3262234,0.0,0.0,0.0
21358502295060,-0.971486,8.997013,4.321438,0.0,0.0,0.0
21358504674174,-0.971486,8.977871,4.3118663,0.0,0.0,0.0
21358507053289,-0.9523434,8.977871,4.287938,0.0,0.0,0.0
21358509432404,-0.91405827,8.958728,4.302295,0.0,0.0,0.0
21358511811518,-0.9379865,8.949157,4.316652,0.0,0.0,0.0
21358514190633,-0.94755775,8.896515,4.331009,0.0,0.0,0.0
21358516569747,-0.9762716,8.920443,4.321438,0.0,0.0,0.0
21358518948810,-0.9954142,8.891729,4.3070807,0.0,0.0,0.0
21358521327924,-0.9954142,8.85823,4.287938,0.0,0.0,0.0
21358523707039,-1.0241281,8.82473,4.278367,0.0,0.0,0.0
21358526086154,-1.0193424,8.805588,4.2927237,0.0,0.0,0.0
21358528465268,-1.0193424,8.805588,4.2831526,0.0,0.0,0.0
21358530844383,-1.0193424,8.772088,4.254439,0.0,0.0,0.0
21358533223497,-1.0049855,8.743374,4.26401,0.0,0.0,0.0
21358535602612,-0.971486,8.752945,4.2687955,0.0,0.0,0.0
21358537981727,-0.9284152,8.752945,4.26401,0.0,0.0,0.0
21358540360841,-0.91884387,8.776874,4.240082,0.0,0.0,0.0
21358542739956,-0.89013004,8.772088,4.240082,0.0,0.0,0.0
21358545119018,-0.8470592,8.772088,4.26401,0.0,0.0,0.0
21358547498133,-0.8135597,8.776874,4.26401,0.0,0.0,0.0
21358549877247,-0.8135597,8.7673025,4.2687955,0.0,0.0,0.0
21358552256362,-0.79441714,8.776874,4.2448673,0.0,0.0,0.0
21358554635477,-0.7752745,8.79123,4.2448673,0.0,0.0,0.0
21358557014591,-0.7609176,8.815159,4.1443686,0.0,0.0,0.0
21358559393706,-0.52163535,8.551949,2.7469604,0.0,0.0,0.0
21358561772820,-0.47377887,9.317652,4.0438704,0.0,0.0,0.0
21358564151935,-0.91884387,8.992228,5.7379885,0.0,0.0,0.0
21358566531049,-1.1006985,7.810173,5.761917,0.0,0.0,0.0
21358568910164,-0.94277215,8.9826565,5.1349974,0.0,0.0,0.0
21358571289279,-1.0289137,9.269794,3.4648073,0.0,0.0,0.0
21358573668393,-1.2299109,8.642876,2.498107,0.0,0.0,0.0
21358576047508,-1.1629118,8.776874,2.7948167,0.0,0.0,0.0
21358578426622,-1.1916257,9.217153,3.9673,0.0,0.0,0.0
21358580805685,-1.3782659,8.60459,5.0823555,0.0,0.0,0.0
21358583184799,-1.3495519,8.422736,5.7667027,0.0,0.0,0.0
21358585563914,-1.2777673,8.891729,5.493921,0.0,0.0,0.0
21358587943029,-1.3160524,8.815159,4.278367,0.0,0.0,0.0
21358590322143,-1.2251252,8.681161,3.278167,0.0,0.0,0.0
21358592701258,-1.0001999,8.977871,3.034099,0.0,0.0,0.0
21358595080372,-0.95712906,8.977871,3.5365918,0.0,0.0,0.0
21358597459487,-0.8662018,8.60459,4.4458647,0.0,0.0,0.0
21358599838602,-0.6556334,8.681161,5.2498527,0.0,0.0,0.0
21358602217716,-0.5886344,8.762517,5.3359947,0.0,0.0,0.0
21358604596831,-0.5455636,8.695518,4.7138605,0.0,0.0,0.0
21358606975945,-0.41156548,8.79123,3.9194436,0.0,0.0,0.0
21358609355008,-0.42592242,8.992228,3.426522,0.0,0.0,0.0
21358611734122,-0.5982057,8.9013,3.5844483,0.0,0.0,0.0
21358614113237,-0.74177504,8.7577305,4.254439,0.0,0.0,0.0
21358616492352,-0.89491564,8.800801,4.981857,0.0,0.0,0.0
21358618871466,-1.1102697,8.786445,5.2019963,0.0,0.0,0.0
21358621250581,-1.2394822,8.7673025,4.8909297,0.0,0.0,0.0
21358623629695,-1.3256238,8.891729,4.302295,0.0,0.0,0.0
21358626008810,-1.4548361,9.006584,3.7854455,0.0,0.0,0.0
21358628387924,-1.564906,8.997013,3.723232,0.0,0.0,0.0
21358630767039,-1.5888343,8.953942,4.1491547,0.0,0.0,0.0
21358633146154,-1.6366907,8.968299,4.6755753,0.0,0.0,0.0
21358635525164,-1.6845472,8.9108715,4.9722853,0.0,0.0,0.0
21358637904331,-1.6175481,8.920443,4.8526444,0.0,0.0,0.0
21358640283445,-1.5122639,8.997013,4.421936,0.0,0.0,0.0
21358642662560,-1.4213367,9.035298,3.9577286,0.0,0.0,0.0
21358645041674,-1.2729816,9.035298,3.7950168,0.0,0.0,0.0
21358647420789,-1.119841,9.035298,4.0438704,0.0,0.0,0.0
21358649799904,-0.9810573,9.01137,4.4602213,0.0,0.0,0.0
21358652179018,-0.86141616,8.949157,4.7377887,0.0,0.0,0.0
21358654558133,-0.7082755,8.925228,4.723432,0.0,0.0,0.0
21358656937247,-0.59342,8.977871,4.421936,0.0,0.0,0.0
21358659316362,-0.5312066,8.992228,4.0438704,0.0,0.0,0.0
21358661695477,-0.5072784,8.973084,3.8620157,0.0,0.0,0.0
21358664074591,-0.526421,8.968299,3.952943,0.0,0.0,0.0
21358666453654,-0.60777694,8.9013,4.23051,0.0,0.0,0.0
21358668832768,-0.6987042,8.853444,4.517649,0.0,0.0,0.0
21358671211883,-0.7704889,8.82473,4.5655055,0.0,0.0,0.0
21358673590997,-0.8853444,8.834301,4.4075794,0.0,0.0,0.0
21358675970112,-1.0049855,8.839087,4.139583,0.0,0.0,0.0
21358678349227,-1.1006985,8.891729,3.9338005,0.0,0.0,0.0
21358680728341,-1.18684,8.853444,3.8907297,0.0,0.0,0.0
21358683107456,-1.2634103,8.843872,4.058227,0.0,0.0,0.0
21358685486570,-1.3304094,8.810373,4.3118663,0.0,0.0,0.0
21358687865685,-1.3447664,8.79123,4.4315076,0.0,0.0,0.0
21358690244799,-1.3495519,8.786445,4.388437,0.0,0.0,0.0
21358692623914,-1.2873386,8.810373,4.2352962,0.0,0.0,0.0
21358695002977,-1.18684,8.843872,4.0390844,0.0,0.0,0.0
21358697382039,-1.0911272,8.853444,3.9768713,0.0,0.0,0.0
21358699761206,-0.9906286,8.815159,4.0438704,0.0,0.0,0.0
21358702140320,-0.86141616,8.79123,4.197011,0.0,0.0,0.0
21358704519435,-0.72263247,8.776874,4.3405805,0.0,0.0,0.0
21358706898549,-0.61734825,8.738588,4.3740797,0.0,0.0,0.0
21358709277664,-0.5312066,8.738588,4.3118663,0.0,0.0,0.0
21358711656779,-0.47377887,8.748159,4.1587257,0.0,0.0,0.0
21358714035893,-0.44985065,8.743374,4.106084,0.0,0.0,0.0
21358716415008,-0.47856453,8.752945,4.15394,0.0,0.0,0.0
21358718794122,-0.52163535,8.762517,4.302295,0.0,0.0,0.0
21358721173185,-0.6125626,8.772088,4.4171505,0.0,0.0,0.0
21358723552299,-0.70348984,8.762517,4.4554358,0.0,0.0,0.0
21358725931414,-0.82313097,8.7577305,4.388437,0.0,0.0,0.0
21358728310529,-0.9092726,8.7577305,4.2975097,0.0,0.0,0.0
21358730689643,-1.0145568,8.772088,4.23051,0.0,0.0,0.0
21358733068758,-1.105484,8.7577305,4.2687955,0.0,0.0,0.0
21358735447872,-1.1916257,8.762517,4.3357944,0.0,0.0,0.0
21358737826987,-1.2634103,8.748159,4.426722,0.0,0.0,0.0
21358740206102,-1.2921243,8.733803,4.4554358,0.0,0.0,0.0
21358742585216,-1.3304094,8.7577305,4.4315076,0.0,0.0,0.0
21358744964331,-1.3064811,8.738588,4.3836513,0.0,0.0,0.0
21358747343445,-1.2777673,8.729017,4.3405805,0.0,0.0,0.0
21358749722508,-1.2107682,8.743374,4.3357944,0.0,0.0,0.0
21358752101622,-1.0959128,8.7577305,4.3740797,0.0,0.0,0.0
21358754480737,-0.9954142,8.738588,4.465007,0.0,0.0,0.0
21358756859852,-0.89013004,8.748159,4.5224347,0.0,0.0,0.0
21358759238966,-0.7752745,8.7673025,4.503292,0.0,0.0,0.0
21358761618081,-0.66041905,8.805588,4.4458647,0.0,0.0,0.0
21358763997195,-0.57906306,8.834301,4.398008,0.0,0.0,0.0
21358766376258,-0.5072784,8.810373,4.3501515,0.0,0.0,0.0
21358768755424,-0.4977071,8.805588,4.3501515,0.0,0.0,0.0
21358771134539,-0.5024927,8.800801,4.3788652,0.0,0.0,0.0
21358773513654,-0.5838487,8.800801,4.402794,0.0,0.0,0.0
21358775892768,-0.6987042,8.800801,4.3788652,0.0,0.0,0.0
21358778271831,-0.8039884,8.800801,4.331009,0.0,0.0,0.0
21358780650945,-0.95712906,8.843872,4.249653,0.0,0.0,0.0
21358783030008,-1.119841,8.877372,4.182654,0.0,0.0,0.0
21358785409174,-1.2442678,8.882157,4.1778684,0.0,0.0,0.0
21358787788289,-1.3686945,8.949157,4.2448673,0.0,0.0,0.0
21358790167404,-1.5074782,8.968299,4.3118663,0.0,0.0,0.0
21358792546518,-1.5984055,8.9826565,4.302295,0.0,0.0,0.0
21358794925633,-1.6749759,8.973084,4.278367,0.0,0.0,0.0
21358797304747,-1.7036897,8.987442,4.211368,0.0,0.0,0.0
21358799683862,-1.7180467,9.01137,4.1778684,0.0,0.0,0.0
21358802062977,-1.6845472,8.9826565,4.1922255,0.0,0.0,0.0
21358804442091,-1.6414764,9.001799,4.220939,0.0,0.0,0.0
21358806821154,-1.5361922,8.987442,4.26401,0.0,0.0,0.0
21358809200268,-1.4261223,8.973084,4.3118663,0.0,0.0,0.0
21358811579383,-1.2586247,8.963513,4.3118663,0.0,0.0,0.0
21358813958497,-1.1246266,8.939586,4.287938,0.0,0.0,0.0
21358816337612,-0.9523434,8.920443,4.273581,0.0,0.0,0.0
21358818716727,-0.7848458,8.886943,4.2448673,0.0,0.0,0.0
21358821095841,-0.6412765,8.853444,4.273581,0.0,0.0,0.0
21358823474956,-0.526421,8.82473,4.316652,0.0,0.0,0.0
21358825854070,-0.44506502,8.79123,4.3645086,0.0,0.0,0.0
21358828233185,-0.38763726,8.776874,4.369294,0.0,0.0,0.0
21358830612299,-0.37806597,8.7577305,4.3118663,0.0,0.0,0.0
21358832991414,-0.4019942,8.738588,4.287938,0.0,0.0,0.0
21358835370477,-0.47377887,8.709874,4.2927237,0.0,0.0,0.0
21358837749591,-0.5694918,8.695518,4.2927237,0.0,0.0,0.0
21358840128706,-0.6843473,8.71466,4.321438,0.0,0.0,0.0
21358842507820,-0.79920274,8.71466,4.359723,0.0,0.0,0.0
21358844886935,-0.94755775,8.752945,4.3501515,0.0,0.0,0.0
21358847266049,-1.0624132,8.7577305,4.316652,0.0,0.0,0.0
21358849645164,-1.1581261,8.776874,4.2975097,0.0,0.0,0.0
21358852024279,-1.2251252,8.79123,4.302295,0.0,0.0,0.0
21358854403393,-1.2634103,8.800801,4.3070807,0.0,0.0,0.0
21358856782508,-1.282553,8.819944,4.345366,0.0,0.0,0.0
21358859161622,-1.2634103,8.82473,4.3788652,0.0,0.0,0.0
21358861540685,-1.2251252,8.815159,4.3740797,0.0,0.0,0.0
21358863919799,-1.1150553,8.843872,4.345366,0.0,0.0,0.0
21358866298914,-1.0001999,8.843872,4.3118663,0.0,0.0,0.0
21358868678029,-0.8853444,8.82473,4.302295,0.0,0.0,0.0
21358871057143,-0.7848458,8.815159,4.3405805,0.0,0.0,0.0
21358873436258,-0.67477596,8.815159,4.369294,0.0,0.0,0.0
21358875815372,-0.5599205,8.815159,4.3788652,0.0,0.0,0.0
21358878194487,-0.44506502,8.786445,4.3740797,0.0,0.0,0.0
21358880573602,-0.4019942,8.776874,4.3501515,0.0,0.0,0.0
21358882952716,-0.35413775,8.748159,4.3118663,0.0,0.0,0.0
21358885331831,-0.38285163,8.762517,4.278367,0.0,0.0,0.0
21358887710945,-0.4354937,8.733803,4.240082,0.0,0.0,0.0
21358890090008,-0.526421,8.719446,4.2592244,0.0,0.0,0.0
21358892469122,-0.6364908,8.719446,4.2592244,0.0,0.0,0.0
21358894848237,-0.7465607,8.71466,4.26401,0.0,0.0,0.0
21358897227352,-0.8757731,8.719446,4.278367,0.0,0.0,0.0
21358899606466,-1.0289137,8.748159,4.26401,0.0,0.0,0.0
21358901985581,-1.1533405,8.776874,4.2592244,0.0,0.0,0.0
21358904364695,-1.2490535,8.772088,4.2448673,0.0,0.0,0.0
21358906743810,-1.3208381,8.796016,4.2352962,0.0,0.0,0.0
21358909122924,-1.3974084,8.805588,4.2687955,0.0,0.0,0.0
21358911502039,-1.4691931,8.815159,4.3070807,0.0,0.0,0.0
21358913881154,-1.4883357,8.886943,4.331009,0.0,0.0,0.0
21358916260216,-1.4644074,8.9013,4.3357944,0.0,0.0,0.0
21358918639331,-1.4213367,8.906086,4.321438,0.0,0.0,0.0
21358921018445,-1.3447664,8.9013,4.321438,0.0,0.0,0.0
21358923397560,-1.268196,8.920443,4.316652,0.0,0.0,0.0
21358925776674,-1.1724831,8.949157,4.321438,0.0,0.0,0.0
21358928155789,-1.0719845,8.977871,4.3645086,0.0,0.0,0.0
21358930534904,-0.971486,8.968299,4.3740797,0.0,0.0,0.0
21358932914018,-0.8805587,8.992228,4.388437,0.0,0.0,0.0
21358935293133,-0.8039884,8.977871,4.4075794,0.0,0.0,0.0
21358937672247,-0.74177504,8.968299,4.398008,0.0,0.0,0.0
21358940051362,-0.6939186,8.968299,4.3740797,0.0,0.0,0.0
21358942430424,-0.6556334,8.958728,4.321438,0.0,0.0,0.0
21358944809539,-0.66041905,8.958728,4.302295,0.0,0.0,0.0
21358947188654,-0.6795616,8.930014,4.2927237,0.0,0.0,0.0
21358949567768,-0.7369894,8.906086,4.2975097,0.0,0.0,0.0
21358951946883,-0.7800602,8.891729,4.2927237,0.0,0.0,0.0
21358954325997,-0.83748794,8.863015,4.278367,0.0,0.0,0.0
21358956705112,-0.91405827,8.863015,4.2592244,0.0,0.0,0.0
21358959084227,-0.9906286,8.805588,4.2257247,0.0,0.0,0.0
21358961463341,-1.052842,8.796016,4.206582,0.0,0.0,0.0
21358963842456,-1.0719845,8.786445,4.1922255,0.0,0.0,0.0
21358966221518,-1.1006985,8.772088,4.206582,0.0,0.0,0.0
21358968600633,-1.0815558,8.7577305,4.211368,0.0,0.0,0.0
21358970979747,-1.0719845,8.762517,4.2161536,0.0,0.0,0.0
21358973358862,-1.038485,8.781659,4.211368,0.0,0.0,0.0
21358975737977,-0.9236295,8.829515,4.206582,0.0,0.0,0.0
21358978117091,-0.8422736,8.829515,4.1874394,0.0,0.0,0.0
21358980496206,-0.74177504,8.834301,4.182654,0.0,0.0,0.0
21358982875320,-0.6652047,8.82473,4.1778684,0.0,0.0,0.0
21358985254435,-0.60777694,8.863015,4.220939,0.0,0.0,0.0
21358987633549,-0.526421,8.843872,4.2592244,0.0,0.0,0.0
21358990012664,-0.46899325,8.810373,4.287938,0.0,0.0,0.0
21358992391727,-0.44506502,8.79123,4.321438,0.0,0.0,0.0
21358994770841,-0.4546363,8.800801,4.3262234,0.0,0.0,0.0
21358997149956,-0.4881358,8.805588,4.2975097,0.0,0.0,0.0
21358999529070,-0.526421,8.781659,4.254439,0.0,0.0,0.0
21359001908185,-0.5886344,8.810373,4.2161536,0.0,0.0,0.0
21359004287299,-0.7082755,8.834301,4.2161536,0.0,0.0,0.0
21359006666414,-0.82313097,8.843872,4.2448673,0.0,0.0,0.0
21359009045529,-0.9284152,8.829515,4.2927237,0.0,0.0,0.0
21359011424643,-1.038485,8.843872,4.321438,0.0,0.0,0.0
21359013803758,-1.1485549,8.85823,4.3262234,0.0,0.0,0.0
21359016182872,-1.2155539,8.9013,4.3405805,0.0,0.0,0.0
21359018561987,-1.2969099,8.9013,4.3405805,0.0,0.0,0.0
21359020941049,-1.3495519,8.886943,4.3405805,0.0,0.0,0.0
21359023320164,-1.3686945,8.882157,4.369294,0.0,0.0,0.0
21359025699279,-1.3686945,8.863015,4.369294,0.0,0.0,0.0
21359028078341,-1.3399807,8.839087,4.3740797,0.0,0.0,0.0
21359030457508,-1.3016955,8.810373,4.3788652,0.0,0.0,0.0
21359032836622,-1.2155539,8.819944,4.359723,0.0,0.0,0.0
21359035215737,-1.1389836,8.786445,4.3501515,0.0,0.0,0.0
21359037594852,-1.0289137,8.748159,4.354937,0.0,0.0,0.0
21359039973966,-0.9236295,8.719446,4.359723,0.0,0.0,0.0
21359042353029,-0.8470592,8.709874,4.345366,0.0,0.0,0.0
21359044732143,-0.7609176,8.71466,4.321438,0.0,0.0,0.0
21359047111258,-0.6843473,8.690732,4.2975097,0.0,0.0,0.0
21359049490372,-0.64606214,8.685946,4.2927237,0.0,0.0,0.0
21359051869487,-0.61734825,8.724232,4.2592244,0.0,0.0,0.0
21359054248602,-0.6221339,8.752945,4.273581,0.0,0.0,0.0
21359056627716,-0.67477596,8.7673025,4.273581,0.0,0.0,0.0
21359059006831,-0.7369894,8.805588,4.2448673,0.0,0.0,0.0
21359061385945,-0.83748794,8.85823,4.249653,0.0,0.0,0.0
21359063765060,-0.91405827,8.882157,4.240082,0.0,0.0,0.0
21359066144174,-0.9954142,8.9348,4.2592244,0.0,0.0,0.0
21359068523289,-1.0863415,8.958728,4.2687955,0.0,0.0,0.0
21359070902352,-1.1964114,8.9826565,4.2975097,0.0,0.0,0.0
21359073281466,-1.2586247,8.9826565,4.3070807,0.0,0.0,0.0
21359075660581,-1.3304094,9.01137,4.321438,0.0,0.0,0.0
21359078039695,-1.3782659,9.044869,4.345366,0.0,0.0,0.0
21359080418810,-1.402194,9.0544405,4.3740797,0.0,0.0,0.0
21359082797924,-1.3543376,9.030513,4.369294,0.0,0.0,0.0
21359085177039,-1.3160524,9.020942,4.3740797,0.0,0.0,0.0
21359087556154,-1.2442678,9.016156,4.369294,0.0,0.0,0.0
21359089935268,-1.1629118,8.977871,4.3645086,0.0,0.0,0.0
21359092314383,-1.0576276,8.925228,4.3357944,0.0,0.0,0.0
21359094693497,-0.9523434,8.9013,4.3118663,0.0,0.0,0.0
21359097072560,-0.8327023,8.877372,4.3118663,0.0,0.0,0.0
21359099451674,-0.74177504,8.839087,4.316652,0.0,0.0,0.0
21359101830789,-0.64606214,8.829515,4.302295,0.0,0.0,0.0
21359104209852,-0.5838487,8.810373,4.2831526,0.0,0.0,0.0
21359106589018,-0.52163535,8.7673025,4.2448673,0.0,0.0,0.0
21359108968133,-0.5072784,8.762517,4.220939,0.0,0.0,0.0
21359111347247,-0.49292147,8.738588,4.206582,0.0,0.0,0.0
21359113726362,-0.55513483,8.743374,4.1922255,0.0,0.0,0.0
21359116105477,-0.61734825,8.748159,4.182654,0.0,0.0,0.0
21359118484591,-0.6795616,8.762517,4.197011,0.0,0.0,0.0
21359120863654,-0.75613195,8.7577305,4.1922255,0.0,0.0,0.0
21359123242768,-0.8470592,8.733803,4.2017965,0.0,0.0,0.0
21359125621883,-0.94755775,8.7673025,4.1874394,0.0,0.0,0.0
21359128000997,-1.0289137,8.786445,4.1922255,0.0,0.0,0.0
21359130380112,-1.0959128,8.819944,4.182654,0.0,0.0,0.0
21359132759227,-1.1294123,8.805588,4.1922255,0.0,0.0,0.0
21359135138341,-1.1437693,8.810373,4.211368,0.0,0.0,0.0
21359137517456,-1.1485549,8.834301,4.2257247,0.0,0.0,0.0
21359139896570,-1.1389836,8.853444,4.2592244,0.0,0.0,0.0
21359142275685,-1.0911272,8.882157,4.26401,0.0,0.0,0.0
21359144654799,-1.052842,8.877372,4.2687955,0.0,0.0,0.0
21359147033862,-1.0097711,8.863015,4.26401,0.0,0.0,0.0
21359149412977,-0.9379865,8.85823,4.287938,0.0,0.0,0.0
21359151792091,-0.8709874,8.848659,4.273581,0.0,0.0,0.0
21359154171206,-0.8135597,8.863015,4.287938,0.0,0.0,0.0
21359156550320,-0.79441714,8.848659,4.273581,0.0,0.0,0.0
21359158929435,-0.7800602,8.839087,4.26401,0.0,0.0,0.0
21359161308549,-0.7896315,8.829515,4.254439,0.0,0.0,0.0
21359163687664,-0.81834537,8.819944,4.26401,0.0,0.0,0.0
21359166066779,-0.89013004,8.829515,4.273581,0.0,0.0,0.0
21359168445893,-0.94755775,8.839087,4.287938,0.0,0.0,0.0
21359170824956,-1.0145568,8.839087,4.278367,0.0,0.0,0.0
21359173204070,-1.0815558,8.834301,4.3070807,0.0,0.0,0.0
21359175583185,-1.1581261,8.819944,4.316652,0.0,0.0,0.0
21359177962299,-1.2346965,8.829515,4.302295,0.0,0.0,0.0
21359180341414,-1.2969099,8.829515,4.316652,0.0,0.0,0.0
21359182720529,-1.3878372,8.810373,4.345366,0.0,0.0,0.0
21359185099643,-1.3974084,8.796016,4.3788652,0.0,0.0,0.0
21359187478758,-1.4069797,8.776874,4.398008,0.0,0.0,0.0
21359189857872,-1.3830515,8.786445,4.4075794,0.0,0.0,0.0
21359192236987,-1.3447664,8.776874,4.412365,0.0,0.0,0.0
21359194616049,-1.3351951,8.772088,4.412365,0.0,0.0,0.0
21359196995164,-1.2729816,8.772088,4.3932223,0.0,0.0,0.0
21359199374279,-1.2299109,8.796016,4.3501515,0.0,0.0,0.0
21359201753393,-1.18684,8.819944,4.3262234,0.0,0.0,0.0
21359204132508,-1.1389836,8.853444,4.321438,0.0,0.0,0.0
21359206511622,-1.1006985,8.863015,4.3118663,0.0,0.0,0.0
21359208890737,-1.0815558,8.906086,4.331009,0.0,0.0,0.0
21359211269852,-1.0863415,8.949157,4.3262234,0.0,0.0,0.0
21359213648966,-1.0959128,8.992228,4.3262234,0.0,0.0,0.0
21359216028081,-1.0911272,8.992228,4.302295,0.0,0.0,0.0
21359218407195,-1.134198,9.030513,4.2831526,0.0,0.0,0.0
21359220786258,-1.18684,9.040084,4.2831526,0.0,0.0,0.0
21359223165372,-1.2346965,9.025727,4.302295,0.0,0.0,0.0
21359225544487,-1.2969099,9.025727,4.3118663,0.0,0.0,0.0
21359227923602,-1.3591232,9.006584,4.2975097,0.0,0.0,0.0
21359230302716,-1.416551,8.9826565,4.3118663,0.0,0.0,0.0
21359232681831,-1.4548361,8.973084,4.331009,0.0,0.0,0.0
21359235060945,-1.4452649,8.9348,4.359723,0.0,0.0,0.0
21359237440060,-1.416551,8.944371,4.4075794,0.0,0.0,0.0
21359239819174,-1.3447664,8.949157,4.412365,0.0,0.0,0.0
21359242198237,-1.2729816,8.9108715,4.388437,0.0,0.0,0.0
21359244577352,-1.1437693,8.891729,4.3405805,0.0,0.0,0.0
21359246956466,-0.9954142,8.85823,4.249653,0.0,0.0,0.0
21359249335581,-0.86141616,8.7673025,4.168297,0.0,0.0,0.0
21359251714695,-0.75613195,8.705089,4.15394,0.0,0.0,0.0
21359254093810,-0.6221339,8.647661,4.23051,0.0,0.0,0.0
21359256472924,-0.56470615,8.633304,4.321438,0.0,0.0,0.0
21359258852039,-0.46899325,8.599805,4.3118663,0.0,0.0,0.0
21359261231154,-0.44506502,8.623733,4.249653,0.0,0.0,0.0
21359263610268,-0.41635114,8.657232,4.1347976,0.0,0.0,0.0
21359265989331,-0.3924229,8.666803,4.034299,0.0,0.0,0.0
21359268368445,-0.4019942,8.690732,4.024728,0.0,0.0,0.0
21359270747560,-0.4642076,8.733803,4.058227,0.0,0.0,0.0
21359273126674,-0.5407779,8.738588,4.115655,0.0,0.0,0.0
21359275505789,-0.6412765,8.738588,4.197011,0.0,0.0,0.0
21359277884904,-0.7704889,8.781659,4.254439,0.0,0.0,0.0
21359280264018,-0.90448695,8.815159,4.23051,0.0,0.0,0.0
21359282643133,-0.9667004,8.839087,4.197011,0.0,0.0,0.0
21359285022247,-1.0767702,8.848659,4.197011,0.0,0.0,0.0
21359287401362,-1.134198,8.863015,4.220939,0.0,0.0,0.0
21359289780477,-1.1820544,8.877372,4.3070807,0.0,0.0,0.0
21359292159539,-1.2299109,8.848659,4.388437,0.0,0.0,0.0
21359294538654,-1.1916257,8.848659,4.4075794,0.0,0.0,0.0
21359296917768,-1.1724831,8.867801,4.3836513,0.0,0.0,0.0
21359299296883,-1.119841,8.872586,4.3070807,0.0,0.0,0.0
21359301675997,-1.052842,8.877372,4.249653,0.0,0.0,0.0
21359304055112,-0.98584294,8.863015,4.2448673,0.0,0.0,0.0
21359306434227,-0.94755775,8.839087,4.287938,0.0,0.0,0.0
21359308813341,-0.89491564,8.819944,4.3836513,0.0,0.0,0.0
21359311192456,-0.8566305,8.786445,4.469793,0.0,0.0,0.0
21359313571570,-0.80877405,8.762517,4.4841495,0.0,0.0,0.0
21359315950633,-0.7896315,8.772088,4.4458647,0.0,0.0,0.0
21359318329747,-0.7848458,8.776874,4.354937,0.0,0.0,0.0
21359320708862,-0.81834537,8.786445,4.287938,0.0,0.0,0.0
21359323087977,-0.8279166,8.82473,4.273581,0.0,0.0,0.0
21359325467091,-0.8757731,8.82473,4.321438,0.0,0.0,0.0
21359327846206,-0.94277215,8.834301,4.3932223,0.0,0.0,0.0
21359330225320,-1.0193424,8.805588,4.421936,0.0,0.0,0.0
21359332604435,-1.0815558,8.800801,4.4075794,0.0,0.0,0.0
21359334983549,-1.1581261,8.781659,4.3501515,0.0,0.0,0.0
21359337362664,-1.2011969,8.805588,4.3357944,0.0,0.0,0.0
21359339741727,-1.2251252,8.786445,4.3262234,0.0,0.0,0.0
21359342120841,-1.1916257,8.796016,4.3357944,0.0,0.0,0.0
21359344499956,-1.2011969,8.800801,4.3645086,0.0,0.0,0.0
21359346879070,-1.18684,8.796016,4.388437,0.0,0.0,0.0
21359349258185,-1.1485549,8.772088,4.3932223,0.0,0.0,0.0
21359351637299,-1.1150553,8.7673025,4.359723,0.0,0.0,0.0
21359354016414,-1.0624132,8.819944,4.3405805,0.0,0.0,0.0
21359356395529,-1.0001999,8.810373,4.287938,0.0,0.0,0.0
21359358774643,-0.98584294,8.805588,4.278367,0.0,0.0,0.0
21359361153758,-0.9619147,8.815159,4.249653,0.0,0.0,0.0
21359363532820,-0.9284152,8.853444,4.2448673,0.0,0.0,0.0
21359365911935,-0.9379865,8.896515,4.2448673,0.0,0.0,0.0
21359368291049,-0.94755775,8.906086,4.249653,0.0,0.0,0.0
21359370670164,-0.971486,8.944371,4.2592244,0.0,0.0,0.0
21359373049279,-0.98584294,8.977871,4.2687955,0.0,0.0,0.0
21359375428393,-1.0480564,9.006584,4.287938,0.0,0.0,0.0
21359377807508,-1.0576276,9.035298,4.3118663,0.0,0.0,0.0
21359380186622,-1.105484,9.044869,4.3357944,0.0,0.0,0.0
21359382565737,-1.1389836,9.064013,4.359723,0.0,0.0,0.0
21359384944799,-1.1724831,9.059227,4.3501515,0.0,0.0,0.0
21359387323914,-1.2059826,9.025727,4.321438,0.0,0.0,0.0
21359389703029,-1.18684,9.006584,4.302295,0.0,0.0,0.0
21359392082143,-1.1916257,8.968299,4.2975097,0.0,0.0,0.0
21359394461258,-1.1820544,8.886943,4.316652,0.0,0.0,0.0
21359396840372,-1.134198,8.843872,4.369294,0.0,0.0,0.0
21359399219487,-1.0911272,8.810373,4.412365,0.0,0.0,0.0
21359401598602,-1.0289137,8.781659,4.436293,0.0,0.0,0.0
21359403977716,-0.93320084,8.71466,4.412365,0.0,0.0,0.0
21359406356831,-0.8327023,8.695518,4.359723,0.0,0.0,0.0
21359408735893,-0.72263247,8.700303,4.2831526,0.0,0.0,0.0
21359411115008,-0.63170516,8.666803,4.2257247,0.0,0.0,0.0
21359413494122,-0.57427746,8.690732,4.211368,0.0,0.0,0.0
21359415873237,-0.5168497,8.681161,4.23051,0.0,0.0,0.0
21359418252352,-0.49292147,8.676374,4.2592244,0.0,0.0,0.0
21359420631466,-0.4833502,8.681161,4.26401,0.0,0.0,0.0
21359423010581,-0.5407779,8.695518,4.2687955,0.0,0.0,0.0
21359425389695,-0.5886344,8.719446,4.254439,0.0,0.0,0.0
21359427768758,-0.6269195,8.752945,4.249653,0.0,0.0,0.0
21359430147924,-0.6891329,8.781659,4.23051,0.0,0.0,0.0
21359432526987,-0.7800602,8.805588,4.240082,0.0,0.0,0.0
21359434906102,-0.85184485,8.829515,4.2592244,0.0,0.0,0.0
21359437285216,-0.91884387,8.82473,4.278367,0.0,0.0,0.0
21359439664331,-0.9667004,8.829515,4.2687955,0.0,0.0,0.0
21359442043445,-1.0241281,8.85823,4.2448673,0.0,0.0,0.0
21359444422560,-1.0624132,8.872586,4.206582,0.0,0.0,0.0
21359446801674,-1.0719845,8.853444,4.220939,0.0,0.0,0.0
21359449180789,-1.0624132,8.819944,4.249653,0.0,0.0,0.0
21359451559904,-1.0576276,8.805588,4.278367,0.0,0.0,0.0
21359453939018,-1.0432707,8.786445,4.3262234,0.0,0.0,0.0
21359456318081,-1.0097711,8.786445,4.3357944,0.0,0.0,0.0
21359458697195,-0.9667004,8.815159,4.3262234,0.0,0.0,0.0
21359461076310,-0.9092726,8.815159,4.287938,0.0,0.0,0.0
21359463455424,-0.85184485,8.834301,4.278367,0.0,0.0,0.0
21359465834539,-0.8279166,8.839087,4.2975097,0.0,0.0,0.0
21359468213654,-0.80877405,8.848659,4.3645086,0.0,0.0,0.0
21359470592768,-0.8039884,8.85823,4.412365,0.0,0.0,0.0
21359472971883,-0.82313097,8.891729,4.4554358,0.0,0.0,0.0
21359475350997,-0.8805587,8.9108715,4.465007,0.0,0.0,0.0
21359477730060,-0.9284152,8.930014,4.4315076,0.0,0.0,0.0
21359480109174,-0.9762716,8.958728,4.388437,0.0,0.0,0.0
21359482488289,-1.0193424,8.973084,4.369294,0.0,0.0,0.0
21359484867404,-1.1006985,8.977871,4.388437,0.0,0.0,0.0
21359487246518,-1.1389836,8.953942,4.426722,0.0,0.0,0.0
21359489625633,-1.1772687,8.944371,4.465007,0.0,0.0,0.0
21359492004747,-1.2059826,8.930014,4.4602213,0.0,0.0,0.0
21359494383862,-1.2011969,8.9108715,4.412365,0.0,0.0,0.0
21359496762977,-1.253839,8.886943,4.3357944,0.0,0.0,0.0
21359499142091,-1.2155539,8.891729,4.2927237,0.0,0.0,0.0
21359501521154,-1.1820544,8.886943,4.287938,0.0,0.0,0.0
21359503900216,-1.1437693,8.863015,4.287938,0.0,0.0,0.0
21359506279383,-1.0767702,8.839087,4.2975097,0.0,0.0,0.0
21359508658497,-1.0097711,8.834301,4.2687955,0.0,0.0,0.0
21359511037612,-0.9284152,8.805588,4.211368,0.0,0.0,0.0
21359513416727,-0.8470592,8.796016,4.1922255,0.0,0.0,0.0
21359515795841,-0.7896315,8.772088,4.1635113,0.0,0.0,0.0
21359518174956,-0.7082755,8.7673025,4.173083,0.0,0.0,0.0
21359520554070,-0.6556334,8.748159,4.1922255,0.0,0.0,0.0
21359522933185,-0.6364908,8.7577305,4.1922255,0.0,0.0,0.0
21359525312247,-0.6029913,8.738588,4.211368,0.0,0.0,0.0
21359527691362,-0.57906306,8.7577305,4.197011,0.0,0.0,0.0
21359530070477,-0.57427746,8.738588,4.168297,0.0,0.0,0.0
21359532449591,-0.57906306,8.752945,4.173083,0.0,0.0,0.0
21359534828706,-0.6221339,8.772088,4.1874394,0.0,0.0,0.0
21359537207820,-0.67477596,8.786445,4.2161536,0.0,0.0,0.0
21359539586935,-0.7178468,8.810373,4.240082,0.0,0.0,0.0
21359541966049,-0.7752745,8.843872,4.249653,0.0,0.0,0.0
21359544345164,-0.80877405,8.886943,4.249653,0.0,0.0,0.0
21359546724227,-0.8422736,8.896515,4.254439,0.0,0.0,0.0
21359549103341,-0.8566305,8.930014,4.2592244,0.0,0.0,0.0
21359551482456,-0.85184485,8.915657,4.273581,0.0,0.0,0.0
21359553861570,-0.8805587,8.925228,4.302295,0.0,0.0,0.0
21359556240685,-0.8709874,8.930014,4.354937,0.0,0.0,0.0
21359558619799,-0.8422736,8.915657,4.3740797,0.0,0.0,0.0
21359560998914,-0.81834537,8.891729,4.3836513,0.0,0.0,0.0
21359563378029,-0.7704889,8.867801,4.3932223,0.0,0.0,0.0
21359565757143,-0.72741807,8.85823,4.388437,0.0,0.0,0.0
21359568136258,-0.66999036,8.834301,4.3836513,0.0,0.0,0.0
21359570515320,-0.6221339,8.796016,4.3788652,0.0,0.0,0.0
21359572894435,-0.59342,8.800801,4.369294,0.0,0.0,0.0
21359575273549,-0.5599205,8.79123,4.3740797,0.0,0.0,0.0
21359577652664,-0.5312066,8.762517,4.3740797,0.0,0.0,0.0
21359580031779,-0.5312066,8.776874,4.359723,0.0,0.0,0.0
21359582410893,-0.53599226,8.748159,4.345366,0.0,0.0,0.0
21359584790008,-0.5694918,8.724232,4.354937,0.0,0.0,0.0
21359587169122,-0.61734825,8.748159,4.369294,0.0,0.0,0.0
21359589548237,-0.6795616,8.738588,4.388437,0.0,0.0,0.0
21359591927352,-0.7465607,8.762517,4.388437,0.0,0.0,0.0
21359594306414,-0.79441714,8.79123,4.369294,0.0,0.0,0.0
21359596685529,-0.8566305,8.819944,4.3357944,0.0,0.0,0.0
21359599064643,-0.9284152,8.839087,4.331009,0.0,0.0,0.0
21359601443758,-1.0097711,8.863015,4.3118663,0.0,0.0,0.0
21359603822872,-1.0241281,8.906086,4.2975097,0.0,0.0,0.0
21359606201987,-1.0767702,8.939586,4.3070807,0.0,0.0,0.0
21359608581102,-1.1102697,8.963513,4.3070807,0.0,0.0,0.0
21359610960216,-1.1246266,8.949157,4.2975097,0.0,0.0,0.0
21359613339331,-1.1581261,8.958728,4.2975097,0.0,0.0,0.0
21359615718393,-1.18684,8.963513,4.3262234,0.0,0.0,0.0
21359618097508,-1.1916257,8.987442,4.3357944,0.0,0.0,0.0
21359620476622,-1.1676974,8.949157,4.316652,0.0,0.0,0.0
21359622855737,-1.1294123,8.949157,4.2975097,0.0,0.0,0.0
21359625234852,-1.1006985,8.930014,4.273581,0.0,0.0,0.0
21359627613966,-1.052842,8.930014,4.278367,0.0,0.0,0.0
21359629993081,-1.0241281,8.930014,4.3118663,0.0,0.0,0.0
21359632372195,-0.9810573,8.920443,4.331009,0.0,0.0,0.0
21359634751310,-0.9379865,8.9013,4.3118663,0.0,0.0,0.0
21359637130372,-0.8566305,8.896515,4.2831526,0.0,0.0,0.0
21359639509487,-0.8327023,8.886943,4.287938,0.0,0.0,0.0
21359641888602,-0.7704889,8.839087,4.2927237,0.0,0.0,0.0
21359644267716,-0.74177504,8.829515,4.331009,0.0,0.0,0.0
21359646646831,-0.72741807,8.82473,4.359723,0.0,0.0,0.0
21359649025945,-0.6987042,8.800801,4.3740797,0.0,0.0,0.0
21359651405060,-0.6843473,8.772088,4.345366,0.0,0.0,0.0
21359653784174,-0.65084773,8.762517,4.2927237,0.0,0.0,0.0
21359656163289,-0.6364908,8.724232,4.254439,0.0,0.0,0.0
21359658542352,-0.6364908,8.752945,4.2352962,0.0,0.0,0.0
21359660921466,-0.64606214,8.743374,4.220939,0.0,0.0,0.0
21359663300581,-0.6221339,8.738588,4.273581,0.0,0.0,0.0
21359665679695,-0.57427746,8.719446,4.273581,0.0,0.0,0.0
21359668058810,-0.5838487,8.733803,4.2592244,0.0,0.0,0.0
21359670437924,-0.5838487,8.748159,4.254439,0.0,0.0,0.0
21359672817039,-0.5694918,8.743374,4.2592244,0.0,0.0,0.0
21359675196154,-0.5886344,8.781659,4.26401,0.0,0.0,0.0
21359677575268,-0.5886344,8.815159,4.26401,0.0,0.0,0.0
21359679954383,-0.59342,8.805588,4.240082,0.0,0.0,0.0
21359682333497,-0.59342,8.848659,4.2352962,0.0,0.0,0.0
21359684712560,-0.5982057,8.872586,4.2257247,0.0,0.0,0.0
21359687091674,-0.60777694,8.882157,4.220939,0.0,0.0,0.0
21359689470789,-0.60777694,8.877372,4.220939,0.0,0.0,0.0
21359691849904,-0.5982057,8.882157,4.2687955,0.0,0.0,0.0
21359694229018,-0.6125626,8.863015,4.3070807,0.0,0.0,0.0
21359696608133,-0.61734825,8.877372,4.316652,0.0,0.0,0.0
21359698987247,-0.6029913,8.85823,4.2687955,0.0,0.0,0.0
21359701366362,-0.5982057,8.85823,4.2161536,0.0,0.0,0.0
21359703745424,-0.6125626,8.872586,4.206582,0.0,0.0,0.0
21359706124539,-0.60777694,8.9108715,4.173083,0.0,0.0,0.0
21359708503654,-0.61734825,8.925228,4.2017965,0.0,0.0,0.0
21359710882768,-0.67477596,8.930014,4.2352962,0.0,0.0,0.0
21359713261883,-0.7082755,8.9013,4.2687955,0.0,0.0,0.0
21359715640893,-0.7465607,8.925228,4.2975097,0.0,0.0,0.0
21359718020112,-0.7465607,8.925228,4.316652,0.0,0.0,0.0
21359720399227,-0.7896315,8.9108715,4.3501515,0.0,0.0,0.0
21359722778341,-0.8135597,8.877372,4.412365,0.0,0.0,0.0
21359725157404,-0.7800602,8.863015,4.4602213,0.0,0.0,0.0
21359727536518,-0.79441714,8.79123,4.493721,0.0,0.0,0.0
21359729915633,-0.7848458,8.781659,4.508078,0.0,0.0,0.0
21359732294747,-0.76570326,8.7577305,4.4985065,0.0,0.0,0.0
21359734673862,-0.7752745,8.743374,4.4602213,0.0,0.0,0.0
21359737052977,-0.76570326,8.685946,4.4315076,0.0,0.0,0.0
21359739432091,-0.74177504,8.662018,4.388437,0.0,0.0,0.0
21359741811206,-0.75613195,8.633304,4.3645086,0.0,0.0,0.0
21359744190320,-0.7752745,8.652447,4.354937,0.0,0.0,0.0
21359746569383,-0.7896315,8.681161,4.331009,0.0,0.0,0.0
21359748948497,-0.8422736,8.690732,4.278367,0.0,0.0,0.0
21359751327560,-0.8757731,8.695518,4.2161536,0.0,0.0,0.0
21359753706727,-0.94755775,8.772088,4.23051,0.0,0.0,0.0
21359756085841,-0.9762716,8.810373,4.249653,0.0,0.0,0.0
21359758464956,-1.0911272,8.85823,4.2352962,0.0,0.0,0.0
21359760844070,-1.1389836,8.925228,4.2161536,0.0,0.0,0.0
21359763223185,-1.2059826,8.992228,4.211368,0.0,0.0,0.0
21359765602299,-1.2299109,9.044869,4.2161536,0.0,0.0,0.0
21359767981362,-1.3016955,9.107083,4.2352962,0.0,0.0,0.0
21359770360477,-1.282553,9.12144,4.273581,0.0,0.0,0.0
21359772739591,-1.3016955,9.159725,4.359723,0.0,0.0,0.0
21359775118706,-1.253839,9.245867,4.4841495,0.0,0.0,0.0
21359777497820,-1.1772687,9.260223,4.5942197,0.0,0.0,0.0
21359779876935,-1.0719845,9.241081,4.6325045,0.0,0.0,0.0
21359782256049,-0.94277215,9.245867,4.584648,0.0,0.0,0.0
21359784635164,-0.82313097,9.202796,4.465007,0.0,0.0,0.0
21359787014279,-0.70348984,9.083155,4.369294,0.0,0.0,0.0
21359789393393,-0.6364908,8.958728,4.3501515,0.0,0.0,0.0
21359791772456,-0.5024927,8.738588,4.3405805,0.0,0.0,0.0
21359794151570,-0.5694918,8.690732,4.5224347,0.0,0.0,0.0
21359796530633,-0.47377887,8.499306,4.570291,0.0,0.0,0.0
21359798909799,-0.526421,8.556734,4.6468616,0.0,0.0,0.0
21359801288914,-0.4354937,8.571091,4.4554358,0.0,0.0,0.0
21359803668029,-0.5024927,8.662018,4.26401,0.0,0.0,0.0
21359806047143,-0.45942193,8.666803,4.0677986,0.0,0.0,0.0
21359808426258,-0.49292147,8.705089,4.024728,0.0,0.0,0.0
21359810805320,-0.44027936,8.719446,4.091727,0.0,0.0,0.0
21359813184435,-0.4833502,8.724232,4.1874394,0.0,0.0,0.0
21359815563549,-0.4642076,8.743374,4.254439,0.0,0.0,0.0
21359817942664,-0.56470615,8.815159,4.2017965,0.0,0.0,0.0
21359820321779,-0.60777694,8.867801,4.0965123,0.0,0.0,0.0
21359822700893,-0.6891329,8.925228,3.9864426,0.0,0.0,0.0
21359825080008,-0.6843473,8.949157,3.952943,0.0,0.0,0.0
21359827459122,-0.6556334,8.973084,4.048656,0.0,0.0,0.0
21359829838237,-0.63170516,8.944371,4.197011,0.0,0.0,0.0
21359832217352,-0.5838487,8.896515,4.302295,0.0,0.0,0.0
21359834596414,-0.52163535,8.85823,4.316652,0.0,0.0,0.0
21359836975529,-0.44985065,8.85823,4.254439,0.0,0.0,0.0
21359839354643,-0.41635114,8.85823,4.15394,0.0,0.0,0.0
21359841733758,-0.35413775,8.839087,4.0965123,0.0,0.0,0.0
21359844112872,-0.31106696,8.829515,4.130012,0.0,0.0,0.0
21359846491987,-0.26799613,8.772088,4.2352962,0.0,0.0,0.0
21359848871102,-0.2727818,8.729017,4.345366,0.0,0.0,0.0
21359851250216,-0.29671,8.671589,4.398008,0.0,0.0,0.0
21359853629279,-0.3589234,8.63809,4.3645086,0.0,0.0,0.0
21359856008393,-0.44985065,8.6141615,4.278367,0.0,0.0,0.0
21359858387508,-0.53599226,8.590233,4.23051,0.0,0.0,0.0
21359860766622,-0.6364908,8.556734,4.240082,0.0,0.0,0.0
21359863145737,-0.70348984,8.52802,4.2831526,0.0,0.0,0.0
21359865524852,-0.79441714,8.52802,4.354937,0.0,0.0,0.0
21359867903966,-0.8709874,8.575876,4.3836513,0.0,0.0,0.0
21359870283081,-0.93320084,8.599805,4.354937,0.0,0.0,0.0
21359872662195,-1.0049855,8.652447,4.273581,0.0,0.0,0.0
21359875041258,-1.052842,8.71466,4.206582,0.0,0.0,0.0
21359877420372,-1.1294123,8.7673025,4.173083,0.0,0.0,0.0
21359879799487,-1.1772687,8.772088,4.2257247,0.0,0.0,0.0
21359882178602,-1.2442678,8.810373,4.316652,0.0,0.0,0.0
21359884557716,-1.268196,8.867801,4.4171505,0.0,0.0,0.0
21359886936831,-1.2634103,8.9348,4.4602213,0.0,0.0,0.0
21359889315945,-1.2634103,8.987442,4.436293,0.0,0.0,0.0
21359891695060,-1.2155539,9.064013,4.398008,0.0,0.0,0.0
21359894074174,-1.1724831,9.126225,4.388437,0.0,0.0,0.0
21359896453237,-1.0863415,9.150154,4.4458647,0.0,0.0,0.0
21359898832352,-0.9906286,9.174082,4.508078,0.0,0.0,0.0
21359901211466,-0.8997013,9.140582,4.5798626,0.0,0.0,0.0
21359903590581,-0.82313097,9.12144,4.5894337,0.0,0.0,0.0
21359905969695,-0.7704889,9.097511,4.5415773,0.0,0.0,0.0
21359908348810,-0.75613195,9.064013,4.479364,0.0,0.0,0.0
21359910727924,-0.7082755,9.016156,4.436293,0.0,0.0,0.0
21359913107039,-0.6795616,8.987442,4.412365,0.0,0.0,0.0
21359915486102,-0.6269195,8.930014,4.45065,0.0,0.0,0.0
21359917865216,-0.6125626,8.896515,4.469793,0.0,0.0,0.0
21359920244331,-0.57906306,8.848659,4.469793,0.0,0.0,0.0
21359922623445,-0.5838487,8.815159,4.426722,0.0,0.0,0.0
21359925002560,-0.5312066,8.815159,4.316652,0.0,0.0,0.0
21359927381674,-0.5024927,8.819944,4.2257247,0.0,0.0,0.0
21359929760789,-0.52163535,8.805588,4.1635113,0.0,0.0,0.0
21359932139904,-0.53599226,8.82473,4.1778684,0.0,0.0,0.0
21359934519018,-0.55034924,8.843872,4.2257247,0.0,0.0,0.0
21359936898081,-0.57427746,8.848659,4.2592244,0.0,0.0,0.0
21359939277195,-0.59342,8.886943,4.23051,0.0,0.0,0.0
21359941656310,-0.61734825,8.939586,4.173083,0.0,0.0,0.0
21359944035424,-0.63170516,8.963513,4.130012,0.0,0.0,0.0
21359946414539,-0.63170516,8.949157,4.091727,0.0,0.0,0.0
21359948793654,-0.6364908,8.829515,4.024728,0.0,0.0,0.0
21359951172768,-0.63170516,8.346166,3.818945,0.0,0.0,0.0
21359953551883,-0.61734825,8.465807,3.871587,0.0,0.0,0.0
21359955930997,-0.39720857,9.078369,3.5700915,0.0,0.0,0.0
21359958310060,-0.5886344,9.159725,2.833102,0.0,0.0,0.0
21359960689174,-0.56470615,9.035298,2.9096723,0.0,0.0,0.0
21359963068289,-0.16271193,8.9348,3.5030923,0.0,0.0,0.0
21359965447404,-0.2727818,8.829515,3.8237305,0.0,0.0,0.0
21359967826518,-0.38763726,8.805588,3.818945,0.0,0.0,0.0
21359970205633,-0.038285162,9.619147,4.0869412,0.0,0.0,0.0
21359972584747,-0.033499517,9.676575,3.9433718,0.0,0.0,0.0
21359974963862,-0.3684947,8.915657,3.8907297,0.0,0.0,0.0
21359977342977,0.17706887,9.212367,4.599005,0.0,0.0,0.0
21359979722039,0.22013968,9.394221,4.9866424,0.0,0.0,0.0
21359982101154,-0.28713873,8.882157,5.1924253,0.0,0.0,0.0
21359984480268,0.047856454,8.623733,5.2929235,0.0,0.0,0.0
21359986859383,0.043070808,9.068798,5.235496,0.0,0.0,0.0
21359989238497,-0.35413775,9.3511505,4.6707897,0.0,0.0,0.0
21359991617612,-0.5072784,8.815159,3.4695928,0.0,0.0,0.0
21359993996727,-0.31585258,9.202796,3.2638102,0.0,0.0,0.0
21359996375841,-0.7465607,9.01137,3.4504502,0.0,0.0,0.0
21359998754956,-0.9954142,8.963513,4.599005,0.0,0.0,0.0
21360001134018,-0.8470592,8.82473,5.1828537,0.0,0.0,0.0
21360003513133,-1.038485,8.9013,5.063213,0.0,0.0,0.0
21360005892247,-1.2107682,8.599805,4.398008,0.0,0.0,0.0
21360008271362,-1.105484,8.595019,4.1204405,0.0,0.0,0.0
21360010650477,-1.0001999,8.748159,3.9625144,0.0,0.0,0.0
21360013029591,-1.2059826,8.513663,3.8907297,0.0,0.0,0.0
21360015408706,-1.1533405,8.432307,4.4602213,0.0,0.0,0.0
21360017787820,-0.971486,8.355737,5.005785,0.0,0.0,0.0
21360020166883,-1.0336994,8.465807,5.1206403,0.0,0.0,0.0
21360022545997,-0.9810573,8.384451,4.6372905,0.0,0.0,0.0
21360024925112,-0.82313097,8.523234,4.101298,0.0,0.0,0.0
21360027304227,-0.7465607,8.695518,3.7088752,0.0,0.0,0.0
21360029683341,-0.72741807,8.705089,3.656233,0.0,0.0,0.0
21360032062456,-0.56470615,8.752945,3.991228,0.0,0.0,0.0
21360034441570,-0.52163535,8.772088,4.4315076,0.0,0.0,0.0
21360036820685,-0.61734825,8.819944,4.766503,0.0,0.0,0.0
21360039199799,-0.6125626,8.724232,4.761717,0.0,0.0,0.0
21360041578862,-0.6556334,8.872586,4.6755753,0.0,0.0,0.0
21360043957977,-0.7322037,8.843872,4.3645086,0.0,0.0,0.0
21360046337091,-0.91405827,8.863015,4.4171505,0.0,0.0,0.0
21360048716206,-0.94755775,8.853444,4.709075,0.0,0.0,0.0
21360051095320,-1.0289137,8.810373,5.1014977,0.0,0.0,0.0
21360053474435,-1.0959128,8.752945,5.393422,0.0,0.0,0.0
21360055853549,-1.0911272,8.839087,5.4412785,0.0,0.0,0.0
21360058232664,-0.98584294,8.930014,5.139783,0.0,0.0,0.0
21360060611779,-0.90448695,9.016156,4.6755753,0.0,0.0,0.0
21360062990841,-0.76570326,9.135797,4.388437,0.0,0.0,0.0
21360065369956,-0.5886344,9.12144,4.345366,0.0,0.0,0.0
21360067749070,-0.52163535,9.068798,4.5320063,0.0,0.0,0.0
21360070128185,-0.40677986,8.977871,4.85743,0.0,0.0,0.0
21360072507299,-0.3062813,8.9108715,5.0823555,0.0,0.0,0.0
21360074886414,-0.13878371,8.786445,5.048856,0.0,0.0,0.0
21360077265529,-0.0526421,8.738588,4.8287163,0.0,0.0,0.0
21360079644643,0.11006984,8.719446,4.546363,0.0,0.0,0.0
21360082023706,0.18664017,8.709874,4.388437,0.0,0.0,0.0
21360084402820,0.2727818,8.748159,4.412365,0.0,0.0,0.0
21360086781935,0.35413775,8.748159,4.4985065,0.0,0.0,0.0
21360089161049,0.37806597,8.781659,4.536792,0.0,0.0,0.0
21360091540164,0.4546363,8.839087,4.436293,0.0,0.0,0.0
21360093919279,0.47856453,8.930014,4.2352962,0.0,0.0,0.0
21360096298393,0.4977071,9.006584,4.0103707,0.0,0.0,0.0
21360098677508,0.47856453,9.073584,3.8955152,0.0,0.0,0.0
21360101056570,0.41156548,9.15494,3.9864426,0.0,0.0,0.0
21360103435685,0.31106696,9.169296,4.168297,0.0,0.0,0.0
21360105814799,0.18664017,9.15494,4.316652,0.0,0.0,0.0
21360108193914,0.15314065,9.116654,4.287938,0.0,0.0,0.0
21360110573029,0.08135597,9.08794,4.0534415,0.0,0.0,0.0
21360112952143,0.038285162,9.083155,3.7615173,0.0,0.0,0.0
21360115331258,-0.009571291,9.016156,3.6083765,0.0,0.0,0.0
21360117710372,-0.02871387,8.915657,3.6370904,0.0,0.0,0.0
21360120089487,-0.086141616,8.829515,3.8237305,0.0,0.0,0.0
21360122468549,-0.1052842,8.729017,3.9673,0.0,0.0,0.0
21360124847664,-0.13878371,8.647661,3.9625144,0.0,0.0,0.0
21360127226779,-0.18664017,8.590233,3.818945,0.0,0.0,0.0
21360129605893,-0.19621146,8.537591,3.6275191,0.0,0.0,0.0
21360131985008,-0.22013968,8.4705925,3.5605202,0.0,0.0,0.0
21360134364122,-0.2727818,8.41795,3.7328033,0.0,0.0,0.0
21360136743237,-0.31106696,8.365308,3.9720855,0.0,0.0,0.0
21360139122352,-0.3924229,8.389236,4.182654,0.0,0.0,0.0
21360141501414,-0.42592242,8.41795,4.2017965,0.0,0.0,0.0
21360143880529,-0.4546363,8.4705925,4.0965123,0.0,0.0,0.0
21360146259643,-0.4642076,8.575876,4.0007997,0.0,0.0,0.0
21360148638758,-0.5599205,8.685946,4.0534415,0.0,0.0,0.0
21360151017872,-0.59342,8.7673025,4.2161536,0.0,0.0,0.0
21360153396987,-0.66041905,8.843872,4.3836513,0.0,0.0,0.0
21360155776102,-0.7369894,8.953942,4.5128636,0.0,0.0,0.0
21360158155216,-0.8135597,8.973084,4.4841495,0.0,0.0,0.0
21360160534331,-0.9523434,9.078369,4.4745784,0.0,0.0,0.0
21360162913393,-1.105484,9.150154,4.4889355,0.0,0.0,0.0
21360165292508,-1.3495519,9.188439,4.570291,0.0,0.0,0.0
21360167671622,-1.5744773,9.183653,4.7138605,0.0,0.0,0.0
21360170050737,-1.8041883,9.188439,4.8287163,0.0,0.0,0.0
21360172429852,-2.024328,9.241081,4.910072,0.0,0.0,0.0
21360174808966,-2.172683,9.260223,4.881358,0.0,0.0,0.0
21360177188081,-2.2779672,9.284152,4.8047876,0.0,0.0,0.0
21360179567143,-2.321038,9.260223,4.694718,0.0,0.0,0.0
21360181946258,-2.3688943,9.226724,4.6372905,0.0,0.0,0.0
21360184325372,-2.2971098,9.15494,4.575077,0.0,0.0,0.0
21360186704487,-2.239682,9.083155,4.5272202,0.0,0.0,0.0
21360189083602,-2.1296122,9.01137,4.4889355,0.0,0.0,0.0
21360191462716,-2.024328,8.906086,4.45065,0.0,0.0,0.0
21360193841831,-1.8807586,8.815159,4.398008,0.0,0.0,0.0
21360196220945,-1.713261,8.748159,4.359723,0.0,0.0,0.0
21360198600060,-1.5840486,8.700303,4.302295,0.0,0.0,0.0
21360200979174,-1.416551,8.690732,4.278367,0.0,0.0,0.0
21360203358289,-1.282553,8.681161,4.287938,0.0,0.0,0.0
21360205737352,-1.1581261,8.695518,4.302295,0.0,0.0,0.0
21360208116466,-1.0576276,8.690732,4.2831526,0.0,0.0,0.0
21360210495581,-0.9379865,8.719446,4.249653,0.0,0.0,0.0
21360212874695,-0.8662018,8.733803,4.2257247,0.0,0.0,0.0
21360215253810,-0.83748794,8.781659,4.2687955,0.0,0.0,0.0
21360217632924,-0.8135597,8.7673025,4.3070807,0.0,0.0,0.0
21360220012039,-0.89013004,8.776874,4.2927237,0.0,0.0,0.0
21360222391154,-0.9379865,8.781659,4.211368,0.0,0.0,0.0
21360224770216,-1.0001999,8.796016,4.115655,0.0,0.0,0.0
21360227149331,-1.0480564,8.781659,4.048656,0.0,0.0,0.0
21360229528445,-1.1006985,8.810373,4.0965123,0.0,0.0,0.0
21360231907560,-1.134198,8.819944,4.2687955,0.0,0.0,0.0
21360234286674,-1.0815558,8.786445,4.3501515,0.0,0.0,0.0
21360236665789,-1.038485,8.882157,4.3118663,0.0,0.0,0.0
21360239044904,-0.9236295,8.949157,4.125226,0.0,0.0,0.0
21360241424018,-0.8279166,8.997013,3.9625144,0.0,0.0,0.0
21360243803081,-0.6891329,9.030513,3.885944,0.0,0.0,0.0
21360246182195,-0.5455636,9.035298,3.9338005,0.0,0.0,0.0
21360248561310,-0.37806597,9.030513,4.0869412,0.0,0.0,0.0
21360250940424,-0.20578274,8.977871,4.1587257,0.0,0.0,0.0
21360253319539,-0.038285162,8.9826565,4.1778684,0.0,0.0,0.0
21360255698654,0.12921242,8.953942,4.139583,0.0,0.0,0.0
21360258077768,0.32063824,8.882157,4.0965123,0.0,0.0,0.0
21360260456831,0.47856453,8.891729,4.1347976,0.0,0.0,0.0
21360262835945,0.5599205,8.848659,4.1778684,0.0,0.0,0.0
21360265215060,0.64606214,8.719446,4.220939,0.0,0.0,0.0
21360267594174,0.6029913,8.666803,4.273581,0.0,0.0,0.0
21360269973289,0.5168497,8.623733,4.240082,0.0,0.0,0.0
21360272352404,0.3684947,8.551949,4.139583,0.0,0.0,0.0
21360274731518,0.18185452,8.537591,3.9720855,0.0,0.0,0.0
21360277110633,-0.09092726,8.523234,3.8907297,0.0,0.0,0.0
21360279489747,-0.32542387,8.49452,3.9625144,0.0,0.0,0.0
21360281868862,-0.59342,8.451449,4.2017965,0.0,0.0,0.0
21360284247924,-0.7896315,8.384451,4.3405805,0.0,0.0,0.0
21360286627039,-0.9906286,8.437093,4.3118663,0.0,0.0,0.0
21360289006154,-1.1294123,8.489735,4.091727,0.0,0.0,0.0
21360291385268,-1.2299109,8.580662,3.8476589,0.0,0.0,0.0
21360293764383,-1.3064811,8.662018,3.6658044,0.0,0.0,0.0
21360296143497,-1.3399807,8.772088,3.7136607,0.0,0.0,0.0
21360298522612,-1.3016955,8.819944,3.885944,0.0,0.0,0.0
21360300901674,-1.2346965,8.896515,4.130012,0.0,0.0,0.0
21360303280789,-1.1246266,8.9826565,4.254439,0.0,0.0,0.0
21360305659904,-0.91884387,9.083155,4.1108694,0.0,0.0,0.0
21360308039018,-0.7848458,9.202796,3.8572302,0.0,0.0,0.0
21360310418133,-0.59342,9.274581,3.737589,0.0,0.0,0.0
21360312797247,-0.41156548,9.284152,3.8620157,0.0,0.0,0.0
21360315176362,-0.2009971,9.260223,4.1443686,0.0,0.0,0.0
21360317555477,-0.10049855,9.236296,4.45065,0.0,0.0,0.0
21360319934591,0.033499517,9.193225,4.5798626,0.0,0.0,0.0
21360322313706,0.1052842,9.217153,4.517649,0.0,0.0,0.0
21360324692768,0.11006984,9.221938,4.354937,0.0,0.0,0.0
21360327071883,0.047856454,9.159725,4.249653,0.0,0.0,0.0
21360329450997,-0.08135597,9.116654,4.426722,0.0,0.0,0.0
21360331830112,-0.23928227,9.044869,4.723432,0.0,0.0,0.0
21360334209227,-0.5455636,9.001799,5.015356,0.0,0.0,0.0
21360336588341,-0.72741807,9.01137,5.1924253,0.0,0.0,0.0
21360338967456,-0.95712906,9.016156,5.1206403,0.0,0.0,0.0
21360341346518,-1.1533405,9.020942,4.991428,0.0,0.0,0.0
21360343725633,-1.2777673,9.025727,4.871787,0.0,0.0,0.0
21360346104747,-1.4452649,9.020942,4.914858,0.0,0.0,0.0
21360348483862,-1.4883357,8.987442,5.0536413,0.0,0.0,0.0
21360350862977,-1.550549,9.006584,5.072784,0.0,0.0,0.0
21360353242091,-1.5457634,9.064013,4.948357,0.0,0.0,0.0
21360355621206,-1.5170496,9.044869,4.7042894,0.0,0.0,0.0
21360358000268,-1.416551,8.997013,4.4841495,0.0,0.0,0.0
21360360379383,-1.2586247,8.930014,4.402794,0.0,0.0,0.0
21360362758497,-1.1246266,8.82473,4.4745784,0.0,0.0,0.0
21360365137612,-0.9236295,8.79123,4.584648,0.0,0.0,0.0
21360367516727,-0.7178468,8.7673025,4.5655055,0.0,0.0,0.0
21360369895841,-0.51206404,8.781659,4.3405805,0.0,0.0,0.0
21360372274956,-0.36370903,8.796016,4.048656,0.0,0.0,0.0
21360374654070,-0.2009971,8.79123,3.871587,0.0,0.0,0.0
21360377033185,-0.09092726,8.79123,3.885944,0.0,0.0,0.0
21360379412299,-0.038285162,8.762517,4.0390844,0.0,0.0,0.0
21360381791362,-0.076570325,8.752945,4.1922255,0.0,0.0,0.0
21360384170477,-0.15792629,8.776874,4.206582,0.0,0.0,0.0
21360386549591,-0.3684947,8.82473,4.082155,0.0,0.0,0.0
21360388928706,-0.5838487,8.848659,3.8763726,0.0,0.0,0.0
21360391307820,-0.79441714,8.882157,3.751946,0.0,0.0,0.0
21360393686935,-1.0336994,8.968299,3.842873,0.0,0.0,0.0
21360396066049,-1.2586247,8.939586,4.0677986,0.0,0.0,0.0
21360398445164,-1.4835501,8.872586,4.254439,0.0,0.0,0.0
21360400824227,-1.6175481,8.920443,4.316652,0.0,0.0,0.0
21360403203341,-1.713261,8.953942,4.220939,0.0,0.0,0.0
21360405582456,-1.7371893,8.906086,4.091727,0.0,0.0,0.0
21360407961570,-1.698904,8.863015,4.019942,0.0,0.0,0.0
21360410340685,-1.6558332,8.882157,4.115655,0.0,0.0,0.0
21360412719799,-1.5409778,8.79123,4.249653,0.0,0.0,0.0
21360415098914,-1.416551,8.719446,4.3357944,0.0,0.0,0.0
21360417478029,-1.2251252,8.743374,4.3070807,0.0,0.0,0.0
21360419857091,-1.0576276,8.719446,4.15394,0.0,0.0,0.0
21360422236206,-0.81834537,8.652447,3.9816568,0.0,0.0,0.0
21360424615320,-0.61734825,8.647661,3.9290147,0.0,0.0,0.0
21360426994435,-0.41635114,8.63809,4.0103707,0.0,0.0,0.0
21360429373497,-0.20578274,8.60459,4.1204405,0.0,0.0,0.0
21360431752664,-0.08135597,8.6141615,4.2352962,0.0,0.0,0.0
21360434131779,0.043070808,8.623733,4.23051,0.0,0.0,0.0
21360436510841,0.1052842,8.6141615,4.125226,0.0,0.0,0.0
21360438889956,0.1052842,8.628518,4.0295134,0.0,0.0,0.0
21360441269070,0.033499517,8.63809,4.034299,0.0,0.0,0.0
21360443648185,-0.09571291,8.63809,4.125226,0.0,0.0,0.0
21360446027299,-0.30149564,8.618947,4.273581,0.0,0.0,0.0
21360448406414,-0.5312066,8.623733,4.426722,0.0,0.0,0.0
21360450785529,-0.70348984,8.652447,4.4841495,0.0,0.0,0.0
21360453164643,-0.91405827,8.685946,4.398008,0.0,0.0,0.0
21360455543758,-1.0815558,8.752945,4.2831526,0.0,0.0,0.0
21360457922820,-1.1724831,8.772088,4.249653,0.0,0.0,0.0
21360460301935,-1.2586247,8.786445,4.287938,0.0,0.0,0.0
21360462681049,-1.2873386,8.7673025,4.45065,0.0,0.0,0.0
21360465060164,-1.2442678,8.7577305,4.5559344,0.0,0.0,0.0
21360467439279,-1.2059826,8.690732,4.5224347,0.0,0.0,0.0
21360469818393,-1.1294123,8.743374,4.436293,0.0,0.0,0.0
21360472197508,-1.0432707,8.79123,4.2687955,0.0,0.0,0.0
21360474576622,-0.98584294,8.82473,4.1778684,0.0,0.0,0.0
21360476955737,-0.9379865,8.805588,4.168297,0.0,0.0,0.0
21360479334799,-0.90448695,8.762517,4.331009,0.0,0.0,0.0
21360481713914,-0.8422736,8.709874,4.546363,0.0,0.0,0.0
21360484093029,-0.81834537,8.719446,4.642076,0.0,0.0,0.0
21360486472143,-0.75613195,8.810373,4.5224347,0.0,0.0,0.0
21360488851258,-0.7178468,8.906086,4.2831526,0.0,0.0,0.0
21360491230372,-0.6987042,8.977871,4.0965123,0.0,0.0,0.0
21360493609435,-0.7369894,9.016156,4.106084,0.0,0.0,0.0
21360495988549,-0.7848458,8.997013,4.3070807,0.0,0.0,0.0
21360498367664,-0.8853444,8.973084,4.575077,0.0,0.0,0.0
21360500746779,-0.9762716,8.977871,4.6803613,0.0,0.0,0.0
21360503125893,-1.0863415,9.006584,4.599005,0.0,0.0,0.0
21360505505008,-1.1820544,9.01137,4.354937,0.0,0.0,0.0
21360507884122,-1.2586247,9.001799,4.168297,0.0,0.0,0.0
21360510263237,-1.2969099,8.977871,4.197011,0.0,0.0,0.0
21360512642352,-1.2777673,8.920443,4.412365,0.0,0.0,0.0
21360515021414,-1.2490535,8.920443,4.613362,0.0,0.0,0.0
21360517400529,-1.1772687,8.930014,4.642076,0.0,0.0,0.0
21360519779643,-1.1006985,8.920443,4.4985065,0.0,0.0,0.0
21360522158758,-1.0049855,8.939586,4.273581,0.0,0.0,0.0
21360524537872,-0.8422736,8.953942,4.0869412,0.0,0.0,0.0
21360526916987,-0.75613195,8.949157,4.0869412,0.0,0.0,0.0
21360529296102,-0.6652047,8.891729,4.249653,0.0,0.0,0.0
21360531675216,-0.5694918,8.863015,4.469793,0.0,0.0,0.0
21360534054279,-0.49292147,8.810373,4.575077,0.0,0.0,0.0
21360536433393,-0.44506502,8.829515,4.493721,0.0,0.0,0.0
21360538812508,-0.3589234,8.85823,4.2975097,0.0,0.0,0.0
21360541191622,-0.3397808,8.829515,4.125226,0.0,0.0,0.0
21360543570737,-0.38285163,8.781659,4.125226,0.0,0.0,0.0
21360545949852,-0.44027936,8.738588,4.249653,0.0,0.0,0.0
21360548328966,-0.55513483,8.729017,4.4458647,0.0,0.0,0.0
21360550708081,-0.65084773,8.700303,4.546363,0.0,0.0,0.0
21360553087195,-0.7896315,8.676374,4.5128636,0.0,0.0,0.0
21360555466258,-0.8853444,8.724232,4.345366,0.0,0.0,0.0
21360557845372,-1.0049855,8.7673025,4.15394,0.0,0.0,0.0
21360560224487,-1.0863415,8.752945,4.048656,0.0,0.0,0.0
21360562603602,-1.1724831,8.762517,4.115655,0.0,0.0,0.0
21360564982716,-1.2011969,8.748159,4.2448673,0.0,0.0,0.0
21360567361831,-1.2490535,8.709874,4.345366,0.0,0.0,0.0
21360569740945,-1.2251252,8.733803,4.359723,0.0,0.0,0.0
21360572120008,-1.1150553,8.810373,4.254439,0.0,0.0,0.0
21360574499122,-1.0145568,8.85823,4.0965123,0.0,0.0,0.0
21360576878237,-0.8805587,8.829515,4.019942,0.0,0.0,0.0
21360579257352,-0.7369894,8.882157,4.034299,0.0,0.0,0.0
21360581636466,-0.5599205,8.9108715,4.1108694,0.0,0.0,0.0
21360584015581,-0.43070808,8.853444,4.182654,0.0,0.0,0.0
21360586394695,-0.31106696,8.867801,4.206582,0.0,0.0,0.0
21360588773810,-0.20578274,8.925228,4.168297,0.0,0.0,0.0
21360591152872,-0.12921242,8.891729,4.091727,0.0,0.0,0.0
21360593531987,-0.09092726,8.848659,4.072584,0.0,0.0,0.0
21360595911102,-0.1052842,8.867801,4.130012,0.0,0.0,0.0
21360598290216,-0.13878371,8.853444,4.220939,0.0,0.0,0.0
21360600669331,-0.25842485,8.805588,4.359723,0.0,0.0,0.0
21360603048445,-0.41156548,8.79123,4.4315076,0.0,0.0,0.0
21360605427560,-0.55034924,8.810373,4.4315076,0.0,0.0,0.0
21360607806674,-0.6939186,8.79123,4.4075794,0.0,0.0,0.0
21360610185737,-0.85184485,8.79123,4.3740797,0.0,0.0,0.0
21360612564852,-0.9954142,8.796016,4.359723,0.0,0.0,0.0
21360614943966,-1.0959128,8.829515,4.402794,0.0,0.0,0.0
21360617323081,-1.1772687,8.819944,4.4841495,0.0,0.0,0.0
21360619702195,-1.2394822,8.863015,4.5798626,0.0,0.0,0.0
21360622081310,-1.2777673,8.834301,4.5798626,0.0,0.0,0.0
21360624460424,-1.3064811,8.848659,4.5224347,0.0,0.0,0.0
21360626839539,-1.253839,8.85823,4.45065,0.0,0.0,0.0
21360629218602,-1.18684,8.85823,4.398008,0.0,0.0,0.0
21360631597716,-1.1102697,8.843872,4.3788652,0.0,0.0,0.0
21360633976831,-0.9906286,8.848659,4.398008,0.0,0.0,0.0
21360636355945,-0.8997013,8.810373,4.421936,0.0,0.0,0.0
21360638735060,-0.7752745,8.748159,4.421936,0.0,0.0,0.0
21360641114174,-0.65084773,8.724232,4.3932223,0.0,0.0,0.0
21360643493289,-0.5694918,8.738588,4.316652,0.0,0.0,0.0
21360645872404,-0.47856453,8.752945,4.2257247,0.0,0.0,0.0
21360648251466,-0.41156548,8.7673025,4.1778684,0.0,0.0,0.0
21360650630581,-0.4211368,8.781659,4.1874394,0.0,0.0,0.0
21360653009695,-0.44027936,8.796016,4.2352962,0.0,0.0,0.0
21360655388810,-0.4546363,8.810373,4.2687955,0.0,0.0,0.0
21360657767924,-0.5312066,8.819944,4.2927237,0.0,0.0,0.0
21360660147039,-0.6364908,8.843872,4.2831526,0.0,0.0,0.0
21360662526154,-0.75613195,8.843872,4.2448673,0.0,0.0,0.0
21360664905216,-0.86141616,8.867801,4.197011,0.0,0.0,0.0
21360667284331,-0.9667004,8.867801,4.220939,0.0,0.0,0.0
21360669663445,-1.0767702,8.853444,4.254439,0.0,0.0,0.0
21360672042560,-1.1533405,8.853444,4.278367,0.0,0.0,0.0
21360674421674,-1.2107682,8.877372,4.321438,0.0,0.0,0.0
21360676800789,-1.268196,8.915657,4.321438,0.0,0.0,0.0
21360679179904,-1.2921243,8.9108715,4.2975097,0.0,0.0,0.0
21360681559018,-1.3016955,8.9348,4.278367,0.0,0.0,0.0
21360683938081,-1.2777673,8.968299,4.3118663,0.0,0.0,0.0
21360686317195,-1.2155539,8.9826565,4.3501515,0.0,0.0,0.0
21360688696310,-1.1437693,8.977871,4.388437,0.0,0.0,0.0
21360691075424,-1.0815558,8.9826565,4.412365,0.0,0.0,0.0
21360693454539,-0.98584294,8.987442,4.4315076,0.0,0.0,0.0
21360695833654,-0.8853444,8.9826565,4.421936,0.0,0.0,0.0
21360698212768,-0.80877405,8.9826565,4.4075794,0.0,0.0,0.0
21360700591883,-0.72263247,8.963513,4.402794,0.0,0.0,0.0
21360702970945,-0.65084773,8.930014,4.4171505,0.0,0.0,0.0
21360705350060,-0.5599205,8.896515,4.421936,0.0,0.0,0.0
21360707729174,-0.52163535,8.891729,4.4315076,0.0,0.0,0.0
21360710108289,-0.51206404,8.853444,4.426722,0.0,0.0,0.0
21360712487404,-0.5024927,8.829515,4.412365,0.0,0.0,0.0
21360714866518,-0.5312066,8.800801,4.402794,0.0,0.0,0.0
21360717245633,-0.5838487,8.7673025,4.388437,0.0,0.0,0.0
21360719624747,-0.6364908,8.748159,4.388437,0.0,0.0,0.0
21360722003862,-0.6795616,8.752945,4.3932223,0.0,0.0,0.0
21360724382924,-0.7513463,8.743374,4.4075794,0.0,0.0,0.0
21360726762039,-0.79920274,8.743374,4.402794,0.0,0.0,0.0
21360729141154,-0.8327023,8.752945,4.3836513,0.0,0.0,0.0
21360731520268,-0.8997013,8.772088,4.3836513,0.0,0.0,0.0
21360733899383,-0.94755775,8.776874,4.3788652,0.0,0.0,0.0
21360736278497,-0.98584294,8.781659,4.3836513,0.0,0.0,0.0
21360738657612,-0.9619147,8.776874,4.3788652,0.0,0.0,0.0
21360741036674,-0.93320084,8.786445,4.369294,0.0,0.0,0.0
21360743415789,-0.9092726,8.819944,4.345366,0.0,0.0,0.0
21360745794904,-0.8805587,8.848659,4.3405805,0.0,0.0,0.0
21360748174018,-0.8422736,8.839087,4.3070807,0.0,0.0,0.0
21360750553133,-0.79920274,8.839087,4.2831526,0.0,0.0,0.0
21360752932247,-0.7609176,8.863015,4.2687955,0.0,0.0,0.0
21360755311362,-0.7178468,8.867801,4.254439,0.0,0.0,0.0
21360757690424,-0.66999036,8.848659,4.240082,0.0,0.0,0.0
21360760069539,-0.6556334,8.853444,4.23051,0.0,0.0,0.0
21360762448654,-0.66999036,8.872586,4.211368,0.0,0.0,0.0
21360764827768,-0.66999036,8.85823,4.2017965,0.0,0.0,0.0
21360767206883,-0.6891329,8.872586,4.1922255,0.0,0.0,0.0
21360769585997,-0.7369894,8.872586,4.206582,0.0,0.0,0.0
21360771965112,-0.7848458,8.863015,4.2017965,0.0,0.0,0.0
21360774344227,-0.8135597,8.863015,4.2017965,0.0,0.0,0.0
21360776723341,-0.8757731,8.867801,4.211368,0.0,0.0,0.0
21360779102404,-0.91884387,8.886943,4.23051,0.0,0.0,0.0
21360781481518,-0.94277215,8.882157,4.240082,0.0,0.0,0.0
21360783860633,-1.0145568,8.853444,4.2257247,0.0,0.0,0.0
21360786239747,-1.0432707,8.85823,4.2592244,0.0,0.0,0.0
21360788618862,-1.0432707,8.848659,4.278367,0.0,0.0,0.0
21360790997977,-1.0624132,8.834301,4.2687955,0.0,0.0,0.0
21360793377091,-1.0671989,8.848659,4.273581,0.0,0.0,0.0
21360795756102,-1.0624132,8.853444,4.287938,0.0,0.0,0.0
21360798135268,-1.0576276,8.829515,4.2831526,0.0,0.0,0.0
21360800514383,-1.0289137,8.79123,4.2831526,0.0,0.0,0.0
21360802893445,-1.0049855,8.772088,4.2975097,0.0,0.0,0.0
21360805272612,-0.9906286,8.79123,4.316652,0.0,0.0,0.0
21360807651727,-0.95712906,8.781659,4.321438,0.0,0.0,0.0
21360810030841,-0.94755775,8.79123,4.3357944,0.0,0.0,0.0
21360812409956,-0.93320084,8.796016,4.3405805,0.0,0.0,0.0
21360814789070,-0.9092726,8.7577305,4.331009,0.0,0.0,0.0
21360817168133,-0.9092726,8.772088,4.3262234,0.0,0.0,0.0
21360819547247,-0.90448695,8.7673025,4.321438,0.0,0.0,0.0
21360821926362,-0.9092726,8.781659,4.321438,0.0,0.0,0.0
21360824305477,-0.9236295,8.815159,4.316652,0.0,0.0,0.0
21360826684591,-0.9284152,8.819944,4.316652,0.0,0.0,0.0
21360829063706,-0.971486,8.839087,4.3118663,0.0,0.0,0.0
21360831442820,-0.9810573,8.853444,4.2975097,0.0,0.0,0.0
21360833821883,-0.9954142,8.863015,4.2927237,0.0,0.0,0.0
21360836200997,-1.0097711,8.872586,4.3070807,0.0,0.0,0.0
21360838580112,-1.0193424,8.843872,4.321438,0.0,0.0,0.0
21360840959227,-1.052842,8.872586,4.316652,0.0,0.0,0.0
21360843338341,-1.0576276,8.886943,4.321438,0.0,0.0,0.0
21360845717456,-1.038485,8.891729,4.321438,0.0,0.0,0.0
21360848096570,-1.0336994,8.891729,4.316652,0.0,0.0,0.0
21360850475685,-1.0241281,8.886943,4.3262234,0.0,0.0,0.0
21360852854747,-0.9810573,8.886943,4.3118663,0.0,0.0,0.0
21360855233862,-0.95712906,8.863015,4.3070807,0.0,0.0,0.0
21360857612977,-0.95712906,8.848659,4.2927237,0.0,0.0,0.0
21360859992091,-0.94277215,8.863015,4.278367,0.0,0.0,0.0
21360862371206,-0.89013004,8.867801,4.2687955,0.0,0.0,0.0
21360864750320,-0.8566305,8.863015,4.254439,0.0,0.0,0.0
21360867129435,-0.85184485,8.85823,4.254439,0.0,0.0,0.0
21360869508497,-0.86141616,8.82473,4.26401,0.0,0.0,0.0
21360871887612,-0.8470592,8.829515,4.2592244,0.0,0.0,0.0
21360874266727,-0.8422736,8.810373,4.278367,0.0,0.0,0.0
21360876645841,-0.8566305,8.805588,4.2975097,0.0,0.0,0.0
21360879024956,-0.8422736,8.79123,4.3118663,0.0,0.0,0.0
21360881404070,-0.85184485,8.829515,4.2975097,0.0,0.0,0.0
21360883783185,-0.89491564,8.82473,4.3118663,0.0,0.0,0.0
21360886162299,-0.89491564,8.834301,4.3118663,0.0,0.0,0.0
21360888541414,-0.8757731,8.82473,4.278367,0.0,0.0,0.0
21360890920477,-0.89013004,8.834301,4.2975097,0.0,0.0,0.0
21360893299591,-0.8757731,8.839087,4.2975097,0.0,0.0,0.0
21360895678706,-0.8662018,8.853444,4.3070807,0.0,0.0,0.0
21360898057820,-0.8566305,8.848659,4.3118663,0.0,0.0,0.0
21360900436935,-0.8327023,8.867801,4.3262234,0.0,0.0,0.0
21360902816049,-0.81834537,8.886943,4.302295,0.0,0.0,0.0
21360905195164,-0.79920274,8.891729,4.2975097,0.0,0.0,0.0
21360907574227,-0.8039884,8.877372,4.316652,0.0,0.0,0.0
21360909953341,-0.8135597,8.877372,4.331009,0.0,0.0,0.0
21360912332456,-0.80877405,8.843872,4.331009,0.0,0.0,0.0
21360914711570,-0.8135597,8.839087,4.3118663,0.0,0.0,0.0
21360917090685,-0.8279166,8.834301,4.302295,0.0,0.0,0.0
21360919469799,-0.85184485,8.829515,4.3070807,0.0,0.0,0.0
21360921848914,-0.89013004,8.815159,4.287938,0.0,0.0,0.0
21360924227977,-0.89013004,8.805588,4.2831526,0.0,0.0,0.0
21360926607143,-0.93320084,8.772088,4.278367,0.0,0.0,0.0
21360928986206,-0.94755775,8.762517,4.287938,0.0,0.0,0.0
21360931365320,-0.9667004,8.7673025,4.273581,0.0,0.0,0.0
21360933744435,-0.9954142,8.781659,4.278367,0.0,0.0,0.0
21360936123549,-1.0145568,8.781659,4.273581,0.0,0.0,0.0
21360938502664,-1.052842,8.752945,4.2687955,0.0,0.0,0.0
21360940881779,-1.0480564,8.786445,4.2927237,0.0,0.0,0.0
21360943260893,-1.0193424,8.796016,4.287938,0.0,0.0,0.0
21360945639956,-1.0049855,8.810373,4.287938,0.0,0.0,0.0
21360948019070,-0.9954142,8.810373,4.287938,0.0,0.0,0.0
21360950398185,-0.9619147,8.796016,4.287938,0.0,0.0,0.0
21360952777299,-0.95712906,8.819944,4.2975097,0.0,0.0,0.0
21360955156414,-0.9236295,8.848659,4.2975097,0.0,0.0,0.0
21360957535529,-0.9236295,8.853444,4.302295,0.0,0.0,0.0
21360959914643,-0.8997013,8.882157,4.321438,0.0,0.0,0.0
21360962293706,-0.8709874,8.853444,4.321438,0.0,0.0,0.0
21360964672820,-0.8709874,8.848659,4.321438,0.0,0.0,0.0
21360967051935,-0.8566305,8.867801,4.3118663,0.0,0.0,0.0
21360969431049,-0.8566305,8.877372,4.331009,0.0,0.0,0.0
21360971810164,-0.86141616,8.863015,4.3262234,0.0,0.0,0.0
21360974189279,-0.8662018,8.863015,4.3262234,0.0,0.0,0.0
21360976568393,-0.8709874,8.882157,4.3262234,0.0,0.0,0.0
21360978947508,-0.8757731,8.891729,4.316652,0.0,0.0,0.0
21360981326570,-0.8853444,8.886943,4.3070807,0.0,0.0,0.0
21360983705685,-0.8853444,8.896515,4.3262234,0.0,0.0,0.0
21360986084799,-0.89491564,8.896515,4.321438,0.0,0.0,0.0
21360988463862,-0.93320084,8.915657,4.321438,0.0,0.0,0.0
21360990843029,-0.9523434,8.9013,4.3118663,0.0,0.0,0.0
21360993222143,-0.95712906,8.891729,4.331009,0.0,0.0,0.0
21360995601258,-0.9810573,8.9013,4.3262234,0.0,0.0,0.0
21360997980372,-0.98584294,8.9013,4.316652,0.0,0.0,0.0
21361000359435,-1.0001999,8.906086,4.3070807,0.0,0.0,0.0
21361002738549,-1.0049855,8.9108715,4.2927237,0.0,0.0,0.0
21361005117612,-0.9954142,8.906086,4.2687955,0.0,0.0,0.0
21361007496779,-0.98584294,8.882157,4.2592244,0.0,0.0,0.0
21361009875893,-0.9667004,8.886943,4.2687955,0.0,0.0,0.0
21361012255008,-0.98584294,8.886943,4.287938,0.0,0.0,0.0
21361014634122,-0.95712906,8.872586,4.2831526,0.0,0.0,0.0
21361017013185,-0.9379865,8.877372,4.26401,0.0,0.0,0.0
21361019392299,-0.9092726,8.85823,4.249653,0.0,0.0,0.0
21361021771414,-0.8805587,8.863015,4.254439,0.0,0.0,0.0
21361024150529,-0.8805587,8.867801,4.2448673,0.0,0.0,0.0
21361026529643,-0.86141616,8.853444,4.254439,0.0,0.0,0.0
21361028908758,-0.8566305,8.843872,4.254439,0.0,0.0,0.0
21361031287872,-0.8279166,8.853444,4.2687955,0.0,0.0,0.0
21361033666935,-0.8327023,8.834301,4.273581,0.0,0.0,0.0
21361036046049,-0.8279166,8.815159,4.2592244,0.0,0.0,0.0
21361038425164,-0.82313097,8.829515,4.273581,0.0,0.0,0.0
21361040804279,-0.85184485,8.848659,4.2927237,0.0,0.0,0.0
21361043183341,-0.8470592,8.85823,4.2927237,0.0,0.0,0.0
21361045562508,-0.8709874,8.853444,4.302295,0.0,0.0,0.0
21361047941622,-0.8997013,8.853444,4.3118663,0.0,0.0,0.0
21361050320737,-0.89013004,8.843872,4.321438,0.0,0.0,0.0
21361052699852,-0.8997013,8.829515,4.3262234,0.0,0.0,0.0
21361055078914,-0.9092726,8.839087,4.3357944,0.0,0.0,0.0
21361057458029,-0.90448695,8.85823,4.321438,0.0,0.0,0.0
21361059837143,-0.8997013,8.810373,4.331009,0.0,0.0,0.0
21361062216258,-0.8853444,8.810373,4.3405805,0.0,0.0,0.0
21361064595320,-0.90448695,8.79123,4.321438,0.0,0.0,0.0
21361066974487,-0.89491564,8.781659,4.302295,0.0,0.0,0.0
21361069353602,-0.89013004,8.815159,4.3118663,0.0,0.0,0.0
21361071732664,-0.86141616,8.805588,4.2927237,0.0,0.0,0.0
21361074111779,-0.85184485,8.800801,4.302295,0.0,0.0,0.0
21361076490893,-0.83748794,8.7673025,4.316652,0.0,0.0,0.0
21361078870008,-0.82313097,8.79123,4.3262234,0.0,0.0,0.0
21361081249122,-0.8422736,8.796016,4.321438,0.0,0.0,0.0
21361083628185,-0.8470592,8.805588,4.316652,0.0,0.0,0.0
21361086007352,-0.8327023,8.786445,4.2927237,0.0,0.0,0.0
21361088386414,-0.81834537,8.786445,4.2831526,0.0,0.0,0.0
21361090765529,-0.83748794,8.800801,4.287938,0.0,0.0,0.0
21361093144643,-0.86141616,8.810373,4.302295,0.0,0.0,0.0
21361095523758,-0.8662018,8.796016,4.3118663,0.0,0.0,0.0
21361097902872,-0.85184485,8.815159,4.3405805,0.0,0.0,0.0
21361100281987,-0.8709874,8.805588,4.345366,0.0,0.0,0.0
21361102661102,-0.8709874,8.805588,4.321438,0.0,0.0,0.0
21361105040216,-0.8662018,8.805588,4.321438,0.0,0.0,0.0
21361107419279,-0.86141616,8.800801,4.331009,0.0,0.0,0.0
21361109798393,-0.86141616,8.815159,4.331009,0.0,0.0,0.0
21361112177508,-0.8566305,8.786445,4.3118663,0.0,0.0,0.0
21361114556622,-0.8709874,8.79123,4.3262234,0.0,0.0,0.0
21361116935737,-0.8853444,8.848659,4.321438,0.0,0.0,0.0
21361119314852,-0.9092726,8.85823,4.3070807,0.0,0.0,0.0
21361121693966,-0.9236295,8.877372,4.3070807,0.0,0.0,0.0
21361124073081,-0.93320084,8.872586,4.2927237,0.0,0.0,0.0
21361126452143,-0.9619147,8.85823,4.2975097,0.0,0.0,0.0
21361128831258,-0.971486,8.85823,4.302295,0.0,0.0,0.0
21361131210372,-0.9810573,8.882157,4.3070807,0.0,0.0,0.0
21361133589487,-0.9954142,8.886943,4.321438,0.0,0.0,0.0
21361135968602,-1.0336994,8.882157,4.2975097,0.0,0.0,0.0
21361138347716,-1.0480564,8.882157,4.278367,0.0,0.0,0.0
21361140726831,-1.0480564,8.863015,4.278367,0.0,0.0,0.0
21361143105893,-1.0480564,8.853444,4.278367,0.0,0.0,0.0
21361145485008,-1.0576276,8.843872,4.273581,0.0,0.0,0.0
21361147864122,-1.0480564,8.853444,4.2831526,0.0,0.0,0.0
21361150243237,-1.0576276,8.843872,4.278367,0.0,0.0,0.0
21361152622352,-1.0289137,8.853444,4.273581,0.0,0.0,0.0
21361155001466,-1.0241281,8.863015,4.254439,0.0,0.0,0.0
21361157380581,-0.971486,8.863015,4.2352962,0.0,0.0,0.0
21361159759643,-0.94277215,8.867801,4.2448673,0.0,0.0,0.0
21361162138758,-0.8997013,8.872586,4.2592244,0.0,0.0,0.0
21361164517872,-0.8662018,8.872586,4.273581,0.0,0.0,0.0
21361166896987,-0.81834537,8.886943,4.2927237,0.0,0.0,0.0
21361169276102,-0.7752745,8.877372,4.3070807,0.0,0.0,0.0
21361171655216,-0.74177504,8.872586,4.278367,0.0,0.0,0.0
21361174034331,-0.7322037,8.872586,4.2831526,0.0,0.0,0.0
21361176413445,-0.7322037,8.872586,4.278367,0.0,0.0,0.0
21361178792508,-0.6891329,8.882157,4.2927237,0.0,0.0,0.0
21361181171622,-0.71306115,8.867801,4.287938,0.0,0.0,0.0
21361183550737,-0.71306115,8.872586,4.2975097,0.0,0.0,0.0
21361185929852,-0.74177504,8.886943,4.3118663,0.0,0.0,0.0
21361188308966,-0.76570326,8.848659,4.3262234,0.0,0.0,0.0
21361190688081,-0.7848458,8.834301,4.3262234,0.0,0.0,0.0
21361193067195,-0.81834537,8.829515,4.302295,0.0,0.0,0.0
21361195446310,-0.86141616,8.848659,4.2927237,0.0,0.0,0.0
21361197825372,-0.8662018,8.834301,4.2927237,0.0,0.0,0.0
21361200204487,-0.91884387,8.834301,4.2927237,0.0,0.0,0.0
21361202583602,-0.91884387,8.843872,4.3118663,0.0,0.0,0.0
21361204962716,-0.8997013,8.848659,4.2975097,0.0,0.0,0.0
21361207341831,-0.9092726,8.85823,4.287938,0.0,0.0,0.0
21361209720945,-0.8997013,8.843872,4.2927237,0.0,0.0,0.0
21361212100060,-0.89013004,8.829515,4.2975097,0.0,0.0,0.0
21361214479122,-0.86141616,8.839087,4.2975097,0.0,0.0,0.0
21361216858237,-0.8566305,8.839087,4.3118663,0.0,0.0,0.0
21361219237352,-0.81834537,8.834301,4.2975097,0.0,0.0,0.0
21361221616466,-0.7704889,8.82473,4.2831526,0.0,0.0,0.0
21361223995581,-0.7513463,8.82473,4.273581,0.0,0.0,0.0
21361226374695,-0.7322037,8.839087,4.2975097,0.0,0.0,0.0
21361228753810,-0.6939186,8.829515,4.2975097,0.0,0.0,0.0
21361231132924,-0.6843473,8.834301,4.2927237,0.0,0.0,0.0
21361233511987,-0.6795616,8.85823,4.278367,0.0,0.0,0.0
21361235891102,-0.6843473,8.843872,4.2975097,0.0,0.0,0.0
21361238270216,-0.6843473,8.867801,4.2975097,0.0,0.0,0.0
21361240649331,-0.6987042,8.886943,4.302295,0.0,0.0,0.0
21361243028445,-0.7369894,8.877372,4.3262234,0.0,0.0,0.0
21361245407560,-0.75613195,8.877372,4.3501515,0.0,0.0,0.0
21361247786674,-0.7704889,8.896515,4.331009,0.0,0.0,0.0
21361250165737,-0.8135597,8.891729,4.331009,0.0,0.0,0.0
21361252544852,-0.8709874,8.872586,4.3740797,0.0,0.0,0.0
21361254923966,-0.8997013,8.853444,4.3740797,0.0,0.0,0.0
21361257303081,-0.9092726,8.85823,4.3788652,0.0,0.0,0.0
21361259682195,-0.94277215,8.834301,4.3645086,0.0,0.0,0.0
21361262061310,-0.9667004,8.805588,4.3645086,0.0,0.0,0.0
21361264440424,-0.9523434,8.82473,4.3788652,0.0,0.0,0.0
21361266819487,-0.9236295,8.796016,4.3645086,0.0,0.0,0.0
21361269198602,-0.9236295,8.7673025,4.3405805,0.0,0.0,0.0
21361271577716,-0.9379865,8.7673025,4.321438,0.0,0.0,0.0
21361273956831,-0.94277215,8.786445,4.302295,0.0,0.0,0.0
21361276335945,-0.90448695,8.772088,4.287938,0.0,0.0,0.0
21361278715060,-0.89013004,8.748159,4.2975097,0.0,0.0,0.0
21361281094174,-0.85184485,8.7673025,4.2831526,0.0,0.0,0.0
21361283473289,-0.83748794,8.7673025,4.278367,0.0,0.0,0.0
21361285852352,-0.83748794,8.800801,4.2927237,0.0,0.0,0.0
21361288231414,-0.80877405,8.800801,4.287938,0.0,0.0,0.0
21361290610581,-0.7752745,8.810373,4.302295,0.0,0.0,0.0
21361292989695,-0.75613195,8.805588,4.321438,0.0,0.0,0.0
21361295368810,-0.7513463,8.867801,4.3357944,0.0,0.0,0.0
21361297747924,-0.7609176,8.886943,4.3118663,0.0,0.0,0.0
21361300127039,-0.7513463,8.872586,4.331009,0.0,0.0,0.0
21361302506102,-0.7609176,8.872586,4.345366,0.0,0.0,0.0
21361304885216,-0.74177504,8.896515,4.3405805,0.0,0.0,0.0
21361307264331,-0.7369894,8.930014,4.359723,0.0,0.0,0.0
21361309643445,-0.7322037,8.896515,4.3405805,0.0,0.0,0.0
21361312022560,-0.7465607,8.920443,4.321438,0.0,0.0,0.0
21361314401674,-0.7369894,8.930014,4.331009,0.0,0.0,0.0
21361316780789,-0.74177504,8.9013,4.345366,0.0,0.0,0.0
21361319159904,-0.7322037,8.882157,4.3357944,0.0,0.0,0.0
21361321538966,-0.72741807,8.863015,4.321438,0.0,0.0,0.0
21361323918029,-0.7609176,8.863015,4.316652,0.0,0.0,0.0
21361326297195,-0.7465607,8.843872,4.316652,0.0,0.0,0.0
21361328676310,-0.7704889,8.819944,4.2831526,0.0,0.0,0.0
21361331055424,-0.76570326,8.810373,4.273581,0.0,0.0,0.0
21361333434539,-0.76570326,8.796016,4.26401,0.0,0.0,0.0
21361335813654,-0.76570326,8.79123,4.2592244,0.0,0.0,0.0
21361338192768,-0.7896315,8.786445,4.278367,0.0,0.0,0.0
21361340571831,-0.83748794,8.762517,4.26401,0.0,0.0,0.0
21361342950945,-0.85184485,8.776874,4.2592244,0.0,0.0,0.0
21361345330060,-0.8709874,8.781659,4.26401,0.0,0.0,0.0
21361347709174,-0.8805587,8.776874,4.26401,0.0,0.0,0.0
21361350088289,-0.8853444,8.810373,4.273581,0.0,0.0,0.0
21361352467404,-0.91405827,8.815159,4.2927237,0.0,0.0,0.0
21361354846518,-0.9379865,8.800801,4.287938,0.0,0.0,0.0
21361357225581,-0.94755775,8.819944,4.3118663,0.0,0.0,0.0
21361359604695,-0.94755775,8.796016,4.3070807,0.0,0.0,0.0
21361361983810,-0.94277215,8.839087,4.302295,0.0,0.0,0.0
21361364362924,-0.9379865,8.863015,4.321438,0.0,0.0,0.0
21361366742039,-0.93320084,8.85823,4.331009,0.0,0.0,0.0
21361369121154,-0.91884387,8.867801,4.3357944,0.0,0.0,0.0
21361371500268,-0.9092726,8.867801,4.3405805,0.0,0.0,0.0
21361373879331,-0.90448695,8.882157,4.345366,0.0,0.0,0.0
21361376258445,-0.90448695,8.891729,4.3357944,0.0,0.0,0.0
21361378637560,-0.8805587,8.9013,4.331009,0.0,0.0,0.0
21361381016674,-0.8470592,8.9108715,4.302295,0.0,0.0,0.0
21361383395737,-0.8279166,8.9013,4.2927237,0.0,0.0,0.0
21361385774904,-0.8327023,8.877372,4.287938,0.0,0.0,0.0
21361388154018,-0.82313097,8.872586,4.2831526,0.0,0.0,0.0
21361390533133,-0.79920274,8.867801,4.287938,0.0,0.0,0.0
21361392912195,-0.7752745,8.882157,4.3070807,0.0,0.0,0.0
21361395291310,-0.79441714,8.886943,4.2975097,0.0,0.0,0.0
21361397670424,-0.7704889,8.863015,4.2927237,0.0,0.0,0.0
21361400049539,-0.7752745,8.843872,4.287938,0.0,0.0,0.0
21361402428654,-0.7704889,8.839087,4.273581,0.0,0.0,0.0
21361404807768,-0.7704889,8.819944,4.26401,0.0,0.0,0.0
21361407186883,-0.76570326,8.805588,4.249653,0.0,0.0,0.0
21361409565997,-0.7848458,8.810373,4.2448673,0.0,0.0,0.0
21361411945060,-0.8279166,8.79123,4.254439,0.0,0.0,0.0
21361414324174,-0.83748794,8.800801,4.26401,0.0,0.0,0.0
21361416703289,-0.8853444,8.810373,4.2592244,0.0,0.0,0.0
21361419082404,-0.8805587,8.834301,4.254439,0.0,0.0,0.0
21361421461518,-0.8805587,8.843872,4.26401,0.0,0.0,0.0
21361423840633,-0.89013004,8.819944,4.2687955,0.0,0.0,0.0
21361426219747,-0.8997013,8.82473,4.254439,0.0,0.0,0.0
21361428598810,-0.9284152,8.815159,4.2592244,0.0,0.0,0.0
21361430977924,-0.93320084,8.819944,4.2592244,0.0,0.0,0.0
21361433357039,-0.9379865,8.848659,4.273581,0.0,0.0,0.0
21361435736102,-0.94277215,8.82473,4.2687955,0.0,0.0,0.0
21361438115268,-0.9523434,8.815159,4.26401,0.0,0.0,0.0
21361440494383,-0.9236295,8.819944,4.2927237,0.0,0.0,0.0
21361442873497,-0.91884387,8.839087,4.2927237,0.0,0.0,0.0
21361445252560,-0.9284152,8.829515,4.287938,0.0,0.0,0.0
21361447631674,-0.9284152,8.805588,4.278367,0.0,0.0,0.0
21361450010789,-0.9667004,8.781659,4.254439,0.0,0.0,0.0
21361452389904,-0.94755775,8.7673025,4.26401,0.0,0.0,0.0
21361454769018,-0.9284152,8.79123,4.273581,0.0,0.0,0.0
21361457148133,-0.9284152,8.796016,4.287938,0.0,0.0,0.0
21361459527247,-0.94277215,8.819944,4.3118663,0.0,0.0,0.0
21361461906310,-0.9379865,8.839087,4.302295,0.0,0.0,0.0
21361464285424,-0.93320084,8.848659,4.273581,0.0,0.0,0.0
21361466664539,-0.9523434,8.848659,4.2592244,0.0,0.0,0.0
21361469043654,-0.95712906,8.85823,4.278367,0.0,0.0,0.0
21361471422768,-0.971486,8.863015,4.316652,0.0,0.0,0.0
21361473801883,-0.9667004,8.867801,4.331009,0.0,0.0,0.0
21361476180997,-0.95712906,8.85823,4.354937,0.0,0.0,0.0
21361478560060,-0.9284152,8.85823,4.321438,0.0,0.0,0.0
21361480939174,-0.91405827,8.848659,4.287938,0.0,0.0,0.0
21361483318289,-0.8997013,8.867801,4.278367,0.0,0.0,0.0
21361485697404,-0.86141616,8.891729,4.2927237,0.0,0.0,0.0
21361488076518,-0.8566305,8.896515,4.3070807,0.0,0.0,0.0
21361490455633,-0.86141616,8.886943,4.3118663,0.0,0.0,0.0
21361492834747,-0.8805587,8.853444,4.3118663,0.0,0.0,0.0
21361495213862,-0.8853444,8.863015,4.302295,0.0,0.0,0.0
21361497592872,-0.89013004,8.882157,4.2831526,0.0,0.0,0.0
21361499972039,-0.89013004,8.834301,4.26401,0.0,0.0,0.0
21361502351154,-0.91884387,8.867801,4.2161536,0.0,0.0,0.0
21361504730268,-0.9379865,8.867801,4.206582,0.0,0.0,0.0
21361507109383,-0.9379865,8.834301,4.197011,0.0,0.0,0.0
21361509488497,-0.9762716,8.843872,4.211368,0.0,0.0,0.0
21361511867612,-1.0145568,8.843872,4.2017965,0.0,0.0,0.0
21361514246622,-1.0145568,8.853444,4.182654,0.0,0.0,0.0
21361516625789,-1.0241281,8.85823,4.1922255,0.0,0.0,0.0
21361519004904,-1.0336994,8.886943,4.206582,0.0,0.0,0.0
21361521384018,-1.0289137,8.906086,4.1778684,0.0,0.0,0.0
21361523763133,-1.038485,8.930014,4.1635113,0.0,0.0,0.0
21361526142247,-1.052842,8.9348,4.182654,0.0,0.0,0.0
21361528521362,-1.0336994,8.925228,4.240082,0.0,0.0,0.0
21361530900477,-1.0480564,8.915657,4.3405805,0.0,0.0,0.0
21361533279539,-1.038485,8.9013,4.412365,0.0,0.0,0.0
21361535658654,-1.0480564,8.944371,4.4458647,0.0,0.0,0.0
21361538037768,-0.9954142,8.9108715,4.359723,0.0,0.0,0.0
21361540416883,-0.9667004,8.886943,4.2448673,0.0,0.0,0.0
21361542795997,-0.9523434,8.882157,4.2257247,0.0,0.0,0.0
21361545175112,-0.90448695,8.863015,4.302295,0.0,0.0,0.0
21361547554227,-0.8853444,8.805588,4.4889355,0.0,0.0,0.0
21361549933289,-0.86141616,8.800801,4.651647,0.0,0.0,0.0
21361552312404,-0.8566305,8.7577305,4.666004,0.0,0.0,0.0
21361554691518,-0.8470592,8.752945,4.56072,0.0,0.0,0.0
21361557070633,-0.8566305,8.79123,4.3932223,0.0,0.0,0.0
21361559449747,-0.8853444,8.82473,4.254439,0.0,0.0,0.0
21361561828862,-0.89013004,8.800801,4.249653,0.0,0.0,0.0
21361564207977,-0.93320084,8.79123,4.388437,0.0,0.0,0.0
21361566587091,-0.98584294,8.805588,4.56072,0.0,0.0,0.0
21361568966154,-1.0097711,8.79123,4.618148,0.0,0.0,0.0
21361571345268,-1.0289137,8.819944,4.546363,0.0,0.0,0.0
21361573724383,-1.0336994,8.853444,4.3645086,0.0,0.0,0.0
21361576103497,-1.0432707,8.891729,4.240082,0.0,0.0,0.0
21361578482612,-1.0336994,8.9108715,4.1922255,0.0,0.0,0.0
21361580861727,-1.0719845,8.949157,4.2592244,0.0,0.0,0.0
21361583240789,-1.0480564,9.0544405,4.426722,0.0,0.0,0.0
21361585619904,-1.0336994,8.882157,4.316652,0.0,0.0,0.0
21361587999018,-0.9379865,8.786445,4.106084,0.0,0.0,0.0
21361590378133,-0.98584294,8.915657,4.0677986,0.0,0.0,0.0
21361592757247,-0.8853444,8.920443,4.1491547,0.0,0.0,0.0
21361595136362,-0.9092726,8.7673025,4.388437,0.0,0.0,0.0
21361597515477,-0.8422736,8.724232,4.5128636,0.0,0.0,0.0
21361599894539,-0.8422736,8.786445,4.479364,0.0,0.0,0.0
21361602273654,-0.75613195,8.762517,4.2352962,0.0,0.0,0.0
21361604652768,-0.79920274,8.810373,4.024728,0.0,0.0,0.0
21361607031883,-0.7896315,8.85823,3.9673,0.0,0.0,0.0
21361609410997,-0.7848458,8.800801,4.125226,0.0,0.0,0.0
21361611790112,-0.8039884,8.743374,4.369294,0.0,0.0,0.0
21361614169227,-0.79441714,8.762517,4.517649,0.0,0.0,0.0
21361616548341,-0.82313097,8.786445,4.479364,0.0,0.0,0.0
21361618927456,-0.8709874,8.752945,4.3070807,0.0,0.0,0.0
21361621306518,-0.91405827,8.762517,4.15394,0.0,0.0,0.0
21361623685633,-0.98584294,8.7673025,4.139583,0.0,0.0,0.0
21361626064747,-1.0624132,8.733803,4.2831526,0.0,0.0,0.0
21361628443810,-1.1389836,8.719446,4.45065,0.0,0.0,0.0
21361630822977,-1.18684,8.752945,4.570291,0.0,0.0,0.0
21361633202091,-1.2155539,8.79123,4.5415773,0.0,0.0,0.0
21361635581154,-1.2586247,8.829515,4.4602213,0.0,0.0,0.0
21361637960268,-1.2729816,8.872586,4.369294,0.0,0.0,0.0
21361640339383,-1.2873386,8.886943,4.3405805,0.0,0.0,0.0
21361642718497,-1.282553,8.853444,4.388437,0.0,0.0,0.0
21361645097612,-1.2634103,8.872586,4.479364,0.0,0.0,0.0
21361647476727,-1.2442678,8.877372,4.551149,0.0,0.0,0.0
21361649855841,-1.2299109,8.872586,4.517649,0.0,0.0,0.0
21361652234956,-1.1676974,8.829515,4.426722,0.0,0.0,0.0
21361654614018,-1.1246266,8.819944,4.3357944,0.0,0.0,0.0
21361656993133,-1.0815558,8.762517,4.273581,0.0,0.0,0.0
21361659372247,-1.0863415,8.685946,4.273581,0.0,0.0,0.0
21361661751362,-1.052842,8.685946,4.273581,0.0,0.0,0.0
21361664130477,-1.038485,8.695518,4.2161536,0.0,0.0,0.0
21361666509591,-1.0671989,8.71466,4.115655,0.0,0.0,0.0
21361668888706,-1.0815558,8.695518,3.9816568,0.0,0.0,0.0
21361671267768,-1.2059826,8.863015,4.0007997,0.0,0.0,0.0
21361673646883,-1.2729816,8.987442,4.0869412,0.0,0.0,0.0
21361676025997,-1.3495519,9.006584,4.082155,0.0,0.0,0.0
21361678405112,-1.402194,9.073584,4.0295134,0.0,0.0,0.0
21361680784227,-1.4548361,9.174082,3.9481573,0.0,0.0,0.0
21361683163341,-1.4548361,9.178867,3.991228,0.0,0.0,0.0
21361685542456,-1.4117653,9.08794,4.2352962,0.0,0.0,0.0
21361687921570,-1.3543376,9.001799,4.517649,0.0,0.0,0.0
21361690300633,-1.268196,8.906086,4.7042894,0.0,0.0,0.0
21361692679747,-1.1533405,8.843872,4.790431,0.0,0.0,0.0
21361695058862,-1.0145568,8.800801,4.6803613,0.0,0.0,0.0
21361697437977,-0.9284152,8.85823,4.536792,0.0,0.0,0.0
21361699817091,-0.72741807,8.776874,4.3070807,0.0,0.0,0.0
21361702196206,-0.6364908,8.786445,4.249653,0.0,0.0,0.0
21361704575320,-0.4211368,8.805588,4.278367,0.0,0.0,0.0
21361706954383,-0.33499518,8.79123,4.369294,0.0,0.0,0.0
21361709333497,-0.22492532,8.738588,4.465007,0.0,0.0,0.0
21361711712612,-0.09092726,8.690732,4.436293,0.0,0.0,0.0
21361714091727,-0.06699903,8.729017,4.331009,0.0,0.0,0.0
21361716470841,-0.0526421,8.748159,4.2161536,0.0,0.0,0.0
21361718849956,-0.07178468,8.695518,4.206582,0.0,0.0,0.0
21361721229070,-0.11964113,8.657232,4.3357944,0.0,0.0,0.0
21361723608133,-0.22492532,8.700303,4.469793,0.0,0.0,0.0
21361725987247,-0.39720857,8.733803,4.517649,0.0,0.0,0.0
21361728366362,-0.5072784,8.685946,4.4602213,0.0,0.0,0.0
21361730745477,-0.6125626,8.743374,4.3405805,0.0,0.0,0.0
21361733124591,-0.72263247,8.7577305,4.2257247,0.0,0.0,0.0
21361735503706,-0.8039884,8.7577305,4.240082,0.0,0.0,0.0
21361737882820,-0.7752745,8.743374,4.345366,0.0,0.0,0.0
21361740261935,-0.80877405,8.796016,4.4889355,0.0,0.0,0.0
21361742640997,-0.8039884,8.772088,4.5128636,0.0,0.0,0.0
21361745020112,-0.76570326,8.79123,4.4554358,0.0,0.0,0.0
21361747399227,-0.6891329,8.877372,4.369294,0.0,0.0,0.0
21361749778341,-0.64606214,8.872586,4.2448673,0.0,0.0,0.0
21361752157456,-0.5455636,8.810373,4.1587257,0.0,0.0,0.0
21361754536570,-0.51206404,8.863015,4.1874394,0.0,0.0,0.0
21361756915685,-0.4211368,8.853444,4.197011,0.0,0.0,0.0
21361759294747,-0.43070808,8.834301,4.23051,0.0,0.0,0.0
21361761673862,-0.34456646,8.853444,4.168297,0.0,0.0,0.0
21361764052977,-0.3589234,8.9108715,4.058227,0.0,0.0,0.0
21361766432091,-0.38285163,8.906086,4.063013,0.0,0.0,0.0
21361768811206,-0.35413775,8.906086,4.182654,0.0,0.0,0.0
21361771190320,-0.40677986,8.882157,4.249653,0.0,0.0,0.0
21361773569435,-0.46899325,8.867801,4.26401,0.0,0.0,0.0
21361775948497,-0.57906306,8.82473,4.2161536,0.0,0.0,0.0
21361778327612,-0.6652047,8.781659,4.1874394,0.0,0.0,0.0
21361780706727,-0.7848458,8.748159,4.182654,0.0,0.0,0.0
21361783085841,-0.8805587,8.772088,4.2161536,0.0,0.0,0.0
21361785464956,-0.94277215,8.781659,4.2017965,0.0,0.0,0.0
21361787844070,-1.052842,8.796016,4.182654,0.0,0.0,0.0
21361790223185,-1.1246266,8.776874,4.2017965,0.0,0.0,0.0
21361792602299,-1.1389836,8.819944,4.254439,0.0,0.0,0.0
21361794981362,-1.1533405,8.839087,4.26401,0.0,0.0,0.0
21361797360477,-1.1820544,8.853444,4.23051,0.0,0.0,0.0
21361799739591,-1.1437693,8.9108715,4.173083,0.0,0.0,0.0
21361802118706,-1.0959128,8.891729,4.063013,0.0,0.0,0.0
21361804497820,-1.0863415,8.872586,3.9768713,0.0,0.0,0.0
21361806876883,-1.0624132,9.078369,4.197011,0.0,0.0,0.0
21361809256049,-0.7369894,8.9108715,3.818945,0.0,0.0,0.0
21361811635112,-1.1246266,9.0544405,4.115655,0.0,0.0,0.0
21361814014227,-0.86141616,8.724232,4.867001,0.0,0.0,0.0
21361816393341,-0.64606214,8.709874,5.4173503,0.0,0.0,0.0
21361818772456,-0.7513463,8.886943,4.9052863,0.0,0.0,0.0
21361821151570,-0.7369894,8.85823,3.9242291,0.0,0.0,0.0
21361823530685,-0.6939186,9.001799,3.7184465,0.0,0.0,0.0
21361825909799,-0.5982057,8.891729,3.9290147,0.0,0.0,0.0
21361828288862,-0.8422736,8.9108715,4.618148,0.0,0.0,0.0
21361830667977,-0.7082755,8.690732,5.111069,0.0,0.0,0.0
21361833047091,-0.67477596,8.815159,5.2259245,0.0,0.0,0.0
21361835426206,-0.8135597,8.829515,4.6564326,0.0,0.0,0.0
21361837805320,-0.9284152,8.848659,4.1491547,0.0,0.0,0.0
21361840184435,-0.8327023,8.920443,3.9577286,0.0,0.0,0.0
21361842563549,-0.8039884,8.939586,4.1108694,0.0,0.0,0.0
21361844942612,-0.9762716,8.886943,4.752146,0.0,0.0,0.0
21361847321727,-0.7369894,8.748159,5.2498527,0.0,0.0,0.0
21361849700841,-0.72741807,8.796016,5.245067,0.0,0.0,0.0
21361852079956,-0.76570326,8.882157,4.699504,0.0,0.0,0.0
21361854459070,-0.61734825,8.891729,4.0534415,0.0,0.0,0.0
21361856838185,-0.57427746,8.939586,3.737589,0.0,0.0,0.0
21361859217299,-0.56470615,8.958728,3.9625144,0.0,0.0,0.0
21361861596362,-0.5024927,8.819944,4.465007,0.0,0.0,0.0
21361863975477,-0.41635114,8.805588,4.914858,0.0,0.0,0.0
21361866354591,-0.46899325,8.843872,4.8765726,0.0,0.0,0.0
21361868733706,-0.4546363,8.839087,4.421936,0.0,0.0,0.0
21361871112820,-0.4211368,8.863015,3.9242291,0.0,0.0,0.0
21361873491935,-0.42592242,8.886943,3.6897326,0.0,0.0,0.0
21361875871049,-0.4642076,8.853444,3.7758741,0.0,0.0,0.0
21361878250164,-0.5072784,8.863015,4.173083,0.0,0.0,0.0
21361880629227,-0.4546363,8.800801,4.4171505,0.0,0.0,0.0
21361883008341,-0.61734825,8.839087,4.436293,0.0,0.0,0.0
21361885387456,-0.6269195,8.848659,4.173083,0.0,0.0,0.0
21361887766570,-0.74177504,8.906086,3.8572302,0.0,0.0,0.0
21361890145685,-0.7848458,8.958728,3.6466618,0.0,0.0,0.0
21361892524799,-0.8422736,8.953942,3.7471602,0.0,0.0,0.0
21361894903914,-0.8757731,8.9108715,4.0295134,0.0,0.0,0.0
21361897283029,-0.93320084,8.848659,4.321438,0.0,0.0,0.0
21361899662091,-0.9667004,8.839087,4.436293,0.0,0.0,0.0
21361902041206,-0.971486,8.848659,4.2975097,0.0,0.0,0.0
21361904420320,-0.98584294,8.891729,4.082155,0.0,0.0,0.0
21361906799435,-0.9523434,8.920443,3.938586,0.0,0.0,0.0
21361909178549,-0.9523434,8.9348,4.034299,0.0,0.0,0.0
21361911557664,-0.91884387,8.920443,4.23051,0.0,0.0,0.0
21361913936779,-0.8997013,8.9108715,4.421936,0.0,0.0,0.0
21361916315841,-0.89491564,8.896515,4.508078,0.0,0.0,0.0
21361918694904,-0.8709874,8.882157,4.4554358,0.0,0.0,0.0
21361921074070,-0.8709874,8.930014,4.4315076,0.0,0.0,0.0
21361923453185,-0.8662018,8.9013,4.436293,0.0,0.0,0.0
21361925832299,-0.8853444,8.9013,4.421936,0.0,0.0,0.0
21361928211414,-0.8470592,8.886943,4.4458647,0.0,0.0,0.0
21361930590529,-0.89491564,8.85823,4.5224347,0.0,0.0,0.0
21361932969591,-0.8470592,8.82473,4.570291,0.0,0.0,0.0
21361935348706,-0.9379865,8.82473,4.666004,0.0,0.0,0.0
21361937727820,-0.91884387,8.82473,4.6564326,0.0,0.0,0.0
21361940106935,-0.9619147,8.848659,4.5798626,0.0,0.0,0.0
21361942486049,-0.9619147,8.848659,4.4841495,0.0,0.0,0.0
21361944865164,-0.9667004,8.872586,4.45065,0.0,0.0,0.0
21361947244279,-0.971486,8.863015,4.412365,0.0,0.0,0.0
21361949623393,-0.9619147,8.872586,4.412365,0.0,0.0,0.0
21361952002456,-0.9667004,8.886943,4.426722,0.0,0.0,0.0
21361954381570,-0.9762716,8.882157,4.3932223,0.0,0.0,0.0
21361956760685,-0.971486,8.886943,4.3070807,0.0,0.0,0.0
21361959139799,-0.9379865,8.863015,4.2161536,0.0,0.0,0.0
21361961518914,-0.8997013,8.839087,4.168297,0.0,0.0,0.0
21361963897977,-0.91405827,8.872586,4.1443686,0.0,0.0,0.0
21361966277143,-0.8757731,8.867801,4.139583,0.0,0.0,0.0
21361968656206,-0.8709874,8.82473,4.1635113,0.0,0.0,0.0
21361971035320,-0.85184485,8.834301,4.130012,0.0,0.0,0.0
21361973414435,-0.8709874,8.891729,4.048656,0.0,0.0,0.0
21361975793549,-0.8279166,8.85823,3.9050865,0.0,0.0,0.0
21361978172664,-0.80877405,8.867801,3.8763726,0.0,0.0,0.0
21361980551779,-0.79920274,8.867801,3.9816568,0.0,0.0,0.0
21361982930841,-0.7609176,8.829515,4.15394,0.0,0.0,0.0
21361985309956,-0.7465607,8.834301,4.254439,0.0,0.0,0.0
21361987689070,-0.70348984,8.79123,4.1587257,0.0,0.0,0.0
21361990068185,-0.72263247,8.839087,4.0773697,0.0,0.0,0.0
21361992447299,-0.6795616,8.805588,3.9720855,0.0,0.0,0.0
21361994826414,-0.6843473,8.815159,3.9816568,0.0,0.0,0.0
21361997205529,-0.6556334,8.7673025,4.048656,0.0,0.0,0.0
21361999584643,-0.66041905,8.776874,4.182654,0.0,0.0,0.0
21362001963706,-0.67477596,8.743374,4.278367,0.0,0.0,0.0
21362004342820,-0.6939186,8.839087,4.3932223,0.0,0.0,0.0
21362006721935,-0.71306115,8.685946,4.316652,0.0,0.0,0.0
21362009101049,-0.6987042,8.7673025,4.354937,0.0,0.0,0.0
21362011480164,-0.7609176,8.843872,4.3932223,0.0,0.0,0.0
21362013859279,-0.79441714,8.82473,4.359723,0.0,0.0,0.0
21362016238393,-0.8279166,8.915657,4.3932223,0.0,0.0,0.0
21362018617508,-0.7848458,8.906086,4.3262234,0.0,0.0,0.0
21362020996570,-0.7800602,8.997013,4.3932223,0.0,0.0,0.0
21362023375685,-0.74177504,8.915657,4.2975097,0.0,0.0,0.0
21362025754799,-0.7369894,9.025727,4.2927237,0.0,0.0,0.0
21362028133914,-0.70348984,8.925228,4.139583,0.0,0.0,0.0
21362030513029,-0.65084773,8.939586,4.168297,0.0,0.0,0.0
21362032892143,-0.63170516,8.839087,4.0390844,0.0,0.0,0.0
21362035271206,-0.5838487,8.805588,3.9864426,0.0,0.0,0.0
21362037650320,-0.5694918,8.7673025,4.0295134,0.0,0.0,0.0
21362040029435,-0.46899325,8.657232,4.0534415,0.0,0.0,0.0
21362042408549,-0.4642076,8.633304,4.1587257,0.0,0.0,0.0
21362044787664,-0.4019942,8.633304,4.1491547,0.0,0.0,0.0
21362047166779,-0.33499518,8.719446,3.9768713,0.0,0.0,0.0
21362049545893,-0.31106696,8.752945,3.7423747,0.0,0.0,0.0
21362051924956,-0.26799613,8.839087,3.6753755,0.0,0.0,0.0
21362054304070,-0.2440679,8.853444,3.7328033,0.0,0.0,0.0
21362056683185,-0.2632105,8.958728,3.8811584,0.0,0.0,0.0
21362059062299,-0.30149564,9.030513,4.0007997,0.0,0.0,0.0
21362061441414,-0.34456646,9.064013,4.101298,0.0,0.0,0.0
21362063820529,-0.44506502,9.097511,4.130012,0.0,0.0,0.0
21362066199643,-0.49292147,9.107083,4.024728,0.0,0.0,0.0
21362068578758,-0.56470615,9.135797,3.991228,0.0,0.0,0.0
21362070957820,-0.6364908,9.097511,4.019942,0.0,0.0,0.0
21362073336935,-0.6652047,9.08794,4.197011,0.0,0.0,0.0
21362075716049,-0.7322037,9.08794,4.278367,0.0,0.0,0.0
21362078095164,-0.7609176,9.097511,4.2257247,0.0,0.0,0.0
21362080474279,-0.7848458,9.131011,4.0295134,0.0,0.0,0.0
21362082853393,-0.7752745,9.116654,3.790231,0.0,0.0,0.0
21362085232508,-0.7896315,9.131011,3.7088752,0.0,0.0,0.0
21362087611570,-0.8039884,9.135797,3.8285162,0.0,0.0,0.0
21362089990685,-0.8327023,9.140582,3.9433718,0.0,0.0,0.0
21362092369799,-0.81834537,9.102298,3.9433718,0.0,0.0,0.0
21362094748914,-0.79920274,9.097511,3.8476589,0.0,0.0,0.0
21362097128029,-0.80877405,9.111869,3.7806597,0.0,0.0,0.0
21362099507143,-0.74177504,9.097511,3.723232,0.0,0.0,0.0
21362101886258,-0.6843473,9.040084,3.6514473,0.0,0.0,0.0
21362104265320,-0.6556334,9.073584,3.5940197,0.0,0.0,0.0
21362106644435,-0.6364908,9.083155,3.656233,0.0,0.0,0.0
21362109023549,-0.6364908,9.049655,3.804588,0.0,0.0,0.0
21362111402664,-0.6412765,9.068798,3.9768713,0.0,0.0,0.0
21362113781727,-0.67477596,9.068798,4.0007997,0.0,0.0,0.0
21362116160893,-0.72263247,9.131011,3.9481573,0.0,0.0,0.0
21362118540008,-0.7369894,9.164511,3.938586,0.0,0.0,0.0
21362120919122,-0.7609176,9.183653,3.9625144,0.0,0.0,0.0
21362123298185,-0.7752745,9.188439,4.0007997,0.0,0.0,0.0
21362125677299,-0.7609176,9.193225,4.0677986,0.0,0.0,0.0
21362128056414,-0.75613195,9.15494,4.082155,0.0,0.0,0.0
21362130435529,-0.7369894,9.178867,4.091727,0.0,0.0,0.0
21362132814643,-0.72263247,9.15494,4.0965123,0.0,0.0,0.0
21362135193758,-0.6412765,9.126225,4.0677986,0.0,0.0,0.0
21362137572820,-0.6125626,9.126225,4.058227,0.0,0.0,0.0
21362139951935,-0.55034924,9.107083,4.091727,0.0,0.0,0.0
21362142331049,-0.5024927,9.073584,4.106084,0.0,0.0,0.0
21362144710164,-0.4642076,9.030513,4.0773697,0.0,0.0,0.0
21362147089279,-0.44027936,9.01137,4.058227,0.0,0.0,0.0
21362149468393,-0.3684947,8.973084,4.0295134,0.0,0.0,0.0
21362151847508,-0.31106696,8.963513,4.072584,0.0,0.0,0.0
21362154226622,-0.2727818,8.906086,4.125226,0.0,0.0,0.0
21362156605685,-0.22971097,8.9108715,4.15394,0.0,0.0,0.0
21362158984799,-0.18185452,8.886943,4.1347976,0.0,0.0,0.0
21362161363914,-0.11964113,8.882157,4.091727,0.0,0.0,0.0
21362163743029,-0.05742774,8.886943,4.0390844,0.0,0.0,0.0
21362166122143,-0.06699903,8.896515,4.0007997,0.0,0.0,0.0
21362168501258,-0.0526421,8.843872,3.9433718,0.0,0.0,0.0
21362170880372,-0.02871387,8.839087,3.8668015,0.0,0.0,0.0
21362173259435,-0.086141616,8.867801,3.900301,0.0,0.0,0.0
21362175638549,-0.14356937,8.867801,4.0677986,0.0,0.0,0.0
21362178017664,-0.148355,8.839087,4.249653,0.0,0.0,0.0
21362180396779,-0.17228323,8.848659,4.26401,0.0,0.0,0.0
21362182775893,-0.29192436,8.973084,4.26401,0.0,0.0,0.0
21362185155008,-0.24885355,8.963513,4.206582,0.0,0.0,0.0
21362187534122,-0.2536392,8.997013,4.2161536,0.0,0.0,0.0
21362189913185,-0.23449662,9.016156,4.211368,0.0,0.0,0.0
21362192292299,-0.19142582,8.915657,4.2352962,0.0,0.0,0.0
21362194671414,-0.11964113,8.810373,4.3118663,0.0,0.0,0.0
21362197050529,-0.13399807,8.829515,4.5128636,0.0,0.0,0.0
21362199429643,-0.033499517,8.968299,4.867001,0.0,0.0,0.0
21362201808758,0.009571291,8.968299,4.924429,0.0,0.0,0.0
21362204187872,0.16749759,8.82473,4.3118663,0.0,0.0,0.0
21362206566987,0.16271193,8.958728,3.5653057,0.0,0.0,0.0
21362208946049,0.19621146,9.0544405,3.3212378,0.0,0.0,0.0
21362211325164,0.1052842,8.882157,3.991228,0.0,0.0,0.0
21362213704279,0.06699903,8.748159,4.790431,0.0,0.0,0.0
21362216083393,-0.12921242,8.705089,4.996214,0.0,0.0,0.0
21362218462508,-0.22492532,8.743374,4.6468616,0.0,0.0,0.0
21362220841622,-0.38285163,8.786445,4.139583,0.0,0.0,0.0
21362223220737,-0.53599226,8.872586,3.9433718,0.0,0.0,0.0
21362225599799,-0.70348984,8.853444,3.9290147,0.0,0.0,0.0
21362227978914,-0.7896315,8.796016,3.9625144,0.0,0.0,0.0
21362230358029,-0.9906286,8.834301,4.182654,0.0,0.0,0.0
21362232737143,-1.1006985,8.867801,4.536792,0.0,0.0,0.0
21362235116258,-1.2107682,8.85823,4.900501,0.0,0.0,0.0
21362237495372,-1.2634103,8.877372,4.881358,0.0,0.0,0.0
21362239874487,-1.3304094,8.958728,4.426722,0.0,0.0,0.0
21362242253549,-1.3160524,8.992228,3.9768713,0.0,0.0,0.0
21362244632664,-1.3064811,8.9826565,4.0007997,0.0,0.0,0.0
21362247011779,-1.2777673,8.920443,4.4410787,0.0,0.0,0.0
21362249390841,-1.2299109,8.853444,4.871787,0.0,0.0,0.0
21362251770008,-1.1533405,8.781659,4.9340005,0.0,0.0,0.0
21362254149122,-1.0624132,8.848659,4.6755753,0.0,0.0,0.0
21362256528237,-0.9619147,8.9348,4.412365,0.0,0.0,0.0
21362258907299,-0.83748794,8.882157,4.2975097,0.0,0.0,0.0
21362261286414,-0.70348984,8.7673025,4.1922255,0.0,0.0,0.0
21362263665529,-0.6652047,8.772088,4.1587257,0.0,0.0,0.0
21362266044643,-0.57906306,8.724232,4.3357944,0.0,0.0,0.0
21362268423758,-0.526421,8.657232,4.776074,0.0,0.0,0.0
21362270802872,-0.49292147,8.662018,5.111069,0.0,0.0,0.0
21362273181987,-0.44985065,8.729017,4.996214,0.0,0.0,0.0
21362275561049,-0.3589234,8.7673025,4.45065,0.0,0.0,0.0
21362277940164,-0.31585258,8.853444,3.9673,0.0,0.0,0.0
21362280319279,-0.33499518,8.9108715,3.8955152,0.0,0.0,0.0
21362282698393,-0.42592242,8.882157,4.2017965,0.0,0.0,0.0
21362285077508,-0.5312066,8.7673025,4.5559344,0.0,0.0,0.0
21362287456622,-0.6556334,8.7673025,4.800002,0.0,0.0,0.0
21362289835737,-0.81834537,8.729017,4.8861437,0.0,0.0,0.0
21362292214799,-0.8997013,8.705089,4.7712884,0.0,0.0,0.0
21362294593914,-1.0145568,8.738588,4.4841495,0.0,0.0,0.0
21362296973029,-1.0863415,8.752945,4.1874394,0.0,0.0,0.0
21362299352143,-1.1581261,8.671589,4.1491547,0.0,0.0,0.0
21362301731258,-1.2251252,8.63809,4.398008,0.0,0.0,0.0
21362304110372,-1.3064811,8.63809,4.7952166,0.0,0.0,0.0
21362306489487,-1.3064811,8.63809,5.063213,0.0,0.0,0.0
21362308868549,-1.2203395,8.652447,4.900501,0.0,0.0,0.0
21362311247664,-1.2299109,8.738588,4.479364,0.0,0.0,0.0
21362313626779,-1.1533405,8.748159,4.0965123,0.0,0.0,0.0
21362316005893,-1.1246266,8.724232,4.058227,0.0,0.0,0.0
21362318385008,-1.1006985,8.724232,4.3405805,0.0,0.0,0.0
21362320764122,-1.0671989,8.709874,4.6899323,0.0,0.0,0.0
21362323143185,-1.0049855,8.690732,4.8382874,0.0,0.0,0.0
21362325522352,-0.90448695,8.705089,4.7138605,0.0,0.0,0.0
21362327901414,-0.86141616,8.733803,4.469793,0.0,0.0,0.0
21362330280529,-0.80877405,8.733803,4.211368,0.0,0.0,0.0
21362332659643,-0.7752745,8.729017,4.0103707,0.0,0.0,0.0
21362335038758,-0.79920274,8.752945,4.082155,0.0,0.0,0.0
21362337417872,-0.8279166,8.709874,4.345366,0.0,0.0,0.0
21362339796987,-0.90448695,8.676374,4.6612186,0.0,0.0,0.0
21362342176102,-0.94755775,8.681161,4.8047876,0.0,0.0,0.0
21362344555164,-1.038485,8.700303,4.6899323,0.0,0.0,0.0
21362346934279,-1.0624132,8.690732,4.3932223,0.0,0.0,0.0
21362349313393,-1.0719845,8.738588,4.1443686,0.0,0.0,0.0
21362351692508,-1.0719845,8.79123,4.130012,0.0,0.0,0.0
21362354071622,-1.052842,8.776874,4.3405805,0.0,0.0,0.0
21362356450737,-0.98584294,8.7673025,4.536792,0.0,0.0,0.0
21362358829852,-0.90448695,8.810373,4.5655055,0.0,0.0,0.0
21362361208966,-0.80877405,8.848659,4.4315076,0.0,0.0,0.0
21362363588029,-0.66041905,8.867801,4.2448673,0.0,0.0,0.0
21362365967091,-0.55513483,8.896515,4.139583,0.0,0.0,0.0
21362368346258,-0.44985065,8.920443,4.1491547,0.0,0.0,0.0
21362370725372,-0.36370903,8.9108715,4.2831526,0.0,0.0,0.0
21362373104487,-0.30149564,8.886943,4.4075794,0.0,0.0,0.0
21362375483602,-0.18185452,8.877372,4.4745784,0.0,0.0,0.0
21362377862664,-0.09092726,8.872586,4.465007,0.0,0.0,0.0
21362380241779,-0.019142581,8.877372,4.359723,0.0,0.0,0.0
21362382620893,0.014356935,8.882157,4.1922255,0.0,0.0,0.0
21362385000008,0.043070808,8.891729,4.063013,0.0,0.0,0.0
21362387379122,0.009571291,8.915657,4.101298,0.0,0.0,0.0
21362389758237,-0.033499517,8.867801,4.2592244,0.0,0.0,0.0
21362392137352,-0.14356937,8.906086,4.4171505,0.0,0.0,0.0
21362394516466,-0.2727818,8.930014,4.398008,0.0,0.0,0.0
21362396895529,-0.4354937,8.953942,4.26401,0.0,0.0,0.0
21362399274643,-0.5838487,9.001799,4.101298,0.0,0.0,0.0
21362401653758,-0.74177504,9.016156,4.063013,0.0,0.0,0.0
21362404032872,-0.8566305,9.016156,4.1347976,0.0,0.0,0.0
21362406411987,-0.9667004,9.01137,4.249653,0.0,0.0,0.0
21362408791102,-1.0193424,9.025727,4.3836513,0.0,0.0,0.0
21362411170164,-1.0719845,9.001799,4.4171505,0.0,0.0,0.0
21362413549331,-1.0719845,8.973084,4.3788652,0.0,0.0,0.0
21362415928393,-1.0480564,8.949157,4.2975097,0.0,0.0,0.0
21362418307508,-0.98584294,8.930014,4.206582,0.0,0.0,0.0
21362420686622,-0.91405827,8.896515,4.197011,0.0,0.0,0.0
21362423065737,-0.85184485,8.863015,4.2257247,0.0,0.0,0.0
21362425444852,-0.80877405,8.85823,4.3118663,0.0,0.0,0.0
21362427823966,-0.70348984,8.843872,4.3501515,0.0,0.0,0.0
21362430203029,-0.6652047,8.853444,4.2975097,0.0,0.0,0.0
21362432582143,-0.66041905,8.886943,4.197011,0.0,0.0,0.0
21362434961258,-0.6125626,8.939586,4.072584,0.0,0.0,0.0
21362437340372,-0.5886344,8.915657,4.0773697,0.0,0.0,0.0
21362439719487,-0.5838487,8.915657,4.1587257,0.0,0.0,0.0
21362442098602,-0.60777694,8.920443,4.2448673,0.0,0.0,0.0
21362444477716,-0.6556334,8.939586,4.302295,0.0,0.0,0.0
21362446856831,-0.7465607,8.963513,4.287938,0.0,0.0,0.0
21362449235893,-0.81834537,8.973084,4.2592244,0.0,0.0,0.0
21362451615008,-0.89491564,8.963513,4.26401,0.0,0.0,0.0
21362453994122,-0.9762716,8.963513,4.2927237,0.0,0.0,0.0
21362456373237,-1.0480564,8.944371,4.354937,0.0,0.0,0.0
21362458752352,-1.1246266,8.939586,4.421936,0.0,0.0,0.0
21362461131466,-1.134198,8.906086,4.4745784,0.0,0.0,0.0
21362463510529,-1.1533405,8.9013,4.4745784,0.0,0.0,0.0
21362465889643,-1.1294123,8.872586,4.4171505,0.0,0.0,0.0
21362468268758,-1.0959128,8.9013,4.3740797,0.0,0.0,0.0
21362470647872,-1.038485,8.896515,4.359723,0.0,0.0,0.0
21362473026987,-0.9379865,8.877372,4.354937,0.0,0.0,0.0
21362475406102,-0.8422736,8.843872,4.331009,0.0,0.0,0.0
21362477785216,-0.7704889,8.85823,4.359723,0.0,0.0,0.0
21362480164331,-0.7178468,8.839087,4.3740797,0.0,0.0,0.0
21362482543393,-0.67477596,8.815159,4.3501515,0.0,0.0,0.0
21362484922508,-0.6556334,8.79123,4.2975097,0.0,0.0,0.0
21362487301622,-0.61734825,8.7673025,4.26401,0.0,0.0,0.0
21362489680737,-0.6125626,8.709874,4.287938,0.0,0.0,0.0
21362492059852,-0.63170516,8.681161,4.3070807,0.0,0.0,0.0
21362494438966,-0.6652047,8.652447,4.3405805,0.0,0.0,0.0
21362496818081,-0.6939186,8.63809,4.369294,0.0,0.0,0.0
21362499197143,-0.7465607,8.609376,4.359723,0.0,0.0,0.0
21362501576258,-0.8039884,8.609376,4.3405805,0.0,0.0,0.0
21362503955372,-0.8709874,8.623733,4.2927237,0.0,0.0,0.0
21362506334487,-0.9667004,8.647661,4.2831526,0.0,0.0,0.0
21362508713602,-0.98584294,8.642876,4.302295,0.0,0.0,0.0
21362511092716,-1.0719845,8.676374,4.321438,0.0,0.0,0.0
21362513471831,-1.1102697,8.681161,4.354937,0.0,0.0,0.0
21362515850893,-1.1629118,8.729017,4.3740797,0.0,0.0,0.0
21362518230008,-1.1820544,8.781659,4.354937,0.0,0.0,0.0
21362520609122,-1.1772687,8.796016,4.3118663,0.0,0.0,0.0
21362522988237,-1.1916257,8.843872,4.2927237,0.0,0.0,0.0
21362525367352,-1.1294123,8.829515,4.2975097,0.0,0.0,0.0
21362527746466,-1.0959128,8.810373,4.3262234,0.0,0.0,0.0
21362530125581,-1.0576276,8.800801,4.345366,0.0,0.0,0.0
21362532504643,-1.0336994,8.805588,4.3501515,0.0,0.0,0.0
21362534883758,-0.971486,8.776874,4.3262234,0.0,0.0,0.0
21362537262872,-0.93320084,8.752945,4.2831526,0.0,0.0,0.0
21362539641987,-0.9092726,8.729017,4.254439,0.0,0.0,0.0
21362542021102,-0.8662018,8.705089,4.2448673,0.0,0.0,0.0
21362544400216,-0.8662018,8.690732,4.2352962,0.0,0.0,0.0
21362546779331,-0.89491564,8.700303,4.254439,0.0,0.0,0.0
21362549158393,-0.94277215,8.700303,4.2687955,0.0,0.0,0.0
21362551537456,-0.9523434,8.729017,4.249653,0.0,0.0,0.0
21362553916622,-0.95712906,8.752945,4.211368,0.0,0.0,0.0
21362556295737,-0.98584294,8.786445,4.1587257,0.0,0.0,0.0
21362558674852,-1.0145568,8.805588,4.101298,0.0,0.0,0.0
21362561053966,-1.052842,8.82473,4.1108694,0.0,0.0,0.0
21362563433081,-1.0863415,8.829515,4.1347976,0.0,0.0,0.0
21362565812143,-1.1006985,8.834301,4.139583,0.0,0.0,0.0
21362568191258,-1.0911272,8.877372,4.15394,0.0,0.0,0.0
21362570570372,-1.105484,8.882157,4.139583,0.0,0.0,0.0
21362572949487,-1.0624132,8.882157,4.1108694,0.0,0.0,0.0
21362575328602,-1.0097711,8.920443,4.101298,0.0,0.0,0.0
21362577707716,-0.94755775,8.930014,4.125226,0.0,0.0,0.0
21362580086831,-0.86141616,8.886943,4.1491547,0.0,0.0,0.0
21362582465945,-0.79920274,8.882157,4.139583,0.0,0.0,0.0
21362584845008,-0.6939186,8.930014,4.15394,0.0,0.0,0.0
21362587224122,-0.6125626,8.968299,4.1635113,0.0,0.0,0.0
21362589603237,-0.5312066,8.953942,4.1204405,0.0,0.0,0.0
21362591982352,-0.44985065,8.963513,4.0869412,0.0,0.0,0.0
21362594361466,-0.39720857,8.9826565,4.0773697,0.0,0.0,0.0
21362596740581,-0.33499518,8.997013,4.082155,0.0,0.0,0.0
21362599119695,-0.32063824,9.01137,4.091727,0.0,0.0,0.0
21362601498758,-0.31585258,9.01137,4.106084,0.0,0.0,0.0
21362603877872,-0.33499518,9.020942,4.115655,0.0,0.0,0.0
21362606256987,-0.3589234,9.044869,4.0773697,0.0,0.0,0.0
21362608636102,-0.4211368,9.016156,4.034299,0.0,0.0,0.0
21362611015216,-0.49292147,9.025727,4.024728,0.0,0.0,0.0
21362613394331,-0.55513483,9.030513,4.0534415,0.0,0.0,0.0
21362615773445,-0.64606214,8.992228,4.0534415,0.0,0.0,0.0
21362618152508,-0.6939186,8.968299,4.072584,0.0,0.0,0.0
21362620531622,-0.75613195,8.953942,4.1108694,0.0,0.0,0.0
21362622910737,-0.83748794,8.953942,4.1204405,0.0,0.0,0.0
21362625289852,-0.8709874,8.915657,4.1204405,0.0,0.0,0.0
21362627668966,-0.89491564,8.939586,4.0965123,0.0,0.0,0.0
21362630048081,-0.89013004,8.958728,4.091727,0.0,0.0,0.0
21362632427195,-0.8709874,8.958728,4.091727,0.0,0.0,0.0
21362634806258,-0.8470592,8.963513,4.130012,0.0,0.0,0.0
21362637185372,-0.8327023,8.987442,4.1587257,0.0,0.0,0.0
21362639564487,-0.7848458,8.997013,4.1491547,0.0,0.0,0.0
21362641943602,-0.7322037,9.001799,4.1443686,0.0,0.0,0.0
21362644322716,-0.6891329,9.006584,4.1347976,0.0,0.0,0.0
21362646701831,-0.67477596,9.025727,4.1347976,0.0,0.0,0.0
21362649080945,-0.63170516,9.064013,4.1491547,0.0,0.0,0.0
21362651460060,-0.6269195,9.044869,4.182654,0.0,0.0,0.0
21362653839122,-0.6029913,9.030513,4.206582,0.0,0.0,0.0
21362656218237,-0.6269195,9.020942,4.2448673,0.0,0.0,0.0
21362658597352,-0.66999036,9.001799,4.273581,0.0,0.0,0.0
21362660976466,-0.70348984,8.963513,4.278367,0.0,0.0,0.0
21362663355581,-0.74177504,8.944371,4.2927237,0.0,0.0,0.0
21362665734695,-0.7848458,8.896515,4.2831526,0.0,0.0,0.0
21362668113810,-0.8327023,8.872586,4.3070807,0.0,0.0,0.0
21362670492872,-0.8662018,8.863015,4.3501515,0.0,0.0,0.0
21362672871987,-0.8853444,8.85823,4.3645086,0.0,0.0,0.0
21362675251102,-0.89491564,8.834301,4.3645086,0.0,0.0,0.0
21362677630216,-0.8709874,8.829515,4.359723,0.0,0.0,0.0
21362680009331,-0.8662018,8.839087,4.331009,0.0,0.0,0.0
21362682388445,-0.8279166,8.82473,4.316652,0.0,0.0,0.0
21362684767560,-0.7752745,8.810373,4.3262234,0.0,0.0,0.0
21362687146622,-0.72741807,8.843872,4.3357944,0.0,0.0,0.0
21362689525737,-0.6795616,8.839087,4.3405805,0.0,0.0,0.0
21362691904852,-0.60777694,8.829515,4.359723,0.0,0.0,0.0
21362694283966,-0.5455636,8.829515,4.331009,0.0,0.0,0.0
21362696663081,-0.5072784,8.800801,4.3501515,0.0,0.0,0.0
21362699042195,-0.46899325,8.805588,4.354937,0.0,0.0,0.0
21362701421310,-0.44985065,8.815159,4.369294,0.0,0.0,0.0
21362703800372,-0.41635114,8.82473,4.3836513,0.0,0.0,0.0
21362706179487,-0.41156548,8.82473,4.4075794,0.0,0.0,0.0
21362708558602,-0.41156548,8.786445,4.436293,0.0,0.0,0.0
21362710937716,-0.41635114,8.800801,4.4602213,0.0,0.0,0.0
21362713316831,-0.40677986,8.800801,4.4554358,0.0,0.0,0.0
21362715695945,-0.4642076,8.805588,4.436293,0.0,0.0,0.0
21362718075060,-0.4977071,8.819944,4.4410787,0.0,0.0,0.0
21362720454122,-0.5407779,8.829515,4.426722,0.0,0.0,0.0
21362722833237,-0.5886344,8.85823,4.412365,0.0,0.0,0.0
21362725212352,-0.6364908,8.848659,4.412365,0.0,0.0,0.0
21362727591466,-0.6652047,8.839087,4.4171505,0.0,0.0,0.0
21362729970581,-0.66999036,8.843872,4.4075794,0.0,0.0,0.0
21362732349695,-0.6891329,8.853444,4.3788652,0.0,0.0,0.0
21362734728810,-0.71306115,8.843872,4.3645086,0.0,0.0,0.0
21362737107872,-0.71306115,8.843872,4.3740797,0.0,0.0,0.0
21362739486987,-0.70348984,8.815159,4.369294,0.0,0.0,0.0
21362741866102,-0.6795616,8.79123,4.3740797,0.0,0.0,0.0
21362744245216,-0.63170516,8.800801,4.354937,0.0,0.0,0.0
21362746624331,-0.60777694,8.79123,4.3501515,0.0,0.0,0.0
21362749003445,-0.5838487,8.772088,4.3645086,0.0,0.0,0.0
21362751382560,-0.55513483,8.79123,4.3118663,0.0,0.0,0.0
21362753761674,-0.5312066,8.815159,4.2975097,0.0,0.0,0.0
21362756140737,-0.5168497,8.810373,4.3118663,0.0,0.0,0.0
21362758519852,-0.51206404,8.810373,4.3070807,0.0,0.0,0.0
21362760898966,-0.52163535,8.805588,4.2975097,0.0,0.0,0.0
21362763278081,-0.4977071,8.834301,4.3070807,0.0,0.0,0.0
21362765657195,-0.52163535,8.853444,4.3070807,0.0,0.0,0.0
21362768036310,-0.5694918,8.891729,4.3070807,0.0,0.0,0.0
21362770415424,-0.57906306,8.886943,4.3118663,0.0,0.0,0.0
21362772794487,-0.57906306,8.9108715,4.3262234,0.0,0.0,0.0
21362775173602,-0.5982057,8.9108715,4.331009,0.0,0.0,0.0
21362777552716,-0.6125626,8.925228,4.345366,0.0,0.0,0.0
21362779931831,-0.60777694,8.9348,4.3501515,0.0,0.0,0.0
21362782310945,-0.6029913,8.896515,4.359723,0.0,0.0,0.0
21362784690060,-0.5886344,8.906086,4.3645086,0.0,0.0,0.0
21362787069174,-0.57427746,8.891729,4.359723,0.0,0.0,0.0
21362789448237,-0.5407779,8.85823,4.3645086,0.0,0.0,0.0
21362791827352,-0.4977071,8.843872,4.3501515,0.0,0.0,0.0
21362794206466,-0.44985065,8.843872,4.3405805,0.0,0.0,0.0
21362796585581,-0.43070808,8.819944,4.3262234,0.0,0.0,0.0
21362798964695,-0.40677986,8.810373,4.316652,0.0,0.0,0.0
21362801343810,-0.38285163,8.810373,4.302295,0.0,0.0,0.0
21362803722924,-0.3397808,8.815159,4.2927237,0.0,0.0,0.0
21362806101987,-0.33020952,8.815159,4.26401,0.0,0.0,0.0
21362808481102,-0.33499518,8.796016,4.2592244,0.0,0.0,0.0
21362810860216,-0.36370903,8.815159,4.254439,0.0,0.0,0.0
21362813239331,-0.35413775,8.819944,4.2592244,0.0,0.0,0.0
21362815618445,-0.3924229,8.829515,4.278367,0.0,0.0,0.0
21362817997560,-0.42592242,8.810373,4.302295,0.0,0.0,0.0
21362820376674,-0.46899325,8.815159,4.2975097,0.0,0.0,0.0
21362822755789,-0.52163535,8.834301,4.3118663,0.0,0.0,0.0
21362825134852,-0.526421,8.848659,4.316652,0.0,0.0,0.0
21362827513966,-0.57906306,8.85823,4.302295,0.0,0.0,0.0
21362829893081,-0.61734825,8.877372,4.2975097,0.0,0.0,0.0
21362832272195,-0.5982057,8.867801,4.3118663,0.0,0.0,0.0
21362834651310,-0.6221339,8.877372,4.321438,0.0,0.0,0.0
21362837030424,-0.6412765,8.891729,4.3357944,0.0,0.0,0.0
21362839409487,-0.6221339,8.920443,4.3405805,0.0,0.0,0.0
21362841788602,-0.6221339,8.9108715,4.3357944,0.0,0.0,0.0
21362844167716,-0.59342,8.944371,4.331009,0.0,0.0,0.0
21362846546831,-0.5886344,8.920443,4.331009,0.0,0.0,0.0
21362848925945,-0.5599205,8.9348,4.331009,0.0,0.0,0.0
21362851305060,-0.56470615,8.915657,4.3262234,0.0,0.0,0.0
21362853684174,-0.5312066,8.882157,4.321438,0.0,0.0,0.0
21362856063289,-0.5072784,8.863015,4.3357944,0.0,0.0,0.0
21362858442299,-0.47377887,8.839087,4.331009,0.0,0.0,0.0
21362860821466,-0.45942193,8.834301,4.3118663,0.0,0.0,0.0
21362863200581,-0.45942193,8.815159,4.3070807,0.0,0.0,0.0
21362865579695,-0.45942193,8.776874,4.302295,0.0,0.0,0.0
21362867958810,-0.5024927,8.781659,4.3357944,0.0,0.0,0.0
21362870337924,-0.51206404,8.752945,4.3501515,0.0,0.0,0.0
21362872717039,-0.55513483,8.738588,4.3501515,0.0,0.0,0.0
21362875096154,-0.56470615,8.7577305,4.331009,0.0,0.0,0.0
21362877475216,-0.5886344,8.748159,4.3357944,0.0,0.0,0.0
21362879854331,-0.6269195,8.743374,4.359723,0.0,0.0,0.0
21362882233445,-0.65084773,8.724232,4.3932223,0.0,0.0,0.0
21362884612560,-0.70348984,8.719446,4.421936,0.0,0.0,0.0
21362886991674,-0.7178468,8.709874,4.45065,0.0,0.0,0.0
21362889370789,-0.7178468,8.71466,4.465007,0.0,0.0,0.0
21362891749904,-0.71306115,8.729017,4.4554358,0.0,0.0,0.0
21362894128966,-0.7513463,8.729017,4.45065,0.0,0.0,0.0
21362896508081,-0.7609176,8.733803,4.465007,0.0,0.0,0.0
21362898887195,-0.7848458,8.748159,4.479364,0.0,0.0,0.0
21362901266258,-0.7848458,8.729017,4.517649,0.0,0.0,0.0
21362903645424,-0.8135597,8.724232,4.5415773,0.0,0.0,0.0
21362906024539,-0.7848458,8.738588,4.5655055,0.0,0.0,0.0
21362908403654,-0.7704889,8.729017,4.5655055,0.0,0.0,0.0
21362910782716,-0.7513463,8.738588,4.5559344,0.0,0.0,0.0
21362913161831,-0.7369894,8.738588,4.5320063,0.0,0.0,0.0
21362915540945,-0.75613195,8.743374,4.517649,0.0,0.0,0.0
21362917920060,-0.7752745,8.7577305,4.5320063,0.0,0.0,0.0
21362920299174,-0.82313097,8.776874,4.551149,0.0,0.0,0.0
21362922678289,-0.8662018,8.7577305,4.5415773,0.0,0.0,0.0
21362925057352,-0.8757731,8.786445,4.5415773,0.0,0.0,0.0
21362927436518,-0.91405827,8.815159,4.5320063,0.0,0.0,0.0
21362929815581,-0.98584294,8.815159,4.5128636,0.0,0.0,0.0
21362932194695,-1.0289137,8.810373,4.508078,0.0,0.0,0.0
21362934573810,-1.0480564,8.810373,4.493721,0.0,0.0,0.0
21362936952924,-1.0767702,8.800801,4.4889355,0.0,0.0,0.0
21362939332039,-1.1246266,8.805588,4.4985065,0.0,0.0,0.0
21362941711154,-1.134198,8.776874,4.503292,0.0,0.0,0.0
21362944090216,-1.1485549,8.805588,4.4889355,0.0,0.0,0.0
21362946469279,-1.1629118,8.810373,4.4745784,0.0,0.0,0.0
21362948848445,-1.1629118,8.79123,4.469793,0.0,0.0,0.0
21362951227560,-1.1676974,8.786445,4.4410787,0.0,0.0,0.0
21362953606674,-1.1150553,8.79123,4.421936,0.0,0.0,0.0
21362955985789,-1.0624132,8.776874,4.4075794,0.0,0.0,0.0
21362958364904,-0.9954142,8.776874,4.4171505,0.0,0.0,0.0
21362960743966,-0.94755775,8.805588,4.388437,0.0,0.0,0.0
21362963123081,-0.90448695,8.805588,4.388437,0.0,0.0,0.0
21362965502195,-0.86141616,8.82473,4.359723,0.0,0.0,0.0
21362967881310,-0.7752745,8.85823,4.3501515,0.0,0.0,0.0
21362970260424,-0.7178468,8.882157,4.321438,0.0,0.0,0.0
21362972639539,-0.66999036,8.863015,4.3070807,0.0,0.0,0.0
21362975018654,-0.63170516,8.85823,4.316652,0.0,0.0,0.0
21362977397768,-0.6269195,8.872586,4.3070807,0.0,0.0,0.0
21362979776831,-0.60777694,8.882157,4.2975097,0.0,0.0,0.0
21362982155945,-0.5838487,8.877372,4.2831526,0.0,0.0,0.0
21362984535060,-0.5886344,8.9013,4.287938,0.0,0.0,0.0
21362986914174,-0.5886344,8.891729,4.2927237,0.0,0.0,0.0
21362989293289,-0.6269195,8.877372,4.302295,0.0,0.0,0.0
21362991672404,-0.63170516,8.891729,4.2927237,0.0,0.0,0.0
21362994051466,-0.66041905,8.9108715,4.2975097,0.0,0.0,0.0
21362996430581,-0.66999036,8.915657,4.278367,0.0,0.0,0.0
21362998809695,-0.6891329,8.882157,4.2927237,0.0,0.0,0.0
21363001188758,-0.6843473,8.867801,4.2975097,0.0,0.0,0.0
21363003567924,-0.71306115,8.867801,4.26401,0.0,0.0,0.0
21363005947039,-0.74177504,8.834301,4.249653,0.0,0.0,0.0
21363008326154,-0.7465607,8.82473,4.249653,0.0,0.0,0.0
21363010705216,-0.7369894,8.82473,4.2448673,0.0,0.0,0.0
21363013084331,-0.74177504,8.839087,4.240082,0.0,0.0,0.0
21363015463445,-0.7465607,8.82473,4.2161536,0.0,0.0,0.0
21363017842560,-0.7752745,8.815159,4.2161536,0.0,0.0,0.0
21363020221674,-0.7609176,8.834301,4.2161536,0.0,0.0,0.0
21363022600789,-0.7704889,8.829515,4.197011,0.0,0.0,0.0
21363024979904,-0.79441714,8.843872,4.2017965,0.0,0.0,0.0
21363027358966,-0.8279166,8.853444,4.211368,0.0,0.0,0.0
21363029738081,-0.85184485,8.867801,4.2257247,0.0,0.0,0.0
21363032117195,-0.8805587,8.848659,4.220939,0.0,0.0,0.0
21363034496310,-0.9092726,8.839087,4.240082,0.0,0.0,0.0
21363036875424,-0.93320084,8.834301,4.2592244,0.0,0.0,0.0
21363039254539,-0.9236295,8.877372,4.220939,0.0,0.0,0.0
21363041633654,-0.90448695,8.891729,4.2352962,0.0,0.0,0.0
21363044012768,-0.9379865,8.867801,4.2352962,0.0,0.0,0.0
21363046391831,-0.9236295,8.877372,4.249653,0.0,0.0,0.0
21363048770945,-0.94277215,8.886943,4.2592244,0.0,0.0,0.0
21363051150060,-0.91884387,8.877372,4.2687955,0.0,0.0,0.0
21363053529174,-0.91884387,8.882157,4.2448673,0.0,0.0,0.0
21363055908289,-0.9092726,8.877372,4.206582,0.0,0.0,0.0
21363058287404,-0.8662018,8.877372,4.2257247,0.0,0.0,0.0
21363060666518,-0.8757731,8.867801,4.2161536,0.0,0.0,0.0
21363063045581,-0.8470592,8.906086,4.2161536,0.0,0.0,0.0
21363065424695,-0.8662018,8.9013,4.220939,0.0,0.0,0.0
21363067803758,-0.8662018,8.9013,4.2161536,0.0,0.0,0.0
21363070182924,-0.8566305,8.872586,4.23051,0.0,0.0,0.0
21363072562039,-0.8805587,8.843872,4.2257247,0.0,0.0,0.0
21363074941154,-0.89491564,8.853444,4.220939,0.0,0.0,0.0
21363077320268,-0.8997013,8.863015,4.220939,0.0,0.0,0.0
21363079699331,-0.91884387,8.853444,4.206582,0.0,0.0,0.0
21363082078445,-0.94277215,8.839087,4.220939,0.0,0.0,0.0
21363084457560,-0.9379865,8.853444,4.211368,0.0,0.0,0.0
21363086836674,-0.93320084,8.82473,4.211368,0.0,0.0,0.0
21363089215789,-0.94755775,8.834301,4.1922255,0.0,0.0,0.0
21363091594904,-0.9236295,8.839087,4.182654,0.0,0.0,0.0
21363093974018,-0.9284152,8.834301,4.2017965,0.0,0.0,0.0
21363096353133,-0.8997013,8.85823,4.2257247,0.0,0.0,0.0
21363098732195,-0.8853444,8.872586,4.211368,0.0,0.0,0.0
21363101111310,-0.8422736,8.891729,4.220939,0.0,0.0,0.0
21363103490424,-0.83748794,8.882157,4.220939,0.0,0.0,0.0
21363105869539,-0.81834537,8.896515,4.23051,0.0,0.0,0.0
21363108248654,-0.7848458,8.9108715,4.240082,0.0,0.0,0.0
21363110627768,-0.7800602,8.906086,4.2257247,0.0,0.0,0.0
21363113006831,-0.7704889,8.9348,4.2352962,0.0,0.0,0.0
21363115385945,-0.7704889,8.930014,4.23051,0.0,0.0,0.0
21363117765060,-0.79441714,8.9348,4.2352962,0.0,0.0,0.0
21363120144174,-0.79441714,8.944371,4.23051,0.0,0.0,0.0
21363122523289,-0.8135597,8.9348,4.220939,0.0,0.0,0.0
21363124902404,-0.8135597,8.949157,4.2352962,0.0,0.0,0.0
21363127281518,-0.81834537,8.944371,4.2257247,0.0,0.0,0.0
21363129660581,-0.8566305,8.925228,4.2352962,0.0,0.0,0.0
21363132039695,-0.8709874,8.9108715,4.2352962,0.0,0.0,0.0
21363134418810,-0.8805587,8.920443,4.2448673,0.0,0.0,0.0
21363136797924,-0.8709874,8.906086,4.240082,0.0,0.0,0.0
21363139177039,-0.83748794,8.906086,4.2592244,0.0,0.0,0.0
21363141556154,-0.8422736,8.896515,4.26401,0.0,0.0,0.0
21363143935268,-0.8327023,8.877372,4.2448673,0.0,0.0,0.0
21363146314383,-0.7848458,8.886943,4.254439,0.0,0.0,0.0
21363148693445,-0.7465607,8.877372,4.2161536,0.0,0.0,0.0
21363151072560,-0.7082755,8.853444,4.2161536,0.0,0.0,0.0
21363153451674,-0.6795616,8.872586,4.240082,0.0,0.0,0.0
21363155830789,-0.64606214,8.896515,4.249653,0.0,0.0,0.0
21363158209904,-0.6125626,8.915657,4.249653,0.0,0.0,0.0
21363160589018,-0.59342,8.9013,4.240082,0.0,0.0,0.0
21363162968133,-0.60777694,8.896515,4.240082,0.0,0.0,0.0
21363165347195,-0.5886344,8.9013,4.254439,0.0,0.0,0.0
21363167726310,-0.5982057,8.9013,4.2448673,0.0,0.0,0.0
21363170105424,-0.6269195,8.9108715,4.249653,0.0,0.0,0.0
21363172484539,-0.63170516,8.9108715,4.249653,0.0,0.0,0.0
21363174863654,-0.6795616,8.886943,4.2687955,0.0,0.0,0.0
21363177242768,-0.71306115,8.882157,4.278367,0.0,0.0,0.0
21363179621883,-0.7369894,8.877372,4.2927237,0.0,0.0,0.0
21363182000997,-0.7848458,8.886943,4.2975097,0.0,0.0,0.0
21363184380060,-0.8327023,8.891729,4.287938,0.0,0.0,0.0
21363186759174,-0.8662018,8.872586,4.2927237,0.0,0.0,0.0
21363189138289,-0.86141616,8.867801,4.3070807,0.0,0.0,0.0
21363191517404,-0.8853444,8.848659,4.302295,0.0,0.0,0.0
21363193896518,-0.8805587,8.848659,4.2687955,0.0,0.0,0.0
21363196275633,-0.8757731,8.85823,4.249653,0.0,0.0,0.0
21363198654747,-0.8757731,8.867801,4.254439,0.0,0.0,0.0
21363201033810,-0.85184485,8.853444,4.254439,0.0,0.0,0.0
21363203412924,-0.85184485,8.834301,4.249653,0.0,0.0,0.0
21363205792039,-0.8470592,8.82473,4.240082,0.0,0.0,0.0
21363208171154,-0.8039884,8.815159,4.2592244,0.0,0.0,0.0
21363210550268,-0.7896315,8.82473,4.254439,0.0,0.0,0.0
21363212929383,-0.76570326,8.819944,4.254439,0.0,0.0,0.0
21363215308497,-0.7513463,8.796016,4.2448673,0.0,0.0,0.0
21363217687560,-0.7513463,8.805588,4.2352962,0.0,0.0,0.0
21363220066674,-0.7178468,8.815159,4.2448673,0.0,0.0,0.0
21363222445789,-0.6891329,8.843872,4.2448673,0.0,0.0,0.0
21363224824904,-0.6652047,8.834301,4.254439,0.0,0.0,0.0
21363227204018,-0.65084773,8.853444,4.2448673,0.0,0.0,0.0
21363229583133,-0.65084773,8.872586,4.240082,0.0,0.0,0.0
21363231962247,-0.64606214,8.896515,4.2257247,0.0,0.0,0.0
21363234341310,-0.6652047,8.896515,4.249653,0.0,0.0,0.0
21363236720424,-0.67477596,8.891729,4.254439,0.0,0.0,0.0
21363239099539,-0.6556334,8.9108715,4.26401,0.0,0.0,0.0
21363241478654,-0.65084773,8.906086,4.2687955,0.0,0.0,0.0
21363243857768,-0.63170516,8.896515,4.249653,0.0,0.0,0.0
21363246236883,-0.61734825,8.891729,4.2352962,0.0,0.0,0.0
21363248615997,-0.6029913,8.891729,4.220939,0.0,0.0,0.0
