t_ns,ax,ay,az,accuracy
19030638016990,-0.16271193,8.968299,4.0151563,3
19030640393865,-0.15792629,8.973084,4.101298,3
19030642770740,-0.10049855,9.016156,4.168297,3
19030645152302,-0.06699903,8.963513,4.115655,3
19030647531469,-0.06699903,8.953942,3.9960139,3
19030649910688,-0.09092726,8.997013,3.9146578,3
19030652289854,-0.11006984,9.006584,3.8907297,3
19030654669073,-0.124426775,8.949157,3.9050865,3
19030657048292,-0.15314065,8.987442,3.991228,3
19030659427459,-0.17706887,9.001799,4.0438704,3
19030661806677,-0.19621146,8.977871,4.0438704,3
19030664185844,-0.22492532,8.973084,4.0007997,3
19030666565063,-0.25842485,8.997013,3.9290147,3
19030668944282,-0.31106696,8.997013,3.9098723,3
19030671323448,-0.30149564,8.9826565,3.900301,3
19030673702667,-0.32542387,9.016156,3.9481573,3
19030676081834,-0.33499518,9.001799,4.019942,3
19030678460479,-0.3684947,8.987442,4.063013,3
19030680840271,-0.3397808,8.9826565,4.048656,3
19030683219438,-0.33499518,9.006584,4.019942,3
19030685598657,-0.31585258,8.992228,3.9720855,3
19030687977823,-0.28235307,8.9826565,3.938586,3
19030690357042,-0.2536392,8.9826565,3.9625144,3
19030692736261,-0.23928227,8.968299,4.019942,3
19030695115427,-0.22013968,8.992228,4.0773697,3
19030697494646,-0.21535404,8.987442,4.106084,3
19030699873813,-0.19142582,8.958728,4.1204405,3
19030702253032,-0.19142582,8.949157,4.0773697,3
19030704632250,-0.16749759,8.977871,4.063013,3
19030707011417,-0.18185452,8.987442,4.058227,3
19030709390636,-0.17706887,8.987442,4.0677986,3
19030711769802,-0.17706887,8.987442,4.1347976,3
19030714149021,-0.19142582,9.006584,4.2017965,3
19030716528240,-0.23449662,9.020942,4.2257247,3
19030718907407,-0.22971097,8.997013,4.1778684,3
19030721286625,-0.22013968,9.020942,4.1108694,3
19030723665844,-0.22492532,9.006584,4.106084,3
19030726045011,-0.2536392,9.025727,4.106084,3
19030728424229,-0.22492532,9.025727,4.106084,3
19030730803396,-0.20578274,9.016156,4.1491547,3
19030733182615,-0.15314065,9.040084,4.1491547,3
19030735561834,-0.14356937,9.059227,4.106084,3
19030737941000,-0.13399807,9.044869,4.072584,3
19030740320219,-0.11485548,9.020942,4.048656,3
19030742699334,-0.12921242,9.016156,4.0295134,3
19030745078604,-0.18664017,9.030513,4.058227,3
19030747457823,-0.23928227,9.025727,4.0677986,3
19030749836990,-0.2727818,9.035298,4.0773697,3
19030752216209,-0.3397808,9.040084,4.0534415,3
19030754595427,-0.39720857,9.049655,4.0103707,3
19030756974594,-0.46899325,9.059227,3.991228,3
19030759353813,-0.4977071,9.078369,4.0103707,3
19030761732979,-0.4833502,9.068798,4.0103707,3
19030764112198,-0.45942193,9.073584,3.9960139,3
19030766491365,-0.44985065,9.044869,4.0103707,3
19030768870584,-0.40677986,9.035298,4.0103707,3
19030771249802,-0.3589234,9.049655,4.005585,3
19030773628969,-0.3397808,9.049655,4.005585,3
19030776008188,-0.3062813,9.01137,3.9960139,3
19030778387354,-0.29192436,8.987442,4.005585,3
19030780766573,-0.2632105,9.006584,4.019942,3
19030783145792,-0.2536392,9.006584,4.0438704,3
19030785524959,-0.24885355,8.9826565,4.0534415,3
19030787904177,-0.23449662,8.9826565,4.063013,3
19030790283344,-0.23449662,8.963513,4.0534415,3
19030792662563,-0.24885355,8.9826565,4.0534415,3
19030795041782,-0.2536392,8.997013,4.072584,3
19030797420948,-0.2727818,8.992228,4.091727,3
19030799800115,-0.29192436,8.997013,4.106084,3
19030802179386,-0.32542387,8.997013,4.0965123,3
19030804558552,-0.33499518,8.9826565,4.115655,3
19030806937771,-0.33499518,8.963513,4.091727,3
19030809316938,-0.36370903,8.963513,4.0869412,3
19030811696157,-0.3684947,8.944371,4.0677986,3
19030814075375,-0.3493521,8.973084,4.072584,3
19030816454542,-0.32063824,8.9826565,4.101298,3
19030818833761,-0.30149564,8.953942,4.101298,3
19030821212927,-0.2727818,8.953942,4.115655,3
19030823592146,-0.2440679,8.953942,4.101298,3
19030825971365,-0.2009971,8.944371,4.063013,3
19030828350532,-0.15792629,8.953942,4.0677986,3
19030830729750,-0.148355,8.9826565,4.0677986,3
19030833108917,-0.12921242,9.001799,4.072584,3
19030835488136,-0.124426775,9.001799,4.082155,3
19030837867354,-0.13878371,9.006584,4.072584,3
19030840246521,-0.19621146,9.001799,4.063013,3
19030842625740,-0.25842485,9.020942,4.0534415,3
19030845004907,-0.3062813,9.01137,4.048656,3
19030847384125,-0.3493521,9.025727,4.0534415,3
19030849763344,-0.41156548,9.035298,4.0677986,3
19030852142511,-0.4642076,9.01137,4.0773697,3
19030854521729,-0.47377887,9.006584,4.0869412,3
19030856900896,-0.49292147,9.006584,4.0773697,3
19030859280115,-0.51206404,9.001799,4.058227,3
19030861659334,-0.5024927,8.992228,4.058227,3
19030864038500,-0.4881358,8.997013,4.034299,3
19030866417719,-0.4546363,8.9826565,4.034299,3
19030868796886,-0.41156548,8.977871,4.0295134,3
19030871176104,-0.40677986,8.9826565,4.058227,3
19030873555323,-0.40677986,8.977871,4.063013,3
19030875934490,-0.39720857,8.987442,4.0677986,3
19030878313709,-0.38285163,8.987442,4.048656,3
19030880692875,-0.37328035,8.997013,4.0390844,3
19030883072094,-0.35413775,8.973084,4.034299,3
19030885451313,-0.38285163,8.9826565,4.0390844,3
19030887830479,-0.37328035,9.016156,4.0534415,3
19030890209698,-0.4019942,8.992228,4.0773697,3
19030892588865,-0.40677986,8.992228,4.0965123,3
19030894968084,-0.4211368,8.992228,4.0677986,3
19030897347250,-0.42592242,8.992228,4.058227,3
19030899726469,-0.39720857,9.001799,4.0438704,3
19030902105688,-0.39720857,9.001799,4.048656,3
19030904484854,-0.38285163,8.987442,4.058227,3
19030906864073,-0.4019942,9.001799,4.091727,3
19030909243292,-0.38763726,8.997013,4.091727,3
19030911622459,-0.38285163,9.016156,4.0965123,3
19030914001677,-0.37328035,9.001799,4.063013,3
19030916380844,-0.3589234,9.01137,4.0534415,3
19030918760063,-0.3589234,8.997013,4.0390844,3
19030921139282,-0.3493521,9.006584,4.0438704,3
19030923518448,-0.34456646,9.006584,4.0534415,3
19030925897667,-0.32063824,8.992228,4.063013,3
19030928276834,-0.29671,9.001799,4.0677986,3
19030930656052,-0.2632105,9.006584,4.0390844,3
19030933035271,-0.2536392,9.006584,4.0295134,3
19030935414438,-0.2632105,9.030513,4.0151563,3
19030937793657,-0.24885355,9.030513,4.0103707,3
19030940172823,-0.2536392,9.016156,3.9864426,3
19030942552042,-0.2632105,8.997013,4.019942,3
19030944931261,-0.26799613,9.001799,4.048656,3
19030947310427,-0.30149564,8.9826565,4.034299,3
19030949689646,-0.31585258,8.973084,4.019942,3
19030952068813,-0.33499518,9.001799,4.034299,3
19030954448032,-0.36370903,9.01137,4.0295134,3
19030956827250,-0.37328035,8.997013,4.0390844,3
19030959206417,-0.3924229,8.9826565,4.0438704,3
19030961585636,-0.43070808,8.968299,4.082155,3
19030963964802,-0.44506502,8.973084,4.0773697,3
19030966344021,-0.43070808,8.977871,4.0438704,3
19030968723240,-0.41156548,8.997013,4.0534415,3
19030971102407,-0.43070808,9.020942,4.058227,3
19030973481625,-0.40677986,9.006584,4.063013,3
19030975860792,-0.38285163,9.001799,4.063013,3
19030978240011,-0.3589234,9.01137,4.0534415,3
19030980619229,-0.33020952,9.025727,4.0390844,3
19030982998396,-0.29671,9.030513,4.0390844,3
19030985377615,-0.2727818,9.025727,4.0534415,3
19030987756782,-0.26799613,9.025727,4.048656,3
19030990136000,-0.2440679,9.040084,4.0438704,3
19030992515219,-0.25842485,9.044869,4.019942,3
19030994894386,-0.27756742,9.025727,4.019942,3
19030997273604,-0.27756742,9.040084,4.024728,3
19030999652771,-0.3062813,9.040084,4.019942,3
19031002031990,-0.33499518,9.064013,4.0295134,3
19031004411209,-0.35413775,9.064013,4.0438704,3
19031006790375,-0.38285163,9.064013,4.034299,3
19031009169594,-0.4211368,9.064013,4.034299,3
19031011548761,-0.4354937,9.0544405,4.005585,3
19031013927979,-0.44027936,9.0544405,3.991228,3
19031016307198,-0.4546363,9.068798,3.9960139,3
19031018686365,-0.4354937,9.078369,4.0007997,3
19031021065584,-0.41156548,9.064013,4.019942,3
19031023444750,-0.37806597,9.030513,4.048656,3
19031025823969,-0.3397808,9.035298,4.048656,3
19031028203188,-0.31585258,9.040084,4.0295134,3
19031030582354,-0.25842485,9.030513,4.019942,3
19031032961573,-0.2105684,9.020942,4.0007997,3
19031035340740,-0.18664017,9.006584,4.0103707,3
19031037719959,-0.14356937,9.006584,4.019942,3
19031040099125,-0.124426775,8.977871,4.0438704,3
19031042478344,-0.124426775,8.9826565,4.0390844,3
19031044857563,-0.148355,8.9826565,4.063013,3
19031047236729,-0.148355,9.006584,4.0390844,3
19031049615896,-0.18185452,9.01137,4.019942,3
19031051995115,-0.19621146,8.997013,4.019942,3
19031054374334,-0.20578274,8.987442,4.0390844,3
19031056753552,-0.22013968,8.9826565,4.0677986,3
19031059132719,-0.23449662,8.997013,4.072584,3
19031061511938,-0.22971097,8.997013,4.091727,3
19031063891157,-0.22971097,8.987442,4.091727,3
19031066270323,-0.23928227,8.997013,4.072584,3
19031068649542,-0.22971097,8.992228,4.058227,3
19031071028709,-0.2440679,9.020942,4.0869412,3
19031073407927,-0.25842485,8.997013,4.072584,3
19031075787146,-0.26799613,8.997013,4.0965123,3
19031078166313,-0.2632105,8.977871,4.0965123,3
19031080545532,-0.30149564,9.006584,4.1204405,3
19031082924698,-0.3493521,9.016156,4.091727,3
19031085303917,-0.38285163,9.001799,4.0773697,3
19031087683136,-0.4211368,8.992228,4.063013,3
19031090062302,-0.4546363,8.992228,4.048656,3
19031092441521,-0.4642076,8.992228,4.058227,3
19031094820688,-0.45942193,8.987442,4.063013,3
19031097199907,-0.41635114,8.963513,4.0677986,3
19031099579125,-0.3684947,8.958728,4.0390844,3
19031101958292,-0.3397808,8.968299,4.0295134,3
19031104337511,-0.29192436,8.977871,4.0295134,3
19031106716677,-0.24885355,8.977871,4.0151563,3
19031109095896,-0.22971097,8.992228,4.024728,3
19031111475063,-0.2009971,8.992228,4.072584,3
19031113854282,-0.22492532,8.9826565,4.0295134,3
19031116233500,-0.16271193,9.006584,4.019942,3
19031118612667,-0.13878371,9.020942,4.019942,3
19031120991886,-0.2009971,8.973084,4.024728,3
19031123371104,-0.2009971,8.977871,4.048656,3
19031125750271,-0.18664017,8.968299,4.0677986,3
19031128129490,-0.23928227,8.9826565,4.0534415,3
19031130508657,-0.2536392,8.958728,4.0534415,3
19031132887875,-0.26799613,8.973084,4.0295134,3
19031135267094,-0.25842485,8.987442,4.0295134,3
19031137646261,-0.2727818,8.977871,4.048656,3
19031140025479,-0.28235307,8.953942,4.058227,3
19031142404646,-0.28713873,8.958728,4.0965123,3
19031144783865,-0.25842485,8.968299,4.058227,3
19031147163084,-0.22971097,8.968299,4.063013,3
19031149542250,-0.20578274,8.968299,4.072584,3
19031151921469,-0.18664017,9.001799,4.072584,3
19031154300636,-0.18185452,9.01137,4.125226,3
19031156679854,-0.24885355,9.006584,4.130012,3
19031159059073,-0.27756742,9.01137,4.1491547,3
19031161438240,-0.32063824,9.01137,4.091727,3
19031163817459,-0.36370903,9.006584,4.0534415,3
19031166196625,-0.38763726,9.030513,4.034299,3
19031168575844,-0.4546363,9.016156,4.0438704,3
19031170955011,-0.49292147,9.01137,4.082155,3
19031173334229,-0.56470615,9.020942,4.106084,3
19031175713448,-0.6269195,9.016156,4.130012,3
19031178092615,-0.6939186,9.030513,4.125226,3
19031180471834,-0.74177504,9.025727,4.1108694,3
19031182851000,-0.80877405,9.030513,4.1347976,3
19031185230219,-0.9379865,9.08794,4.058227,3
19031187609438,-0.8805587,9.049655,4.024728,3
19031189988604,-0.83748794,9.059227,4.058227,3
19031192367823,-0.9092726,9.059227,4.048656,3
19031194746990,-0.86141616,9.059227,4.1204405,3
19031197126209,-0.76570326,9.030513,4.15394,3
19031199505427,-0.72741807,9.064013,4.139583,3
19031201884594,-0.6364908,9.059227,4.082155,3
19031204263813,-0.4833502,9.049655,4.072584,3
19031206642979,-0.3924229,9.01137,4.0390844,3
19031209022198,-0.30149564,9.030513,4.0295134,3
19031211401417,-0.19142582,9.025727,4.0869412,3
19031213780584,-0.15792629,8.9826565,4.1204405,3
19031216159802,-0.15314065,8.977871,4.1108694,3
19031218538969,-0.13878371,8.9826565,4.0869412,3
19031220918188,-0.14356937,8.949157,4.0295134,3
19031223297407,-0.23449662,8.944371,4.0007997,3
19031225676573,-0.32542387,8.944371,4.0103707,3
19031228055792,-0.3924229,8.915657,4.0534415,3
19031230434959,-0.5024927,8.930014,4.106084,3
19031232814177,-0.5982057,8.877372,4.1108694,3
19031235193396,-0.67477596,8.863015,4.091727,3
19031237572563,-0.72741807,8.863015,4.063013,3
19031239951782,-0.76570326,8.863015,4.063013,3
19031242330948,-0.76570326,8.891729,4.0534415,3
19031244710167,-0.7513463,8.863015,4.063013,3
19031247089386,-0.7322037,8.877372,4.0773697,3
19031249468552,-0.65084773,8.920443,4.101298,3
19031251847771,-0.5694918,8.925228,4.1108694,3
19031254226938,-0.4977071,8.963513,4.0773697,3
19031256606157,-0.40677986,9.01137,4.063013,3
19031258985375,-0.36370903,9.059227,4.091727,3
19031261364542,-0.32542387,9.092726,4.0773697,3
19031263743761,-0.29671,9.15494,4.0773697,3
19031266122927,-0.26799613,9.178867,4.072584,3
19031268502146,-0.30149564,9.174082,4.0534415,3
19031270881313,-0.37328035,9.15494,4.0295134,3
19031273260532,-0.4881358,9.15494,4.024728,3
19031275639750,-0.5886344,9.135797,4.0151563,3
19031278018917,-0.7178468,9.097511,4.034299,3
19031280398136,-0.8327023,9.073584,4.0390844,3
19031282777354,-0.9092726,9.040084,4.0677986,3
19031285156521,-1.0145568,9.016156,4.0390844,3
19031287535740,-1.134198,8.997013,4.0103707,3
19031289914907,-1.2107682,8.977871,4.005585,3
19031292294125,-1.2777673,8.963513,3.9864426,3
19031294673344,-1.3304094,8.930014,3.9720855,3
19031297052511,-1.3351951,8.925228,4.005585,3
19031299431729,-1.3304094,8.920443,3.9960139,3
19031301810896,-1.3495519,8.925228,3.9864426,3
19031304190115,-1.2921243,8.9348,3.9816568,3
19031306569282,-1.1724831,8.953942,3.9960139,3
19031308948500,-1.0671989,8.968299,3.9960139,3
19031311327719,-0.9619147,8.987442,3.991228,3
19031313706886,-0.8327023,8.997013,4.024728,3
19031316086104,-0.6795616,8.997013,4.0295134,3
19031318465271,-0.5312066,9.001799,4.0390844,3
19031320844490,-0.4546363,9.001799,4.024728,3
19031323223657,-0.3493521,8.992228,4.024728,3
19031325602875,-0.25842485,8.997013,4.0295134,3
19031327982094,-0.17228323,9.001799,4.0151563,3
19031330361261,-0.148355,9.016156,4.0438704,3
19031332740479,-0.148355,8.977871,4.0534415,3
19031335119698,-0.15314065,8.987442,4.082155,3
19031337498865,-0.19142582,9.006584,4.0869412,3
19031339878084,-0.23928227,9.030513,4.0869412,3
19031342257250,-0.29192436,9.025727,4.063013,3
19031344636469,-0.34456646,9.040084,4.048656,3
19031347015636,-0.41156548,9.035298,4.0390844,3
19031349394854,-0.45942193,9.006584,4.0773697,3
19031351774073,-0.47856453,8.987442,4.091727,3
19031354153240,-0.4977071,8.958728,4.115655,3
19031356532459,-0.4881358,8.949157,4.125226,3
19031358911625,-0.4642076,8.949157,4.1108694,3
19031361290844,-0.41156548,8.949157,4.072584,3
19031363670063,-0.3589234,8.977871,4.0390844,3
19031366049229,-0.2727818,8.973084,4.024728,3
19031368428448,-0.2105684,8.973084,4.024728,3
19031370807615,-0.15792629,8.977871,4.0390844,3
19031373186834,-0.1052842,8.963513,4.058227,3
19031375566052,-0.05742774,8.987442,4.0677986,3
19031377945219,-0.019142581,9.001799,4.0773697,3
19031380324438,-0.014356935,9.001799,4.0677986,3
19031382703604,-0.014356935,9.016156,4.034299,3
19031385082823,-0.0047856453,9.059227,4.0295134,3
19031387462042,-0.023928227,9.083155,4.0438704,3
19031389841209,-0.07178468,9.083155,4.0677986,3
19031392220427,-0.09571291,9.097511,4.082155,3
19031394599594,-0.11485548,9.0544405,4.063013,3
19031396978813,-0.13399807,9.044869,4.058227,3
19031399357927,-0.15792629,9.01137,4.058227,3
19031401737198,-0.2009971,9.01137,4.048656,3
19031404116417,-0.22971097,8.987442,4.0151563,3
19031406495584,-0.21535404,8.9826565,4.0151563,3
19031408874802,-0.16749759,8.963513,4.005585,3
19031411253969,-0.12921242,8.949157,4.019942,3
19031413633188,-0.10049855,8.930014,4.019942,3
19031416012407,-0.02871387,8.939586,4.0007997,3
19031418391573,0.033499517,8.925228,3.9960139,3
19031420770792,0.1052842,8.953942,3.9673,3
19031423149959,0.15314065,8.958728,3.9673,3
19031425529177,0.17706887,8.939586,3.991228,3
19031427908396,0.2105684,8.963513,4.0007997,3
19031430287563,0.2536392,8.973084,3.9816568,3
19031432666782,0.2632105,8.973084,3.9433718,3
19031435045948,0.2440679,8.953942,3.938586,3
19031437425167,0.22013968,8.944371,3.9673,3
19031439804386,0.2009971,8.939586,4.0438704,3
19031442183552,0.12921242,8.925228,4.101298,3
19031444562771,0.086141616,8.930014,4.1204405,3
19031446941938,0.047856454,8.973084,4.0773697,3
19031449321157,-0.019142581,9.01137,4.0390844,3
19031451700375,-0.062213387,9.020942,4.005585,3
19031454079490,-0.12921242,9.035298,4.0007997,3
19031456458761,-0.15314065,9.001799,4.0390844,3
19031458837927,-0.19621146,9.001799,4.130012,3
19031461217146,-0.21535404,8.963513,4.197011,3
19031463596313,-0.22971097,8.968299,4.23051,3
19031465975532,-0.26799613,8.925228,4.206582,3
19031468354750,-0.28713873,8.9348,4.15394,3
19031470733917,-0.31106696,8.939586,4.1204405,3
19031473113136,-0.3493521,8.9108715,4.1204405,3
19031475492302,-0.34456646,8.920443,4.1347976,3
19031477871521,-0.34456646,8.906086,4.15394,3
19031480250740,-0.34456646,8.9348,4.1587257,3
19031482629907,-0.36370903,8.953942,4.115655,3
19031485009125,-0.36370903,8.992228,4.082155,3
19031487388292,-0.37806597,8.977871,4.019942,3
19031489767511,-0.4211368,8.992228,4.034299,3
19031492146677,-0.43070808,8.997013,4.0677986,3
19031494525896,-0.4833502,8.977871,4.106084,3
19031496905115,-0.52163535,8.949157,4.130012,3
19031499284282,-0.55513483,8.973084,4.1204405,3
19031501663500,-0.56470615,9.006584,4.091727,3
19031504042667,-0.55513483,9.016156,4.0438704,3
19031506421886,-0.5599205,9.020942,4.0295134,3
19031508801104,-0.53599226,9.025727,4.0295134,3
19031511180271,-0.5072784,9.0544405,4.0295134,3
19031513559490,-0.47377887,9.049655,4.034299,3
19031515938657,-0.47856453,9.0544405,4.0295134,3
19031518317875,-0.46899325,9.059227,4.024728,3
19031520697094,-0.44506502,9.064013,4.024728,3
19031523076261,-0.43070808,9.068798,4.024728,3
19031525455479,-0.40677986,9.044869,4.0390844,3
19031527834646,-0.39720857,9.0544405,4.048656,3
19031530213865,-0.37806597,9.044869,4.058227,3
19031532593084,-0.38763726,9.049655,4.072584,3
19031534972250,-0.38763726,9.049655,4.0773697,3
19031537351469,-0.41635114,9.0544405,4.082155,3
19031539730636,-0.46899325,9.049655,4.101298,3
19031542109854,-0.46899325,9.049655,4.106084,3
19031544489073,-0.47377887,9.030513,4.125226,3
19031546868240,-0.5312066,9.016156,4.1443686,3
19031549247459,-0.57906306,9.001799,4.1443686,3
19031551626625,-0.5886344,9.025727,4.15394,3
19031554005844,-0.57427746,9.020942,4.1491547,3
19031556385011,-0.57427746,8.992228,4.1491547,3
19031558764229,-0.57427746,8.977871,4.130012,3
19031561143448,-0.6221339,8.997013,4.130012,3
19031563522615,-0.6029913,8.997013,4.1108694,3
19031565901834,-0.5694918,8.997013,4.1108694,3
19031568281000,-0.55034924,8.987442,4.130012,3
19031570660219,-0.5455636,8.958728,4.115655,3
19031573039386,-0.53599226,8.987442,4.101298,3
19031575418604,-0.526421,8.953942,4.082155,3
19031577797823,-0.526421,8.963513,4.0869412,3
19031580176990,-0.55034924,8.992228,4.0869412,3
19031582556209,-0.5599205,9.020942,4.063013,3
19031584935427,-0.56470615,9.020942,4.058227,3
19031587314594,-0.59342,9.025727,4.0677986,3
19031589693813,-0.6221339,9.020942,4.0677986,3
19031592072979,-0.63170516,9.044869,4.034299,3
19031594452198,-0.64606214,9.064013,4.0151563,3
19031596831365,-0.65084773,9.068798,3.991228,3
19031599210584,-0.66999036,9.08794,3.9960139,3
19031601589802,-0.6891329,9.102298,3.9960139,3
19031603968969,-0.6939186,9.107083,4.0103707,3
19031606348188,-0.70348984,9.073584,4.034299,3
19031608727354,-0.7082755,9.0544405,4.0677986,3
19031611106573,-0.6795616,9.064013,4.048656,3
19031613485792,-0.6843473,9.044869,4.0534415,3
19031615864959,-0.66999036,9.049655,4.0390844,3
19031618244177,-0.6221339,9.040084,4.005585,3
19031620623344,-0.6125626,9.030513,4.0103707,3
19031623002563,-0.5599205,9.01137,4.0390844,3
19031625381782,-0.52163535,8.992228,4.0773697,3
19031627760948,-0.52163535,8.968299,4.0773697,3
19031630140167,-0.5024927,8.9348,4.0965123,3
19031632519334,-0.47856453,8.939586,4.091727,3
19031634898552,-0.4977071,8.953942,4.0677986,3
19031637277719,-0.51206404,8.949157,4.0677986,3
19031639656938,-0.5455636,8.925228,4.082155,3
19031642036157,-0.55513483,8.949157,4.0773697,3
19031644415323,-0.57906306,8.958728,4.091727,3
19031646794542,-0.6221339,8.953942,4.106084,3
19031649173657,-0.66041905,8.963513,4.125226,3
19031651552927,-0.6795616,8.987442,4.0773697,3
19031653932146,-0.7082755,8.992228,4.0438704,3
19031656311313,-0.72741807,9.006584,4.0390844,3
19031658690532,-0.72741807,9.006584,4.0390844,3
19031661069698,-0.72263247,9.001799,4.0438704,3
19031663448865,-0.7369894,9.020942,4.034299,3
19031665828084,-0.74177504,9.01137,4.0103707,3
19031668207302,-0.7178468,9.006584,4.0007997,3
19031670586521,-0.6843473,9.001799,3.991228,3
19031672965688,-0.65084773,9.001799,4.0007997,3
19031675344907,-0.59342,8.992228,4.0151563,3
19031677724073,-0.5599205,9.006584,4.0295134,3
19031680103292,-0.5168497,9.006584,4.005585,3
19031682482511,-0.5024927,9.006584,3.991228,3
19031684861677,-0.4642076,8.973084,3.991228,3
19031687240896,-0.44985065,8.9826565,4.005585,3
19031689620063,-0.40677986,8.992228,4.034299,3
19031691999282,-0.3684947,8.9826565,4.019942,3
19031694378448,-0.36370903,8.992228,4.024728,3
19031696757667,-0.3589234,8.992228,4.0151563,3
19031699136886,-0.36370903,8.977871,4.0103707,3
19031701516052,-0.41156548,8.992228,3.9864426,3
19031703895271,-0.44027936,8.997013,3.9577286,3
19031706274438,-0.42592242,9.006584,3.9481573,3
19031708653657,-0.4642076,9.006584,3.9625144,3
19031711032875,-0.46899325,8.977871,3.9673,3
19031713412042,-0.5168497,8.987442,3.9673,3
19031715791261,-0.5407779,8.987442,4.0007997,3
19031718170427,-0.5407779,8.987442,4.024728,3
19031720549646,-0.5407779,9.006584,4.005585,3
19031722928865,-0.56470615,9.01137,4.024728,3
19031725308032,-0.55513483,9.035298,4.0103707,3
19031727687250,-0.5312066,9.049655,3.9960139,3
19031730066417,-0.5024927,9.064013,4.005585,3
19031732445636,-0.526421,9.049655,4.0295134,3
19031734824802,-0.51206404,9.035298,4.0390844,3
19031737204021,-0.5024927,9.030513,4.0534415,3
19031739583240,-0.4977071,9.001799,4.072584,3
19031741962407,-0.4881358,8.997013,4.0869412,3
19031744341625,-0.5168497,9.01137,4.0965123,3
19031746720792,-0.51206404,8.9826565,4.0965123,3
19031749100011,-0.5072784,8.973084,4.125226,3
19031751479177,-0.49292147,8.973084,4.1204405,3
19031753858396,-0.47856453,8.977871,4.106084,3
19031756237615,-0.4642076,8.987442,4.0965123,3
19031758616782,-0.4546363,8.968299,4.072584,3
19031760996000,-0.45942193,8.968299,4.101298,3
19031763375115,-0.44027936,8.968299,4.1108694,3
19031765754386,-0.41635114,8.944371,4.1108694,3
19031768133604,-0.38763726,8.939586,4.1204405,3
19031770512771,-0.32542387,8.9348,4.101298,3
19031772891990,-0.3062813,8.944371,4.082155,3
19031775271157,-0.27756742,8.953942,4.063013,3
19031777650375,-0.2440679,8.958728,4.048656,3
19031780029594,-0.2009971,8.973084,4.048656,3
19031782408761,-0.17228323,8.977871,4.034299,3
19031784787979,-0.16271193,8.9826565,4.0151563,3
19031787167146,-0.15792629,8.987442,3.991228,3
19031789546365,-0.16749759,8.9826565,3.991228,3
19031791925584,-0.17706887,8.973084,3.9864426,3
19031794304750,-0.19621146,8.953942,3.9720855,3
19031796683969,-0.22971097,8.891729,3.9338005,3
19031799063136,-0.2536392,8.82473,3.8620157,3
19031801442354,-0.30149564,8.848659,3.8093736,3
19031803821521,-0.32542387,8.958728,3.7615173,3
19031806200740,-0.3684947,9.044869,3.7136607,3
19031808579959,-0.39720857,9.107083,3.7615173,3
19031810959125,-0.3924229,9.097511,3.8572302,3
19031813338344,-0.41635114,9.040084,3.900301,3
19031815717511,-0.46899325,8.882157,3.8572302,3
19031818096729,-0.46899325,8.729017,3.7136607,3
19031820475896,-0.44027936,8.968299,3.507878,3
19031822855115,-0.5407779,9.623933,3.5796626,3
19031825234334,-0.5886344,9.700503,3.7328033,3
19031827613500,-0.59342,9.2793665,4.0534415,3
19031829992719,-0.4546363,9.19801,4.388437,3
19031832371886,-0.5312066,9.178867,4.345366,3
19031834751104,-0.5072784,8.915657,4.0534415,3
19031837130323,-0.3924229,8.853444,3.7998023,3
19031839509490,-0.43070808,9.135797,3.7423747,3
19031841888709,-0.5455636,9.092726,3.8668015,3
19031844267875,-0.5599205,8.958728,4.273581,3
19031846647094,-0.56470615,8.973084,4.651647,3
19031849026261,-0.6795616,8.906086,4.6803613,3
19031851405479,-0.6939186,8.748159,4.398008,3
19031853784698,-0.6556334,8.85823,4.0103707,3
19031856163865,-0.8135597,9.040084,3.8524444,3
19031858543084,-0.8709874,8.930014,4.063013,3
19031860922250,-0.89013004,8.82473,4.5655055,3
19031863301469,-0.9619147,8.9013,5.029713,3
19031865680636,-1.0145568,8.882157,5.206782,3
19031868059854,-0.9619147,8.819944,5.0344987,3
19031870439073,-0.91405827,8.906086,4.627719,3
19031872818240,-0.8566305,9.049655,4.249653,3
19031875197459,-0.7465607,9.078369,4.125226,3
19031877576625,-0.66041905,9.078369,4.3262234,3
19031879955844,-0.5982057,9.064013,4.599005,3
19031882335063,-0.44506502,9.040084,4.7808595,3
19031884714229,-0.30149564,8.9826565,4.6707897,3
19031887093448,-0.22013968,9.049655,4.3357944,3
19031889472615,-0.11485548,9.064013,3.938586,3
19031891851834,-0.02871387,9.001799,3.7423747,3
19031894231000,0.019142581,8.977871,3.790231,3
19031896610219,0.0047856453,9.001799,4.0534415,3
19031898989438,0.023928227,8.968299,4.2975097,3
19031901368604,0.009571291,8.9826565,4.2448673,3
19031903747823,-0.033499517,9.025727,3.9433718,3
19031906126990,-0.02871387,9.040084,3.5413775,3
19031908506209,-0.062213387,9.020942,3.249453,3
19031910885427,-0.11964113,9.040084,3.2829528,3
19031913264594,-0.14356937,9.030513,3.5270207,3
19031915643813,-0.22013968,9.006584,3.8093736,3
19031918022979,-0.23928227,8.958728,3.8763726,3
19031920402198,-0.2440679,8.958728,3.6897326,3
19031922781417,-0.2440679,8.968299,3.4169507,3
19031925160584,-0.25842485,8.968299,3.3020952,3
19031927539802,-0.25842485,8.920443,3.397808,3
19031929918969,-0.22971097,8.848659,3.6897326,3
19031932298188,-0.25842485,8.786445,3.9720855,3
19031934677354,-0.28235307,8.7577305,4.1108694,3
19031937056573,-0.33020952,8.7673025,4.0295134,3
19031939435792,-0.3684947,8.805588,3.8093736,3
19031941814959,-0.4019942,8.85823,3.574877,3
19031944194177,-0.49292147,8.953942,3.4887354,3
19031946573344,-0.5312066,8.992228,3.6466618,3
19031948952563,-0.55034924,9.001799,3.9577286,3
19031951331729,-0.5982057,9.01137,4.2161536,3
19031953710948,-0.6029913,9.044869,4.3118663,3
19031956090167,-0.57427746,9.097511,4.240082,3
19031958469334,-0.55034924,9.116654,4.125226,3
19031960848552,-0.4546363,9.145369,4.082155,3
19031963227719,-0.37328035,9.092726,4.1491547,3
19031965606938,-0.29671,9.049655,4.3836513,3
19031967986104,-0.20578274,9.01137,4.584648,3
19031970365323,-0.11964113,8.973084,4.6085763,3
19031972744542,-0.009571291,8.9348,4.4841495,3
19031975123709,0.0526421,8.944371,4.220939,3
19031977502927,0.07178468,8.944371,4.058227,3
19031979882094,0.062213387,8.925228,4.048656,3
19031982261313,0.014356935,8.872586,4.168297,3
19031984640532,-0.09571291,8.815159,4.2927237,3
19031987019698,-0.2536392,8.810373,4.3645086,3
19031989398917,-0.37806597,8.819944,4.321438,3
19031991778084,-0.5312066,8.82473,4.1778684,3
19031994157302,-0.6843473,8.85823,4.101298,3
19031996536469,-0.8135597,8.877372,4.106084,3
19031998915688,-0.91884387,8.896515,4.23051,3
19032001294907,-1.0049855,8.930014,4.3357944,3
19032003674021,-1.038485,8.944371,4.4075794,3
19032006053292,-1.0241281,8.968299,4.402794,3
19032008432459,-0.971486,8.992228,4.316652,3
19032010811677,-0.89013004,9.059227,4.2352962,3
19032013190844,-0.7800602,9.064013,4.1778684,3
19032015570063,-0.6556334,9.068798,4.1635113,3
19032017949282,-0.55034924,9.064013,4.206582,3
19032020328396,-0.4211368,9.025727,4.2687955,3
19032022707667,-0.28235307,8.958728,4.2831526,3
19032025086834,-0.16271193,8.906086,4.182654,3
19032027466052,-0.09092726,8.958728,4.106084,3
19032029845271,-0.038285162,8.9108715,3.9625144,3
19032032224438,-0.047856454,8.925228,3.8811584,3
19032034603657,-0.09092726,8.992228,3.9194436,3
19032036982823,-0.09571291,8.939586,3.9577286,3
19032039362042,-0.2009971,8.997013,4.0103707,3
19032041741209,-0.29192436,9.08794,3.9864426,3
19032044120427,-0.3684947,9.140582,3.8763726,3
19032046499646,-0.5072784,9.183653,3.751946,3
19032048878813,-0.63170516,9.250652,3.7184465,3
19032051258032,-0.71306115,9.260223,3.7998023,3
19032053637198,-0.7800602,9.245867,3.952943,3
19032056016417,-0.8662018,9.212367,4.0438704,3
19032058395584,-0.8422736,9.217153,4.072584,3
19032060774802,-0.80877405,9.188439,3.991228,3
19032063154021,-0.7704889,9.164511,3.8907297,3
19032065533188,-0.6795616,9.140582,3.8285162,3
19032067912407,-0.57906306,9.08794,3.8237305,3
19032070291573,-0.47377887,8.9826565,3.9290147,3
19032072670792,-0.4019942,8.930014,4.0773697,3
19032075049959,-0.33020952,8.891729,4.130012,3
19032077429177,-0.26799613,8.886943,4.0773697,3
19032079808396,-0.23449662,8.9013,3.9960139,3
19032082187563,-0.2009971,8.920443,3.9816568,3
19032084566782,-0.2105684,8.915657,3.9864426,3
19032086945948,-0.2632105,8.944371,4.048656,3
19032089325167,-0.27756742,8.949157,4.139583,3
19032091704386,-0.28713873,8.977871,4.211368,3
19032094083552,-0.3397808,9.040084,4.220939,3
19032096462771,-0.3589234,9.078369,4.1778684,3
19032098841938,-0.33499518,9.092726,4.1443686,3
19032101221157,-0.3493521,9.102298,4.125226,3
19032103600323,-0.28713873,9.150154,4.15394,3
19032105979542,-0.24885355,9.145369,4.182654,3
19032108358761,-0.2105684,9.140582,4.206582,3
19032110737927,-0.15792629,9.135797,4.1874394,3
19032113117146,-0.09571291,9.135797,4.1587257,3
19032115496313,-0.0526421,9.08794,4.125226,3
19032117875532,-0.038285162,9.059227,4.139583,3
19032120254698,0.009571291,9.035298,4.1491547,3
19032122633917,0.02871387,8.968299,4.139583,3
19032125013136,0.009571291,8.953942,4.2161536,3
19032127392302,0.009571291,8.930014,4.3645086,3
19032129771521,-0.02871387,8.930014,4.45065,3
19032132150688,-0.086141616,8.949157,4.316652,3
19032134529907,-0.17228323,9.040084,4.1204405,3
19032136909073,-0.2009971,9.016156,3.8955152,3
19032139288292,-0.28713873,9.006584,3.8285162,3
19032141667511,-0.35413775,9.020942,3.938586,3
19032144046677,-0.4019942,9.01137,4.139583,3
19032146425896,-0.42592242,9.016156,4.2687955,3
19032148805063,-0.47377887,9.08794,4.1922255,3
19032151184282,-0.4881358,9.164511,4.0103707,3
19032153563448,-0.4642076,9.159725,3.8237305,3
19032155942667,-0.42592242,9.150154,3.7567315,3
19032158321886,-0.3924229,9.150154,3.8476589,3
19032160701052,-0.28713873,9.107083,4.063013,3
19032163080271,-0.2632105,9.059227,4.240082,3
19032165459438,-0.21535404,9.0544405,4.2448673,3
19032167838604,-0.18185452,9.083155,4.0677986,3
19032170217823,-0.17228323,9.073584,3.8141594,3
19032172597042,-0.19621146,9.073584,3.694518,3
19032174976261,-0.19621146,9.016156,3.790231,3
19032177355427,-0.22492532,8.968299,4.0295134,3
19032179734646,-0.25842485,8.9348,4.2161536,3
19032182113813,-0.29192436,8.9348,4.254439,3
19032184493032,-0.33499518,8.977871,4.1443686,3
19032186872250,-0.33499518,9.01137,3.9864426,3
19032189251365,-0.3684947,9.025727,3.9098723,3
19032191630636,-0.36370903,9.040084,3.9433718,3
19032194009802,-0.3684947,9.0544405,4.072584,3
19032196389021,-0.3397808,9.030513,4.2448673,3
19032198768188,-0.29671,9.025727,4.321438,3
19032201147407,-0.2727818,9.049655,4.2592244,3
19032203526573,-0.2440679,9.097511,4.072584,3
19032205905792,-0.19621146,9.092726,3.9290147,3
19032208285011,-0.18185452,9.111869,3.9098723,3
19032210664177,-0.15792629,9.040084,3.9864426,3
19032213043396,-0.13878371,9.040084,4.0965123,3
19032215422563,-0.11964113,9.006584,4.1635113,3
19032217801782,-0.12921242,9.001799,4.125226,3
19032220181000,-0.14356937,9.006584,4.0103707,3
19032222560167,-0.15792629,8.968299,3.900301,3
19032224939386,-0.20578274,8.930014,3.8620157,3
19032227318552,-0.27756742,8.925228,3.938586,3
19032229697771,-0.27756742,8.896515,4.0390844,3
19032232076938,-0.30149564,8.872586,4.0965123,3
19032234456157,-0.34456646,8.872586,4.024728,3
19032236835375,-0.35413775,8.867801,3.885944,3
19032239214542,-0.31585258,8.85823,3.7423747,3
19032241593761,-0.32063824,8.867801,3.6849468,3
19032243972927,-0.28235307,8.863015,3.737589,3
19032246352146,-0.22013968,8.853444,3.842873,3
19032248731313,-0.13878371,8.853444,3.9242291,3
19032251110532,-0.076570325,8.906086,3.885944,3
19032253489750,0.019142581,8.953942,3.7998023,3
19032255868917,0.09571291,8.9826565,3.7328033,3
19032258248136,0.19142582,8.992228,3.723232,3
19032260627302,0.2536392,9.064013,3.7710886,3
19032263006521,0.3397808,9.092726,3.8237305,3
19032265385688,0.4019942,9.083155,3.8333018,3
19032267764907,0.44985065,9.068798,3.751946,3
19032270144125,0.4546363,9.0544405,3.7423747,3
19032272523292,0.44985065,9.01137,3.790231,3
19032274902511,0.44506502,9.01137,3.871587,3
19032277281677,0.42592242,9.016156,3.9673,3
19032279660896,0.38285163,8.977871,3.9625144,3
19032282040063,0.3397808,8.953942,3.8955152,3
19032284419282,0.2632105,8.977871,3.8141594,3
19032286798500,0.25842485,9.020942,3.7950168,3
19032289177667,0.19142582,9.040084,3.7806597,3
19032291556886,0.13399807,9.016156,3.7615173,3
19032293936052,0.076570325,9.040084,3.7998023,3
19032296315271,0.023928227,9.111869,3.8668015,3
19032298694438,-0.043070808,9.178867,4.0007997,3
19032301073657,-0.1052842,9.150154,4.048656,3
19032303452875,-0.18664017,9.0544405,4.0677986,3
19032305832042,-0.148355,9.049655,4.091727,3
19032308211261,-0.15314065,9.131011,3.9720855,3
19032310590427,-0.2536392,9.15494,3.952943,3
19032312969646,-0.18664017,9.01137,3.9577286,3
19032315348813,-0.14356937,8.9348,3.9290147,3
19032317728032,-0.16749759,8.973084,3.9338005,3
19032320107198,-0.19142582,8.925228,3.9577286,3
19032322486417,-0.124426775,8.85823,4.072584,3
19032324865636,-0.08135597,8.920443,4.1922255,3
19032327244802,-0.038285162,8.915657,4.101298,3
19032329624021,0.033499517,8.863015,4.0965123,3
19032332003188,0.18664017,8.891729,4.0295134,3
19032334382407,0.25842485,9.083155,4.0007997,3
19032336761625,0.33020952,9.19801,4.1587257,3
19032339140792,0.4546363,9.164511,4.302295,3
19032341520011,0.44027936,9.322437,4.2831526,3
19032343899177,0.3684947,9.489935,4.15394,3
19032346278396,0.29671,9.389436,4.0677986,3
19032348657563,0.13399807,9.250652,4.1587257,3
19032351036782,-0.11006984,9.236296,4.412365,3
19032353416000,-0.27756742,9.183653,4.694718,3
19032355795167,-0.33020952,8.987442,4.74736,3
19032358174386,-0.4354937,8.930014,4.6564326,3
19032360553500,-0.44985065,8.925228,4.426722,3
19032362932771,-0.31585258,8.85823,4.211368,3
19032365311938,-0.21535404,8.819944,4.0390844,3
19032367691157,-0.09571291,8.834301,3.8955152,3
19032370070375,-0.0047856453,8.834301,3.7758741,3
19032372449542,-0.009571291,8.71466,3.5988052,3
19032374828761,-0.13399807,8.772088,3.4025939,3
19032377207927,-0.25842485,8.953942,3.2733815,3
19032379587146,-0.38763726,8.939586,3.1154552,3
19032381966313,-0.53599226,8.963513,3.0580273,3
19032384345532,-0.74177504,9.111869,3.1633115,3
19032386724698,-0.85184485,9.178867,3.2877383,3
19032389103917,-0.8709874,9.226724,3.3786657,3
19032391483136,-0.9236295,9.370294,3.493521,3
19032393862302,-0.91884387,9.475577,3.5509489,3
19032396241521,-0.7465607,9.413364,3.522235,3
19032398620688,-0.5407779,9.432507,3.6370904,3
19032400999907,-0.39720857,9.389436,3.8763726,3
19032403379125,-0.31106696,9.107083,4.1443686,3
19032405758292,-0.23449662,8.815159,4.4985065,3
19032408137511,-0.18185452,8.700303,4.8622155,3
19032410516677,-0.17228323,8.628518,5.005785,3
19032412895896,-0.18664017,8.705089,4.843073,3
19032415275063,-0.2009971,8.963513,4.3645086,3
19032417654282,-0.21535404,8.977871,3.641876,3
19032420033500,-0.38763726,8.891729,3.3020952,3
19032422412667,-0.3924229,8.920443,3.6227336,3
19032424791886,-0.3493521,8.9013,4.331009,3
19032427171052,-0.35413775,8.920443,4.8239303,3
19032429550271,-0.3684947,8.810373,4.7138605,3
19032431929438,-0.22971097,8.872586,4.354937,3
19032434308657,-0.12921242,8.882157,4.0007997,3
19032436687823,0.009571291,8.863015,3.900301,3
19032439067042,0.09092726,8.724232,4.0007997,3
19032441446209,0.23449662,8.729017,4.3405805,3
19032443825427,0.32063824,8.618947,4.613362,3
19032446204646,0.43070808,8.676374,4.6803613,3
19032448583813,0.55034924,8.709874,4.3836513,3
19032450963032,0.71306115,8.877372,3.9768713,3
19032453342198,0.8662018,8.896515,3.641876,3
19032455721417,1.0576276,8.867801,3.67059,3
19032458100636,1.2729816,8.85823,3.8907297,3
19032460479802,1.416551,8.925228,4.254439,3
19032462859021,1.5409778,8.882157,4.369294,3
19032465238188,1.5840486,8.963513,4.249653,3
19032467617407,1.564906,9.116654,3.9577286,3
19032469996573,1.4835501,9.145369,3.6658044,3
19032472375792,1.2634103,9.174082,3.6801612,3
19032474755011,0.9954142,9.140582,3.9146578,3
19032477134177,0.66041905,9.169296,4.2687955,3
19032479513396,0.31106696,9.174082,4.45065,3
19032481892563,-0.009571291,9.2075815,4.3501515,3
19032484271782,-0.32063824,9.274581,4.0438704,3
19032486650948,-0.4642076,9.312865,3.5988052,3
19032489030167,-0.66041905,9.446864,3.345166,3
19032491409386,-0.7609176,9.427721,3.3260236,3
19032493788500,-0.7178468,9.413364,3.6610186,3
19032496167771,-0.7082755,9.327223,3.9098723,3
19032498546938,-0.6029913,9.38465,4.091727,3
19032500926157,-0.4211368,9.274581,3.9720855,3
19032503305323,-0.25842485,9.274581,3.751946,3
19032505684542,-0.17228323,9.346365,3.6753755,3
19032508063709,-0.014356935,9.298509,3.7567315,3
19032510442927,0.0,9.12144,3.9338005,3
19032512822146,0.05742774,9.111869,4.1922255,3
19032515201313,0.05742774,9.078369,4.26401,3
19032517580532,0.05742774,9.016156,4.101298,3
19032519959698,0.08135597,9.020942,3.818945,3
19032522338917,0.12921242,9.068798,3.5988052,3
19032524718084,0.148355,9.030513,3.546163,3
19032527097302,0.124426775,9.016156,3.7136607,3
19032529476521,0.062213387,9.025727,3.8907297,3
19032531855688,-0.11006984,9.0544405,4.072584,3
19032534234907,-0.26799613,9.135797,4.173083,3
19032536614021,-0.47377887,9.183653,4.0534415,3
19032538993292,-0.70348984,9.312865,3.900301,3
19032541372459,-0.89013004,9.3511505,3.8285162,3
19032543751677,-1.0959128,9.375079,3.9864426,3
19032546130896,-1.3016955,9.332008,4.197011,3
19032548510063,-1.416551,9.284152,4.421936,3
19032550889282,-1.4452649,9.178867,4.546363,3
19032553268448,-1.4739788,9.078369,4.546363,3
19032555647667,-1.4069797,9.078369,4.436293,3
19032558026834,-1.3112668,9.059227,4.249653,3
19032560406052,-1.2203395,9.006584,4.1635113,3
19032562785219,-1.1437693,8.915657,4.182654,3
19032565164438,-0.9810573,8.834301,4.3740797,3
19032567543657,-0.82313097,8.685946,4.570291,3
19032569922823,-0.66999036,8.652447,4.7952166,3
19032572302042,-0.4546363,8.618947,4.8191447,3
19032574681209,-0.33020952,8.56152,4.733003,3
19032577060427,-0.15314065,8.523234,4.6229334,3
19032579439646,-0.0526421,8.504091,4.666004,3
19032581818813,-0.023928227,8.408379,4.8765726,3
19032584198032,-0.033499517,8.331808,5.1014977,3
19032586577198,-0.13878371,8.413164,5.316852,3
19032588956417,-0.27756742,8.446664,5.4460645,3
19032591335584,-0.46899325,8.374879,5.1206403,3
19032593714802,-0.7369894,8.618947,5.0536413,3
19032596093969,-0.6269195,8.705089,4.9770713,3
19032598473188,-0.82313097,8.748159,4.8526444,3
19032600852407,-0.6412765,8.925228,4.651647,3
19032603231573,-0.31585258,9.193225,4.479364,3
19032605610792,-0.043070808,9.241081,4.082155,3
19032607989907,0.11006984,9.293723,3.751946,3
19032610369177,0.36370903,9.394221,3.6514473,3
19032612748344,0.55034924,9.394221,3.7615173,3
19032615127563,0.4642076,9.212367,3.8811584,3
19032617506729,0.46899325,9.15494,4.005585,3
19032619885948,0.44027936,9.19801,4.063013,3
19032622265167,0.3493521,9.12144,3.8907297,3
19032624644334,0.2632105,9.08794,3.7567315,3
19032627023500,0.34456646,9.12144,3.694518,3
19032629402719,0.3589234,9.092726,3.694518,3
19032631781938,0.41156548,9.025727,3.7280176,3
19032634161052,0.43070808,9.006584,3.7950168,3
19032636540323,0.5072784,8.977871,3.8285162,3
19032638919542,0.4833502,8.896515,3.7615173,3
19032641298709,0.4546363,8.853444,3.6753755,3
19032643677927,0.35413775,8.877372,3.7280176,3
19032646057094,0.2536392,8.786445,3.7423747,3
19032648436313,0.11964113,8.752945,3.7998023,3
19032650815479,0.07178468,8.829515,3.8572302,3
19032653194698,0.0047856453,8.853444,3.8524444,3
19032655573865,0.009571291,8.886943,3.8141594,3
19032657953084,0.009571291,8.963513,3.7471602,3
19032660332302,0.02871387,9.035298,3.7184465,3
19032662711469,0.05742774,9.049655,3.7184465,3
19032665090688,0.047856454,9.078369,3.8285162,3
19032667469854,0.023928227,9.035298,3.9146578,3
19032669849073,-0.062213387,9.001799,3.9768713,3
19032672228240,-0.13399807,8.958728,3.9816568,3
19032674607459,-0.24885355,8.958728,4.058227,3
19032676986677,-0.37328035,8.930014,4.0869412,3
19032679365844,-0.5024927,8.920443,4.091727,3
19032681745063,-0.6029913,8.920443,4.168297,3
19032684124229,-0.63170516,8.896515,4.2592244,3
19032686503448,-0.70348984,8.906086,4.287938,3
19032688882615,-0.76570326,8.958728,4.2975097,3
19032691261834,-0.6987042,8.958728,4.331009,3
19032693641052,-0.6412765,8.930014,4.287938,3
19032696020219,-0.7082755,8.944371,4.240082,3
19032698399438,-0.6987042,8.925228,4.26401,3
19032700778604,-0.67477596,8.839087,4.345366,3
19032703157823,-0.7752745,8.810373,4.4410787,3
19032705536990,-0.7752745,8.839087,4.503292,3
19032707916209,-0.75613195,8.839087,4.4889355,3
19032710295375,-0.7848458,8.839087,4.426722,3
19032712674594,-0.79441714,8.882157,4.3740797,3
19032715053813,-0.6987042,8.920443,4.316652,3
19032717432979,-0.5838487,8.958728,4.2975097,3
19032719812198,-0.5168497,8.992228,4.287938,3
19032722191365,-0.3684947,8.992228,4.2927237,3
19032724570584,-0.2009971,8.9826565,4.2592244,3
19032726949750,-0.11485548,8.977871,4.197011,3
19032729328969,-0.019142581,9.01137,4.15394,3
19032731708136,0.062213387,8.9826565,4.1108694,3
19032734087354,0.11006984,8.977871,4.0965123,3
19032736466573,0.14356937,8.992228,4.0773697,3
19032738845740,0.13878371,9.001799,4.0390844,3
19032741224959,0.11485548,9.006584,4.0151563,3
19032743604125,0.07178468,9.01137,3.9433718,3
19032745983344,0.033499517,9.025727,3.8955152,3
19032748362511,-0.019142581,9.064013,3.871587,3
19032750741729,-0.11485548,9.059227,3.8620157,3
19032753120896,-0.21535404,9.073584,3.8476589,3
19032755500115,-0.29671,9.102298,3.8572302,3
19032757879334,-0.3684947,9.08794,3.8285162,3
19032760258500,-0.44027936,9.131011,3.8811584,3
19032762637719,-0.4211368,9.126225,3.8141594,3
19032765016886,-0.4642076,9.135797,3.7806597,3
19032767396104,-0.3397808,9.068798,3.7710886,3
19032769775271,-0.17706887,9.040084,3.7854455,3
19032772154490,-0.076570325,9.083155,3.8093736,3
19032774533709,0.20578274,9.092726,3.8380876,3
19032776912875,0.41635114,9.097511,3.8237305,3
19032779292094,0.57906306,9.044869,3.7471602,3
19032781671261,0.6556334,9.0544405,3.7471602,3
19032784050479,0.79920274,9.044869,3.751946,3
19032786429646,0.7848458,9.035298,3.8093736,3
19032788808865,0.72263247,9.001799,3.8476589,3
19032791188032,0.6125626,8.977871,3.9194436,3
19032793567250,0.47377887,8.973084,3.9481573,3
19032795946417,0.27756742,8.987442,3.9673,3
19032798325636,0.18185452,9.001799,3.9816568,3
19032800704802,0.09092726,9.01137,3.9720855,3
19032803084021,0.0,9.044869,3.9625144,3
19032805463240,-0.076570325,9.030513,3.9960139,3
19032807842407,-0.09571291,9.030513,4.048656,3
19032810221625,-0.11006984,9.030513,4.0677986,3
19032812600792,-0.1052842,9.025727,4.0869412,3
19032814980011,-0.047856454,9.01137,4.1204405,3
19032817359229,-0.014356935,9.020942,4.1587257,3
19032819738396,0.043070808,9.001799,4.211368,3
19032822117615,0.09571291,8.997013,4.197011,3
19032824496782,0.13878371,9.001799,4.182654,3
19032826876000,0.21535404,9.006584,4.240082,3
19032829255167,0.33020952,8.987442,4.278367,3
19032831634386,0.37328035,9.020942,4.240082,3
19032834013552,0.43070808,9.064013,4.1874394,3
19032836392771,0.5455636,8.9826565,4.139583,3
19032838771990,0.49292147,8.944371,4.1108694,3
19032841151157,0.41635114,8.925228,4.15394,3
19032843530375,0.3493521,8.896515,4.1635113,3
19032845909542,0.18664017,8.853444,4.1204405,3
19032848288761,-0.02871387,8.867801,4.1491547,3
19032850667927,-0.148355,8.953942,4.26401,3
19032853047146,-0.4546363,8.886943,4.130012,3
19032855426365,-0.76570326,8.930014,4.034299,3
19032857805532,-0.8566305,8.963513,3.9242291,3
19032860184750,-1.2011969,8.968299,3.9194436,3
19032862563917,-1.402194,8.953942,3.991228,3
19032864943136,-1.5266209,9.006584,4.1778684,3
19032867322302,-1.5074782,9.01137,4.26401,3
19032869701521,-1.5457634,8.9826565,4.26401,3
19032872080688,-1.3447664,9.01137,4.197011,3
19032874459907,-1.1150553,9.107083,4.1347976,3
19032876839125,-0.9092726,9.078369,4.048656,3
19032879218292,-0.6364908,9.059227,4.058227,3
19032881597511,-0.33020952,9.025727,4.125226,3
19032883976677,-0.124426775,9.01137,4.1922255,3
19032886355896,0.038285162,8.977871,4.1874394,3
19032888735063,0.17706887,8.953942,4.1587257,3
19032891114282,0.3397808,8.949157,4.058227,3
19032893493448,0.3924229,8.949157,3.9720855,3
19032895872667,0.4642076,8.963513,3.9242291,3
19032898251886,0.5024927,9.001799,3.9433718,3
19032900631052,0.55034924,9.001799,3.952943,3
19032903010271,0.55513483,9.001799,3.9816568,3
19032905389438,0.57427746,9.01137,3.938586,3
19032907768657,0.4977071,9.030513,3.8763726,3
19032910147823,0.47377887,9.0544405,3.8380876,3
19032912527042,0.41156548,9.035298,3.7998023,3
19032914906209,0.30149564,9.016156,3.7950168,3
19032917285427,0.23449662,9.111869,3.9098723,3
19032919664594,0.18664017,9.078369,4.0007997,3
19032922043813,0.11964113,9.049655,4.072584,3
19032924423032,0.19621146,9.064013,4.0677986,3
19032926802198,0.3062813,9.140582,4.024728,3
19032929181417,0.44985065,9.150154,3.9194436,3
19032931560584,0.5838487,9.159725,3.900301,3
19032933939802,0.7848458,9.140582,3.9242291,3
19032936318969,0.90448695,9.126225,3.9816568,3
19032938698188,1.0193424,9.08794,4.0151563,3
19032941077407,1.0959128,9.049655,4.0151563,3
19032943456573,1.1006985,9.049655,3.9577286,3
19032945835792,1.0959128,9.068798,3.885944,3
19032948214959,1.0049855,9.08794,3.871587,3
19032950594177,0.9236295,9.078369,3.871587,3
19032952973344,0.82313097,9.097511,3.9242291,3
19032955352511,0.72263247,9.111869,3.9864426,3
19032957731729,0.6412765,9.159725,4.0151563,3
19032960110948,0.56470615,9.15494,4.0103707,3
19032962490167,0.5168497,9.150154,3.9960139,3
19032964869334,0.4546363,9.178867,3.9768713,3
19032967248552,0.41635114,9.164511,3.991228,3
19032969627719,0.37328035,9.111869,4.034299,3
19032972006938,0.3397808,9.111869,4.072584,3
19032974386104,0.29192436,9.116654,4.0677986,3
19032976765323,0.2632105,9.092726,4.0438704,3
19032979144490,0.23928227,9.092726,4.034299,3
19032981523709,0.26799613,9.107083,4.019942,3
19032983902927,0.29192436,9.068798,3.9816568,3
19032986282094,0.33020952,9.068798,3.9816568,3
19032988661313,0.40677986,9.083155,3.9673,3
19032991040479,0.41156548,9.044869,3.9481573,3
19032993419698,0.36370903,9.020942,3.938586,3
19032995798865,0.29671,9.01137,3.9433718,3
19032998178084,0.2009971,9.01137,3.9242291,3
19033000557250,0.076570325,9.001799,3.9146578,3
19033002936469,-0.02871387,8.968299,3.9433718,3
19033005315688,-0.15792629,8.949157,3.9960139,3
19033007694854,-0.25842485,8.968299,4.048656,3
19033010074073,-0.3397808,8.973084,4.091727,3
19033012453240,-0.37806597,8.9826565,4.0965123,3
19033014832459,-0.3924229,8.987442,4.0965123,3
19033017211625,-0.37806597,8.977871,4.0869412,3
19033019590844,-0.33499518,9.01137,4.1204405,3
19033021970011,-0.2632105,9.01137,4.1635113,3
19033024349229,-0.15792629,8.973084,4.1874394,3
19033026728396,-0.033499517,8.968299,4.197011,3
19033029107615,0.08135597,8.953942,4.1874394,3
19033031486782,0.2009971,8.9348,4.182654,3
19033033866000,0.3397808,8.9108715,4.2161536,3
19033036245219,0.4546363,8.886943,4.206582,3
19033038624386,0.55034924,8.886943,4.2257247,3
19033041003604,0.6125626,8.867801,4.249653,3
19033043382771,0.64606214,8.896515,4.2592244,3
19033045761990,0.6795616,8.9013,4.2352962,3
19033048141157,0.66999036,8.925228,4.1778684,3
19033050520375,0.57906306,8.944371,4.1587257,3
19033052899594,0.44985065,8.944371,4.1443686,3
19033055278761,0.3397808,8.973084,4.139583,3
19033057657979,0.2105684,8.997013,4.1204405,3
19033060037146,0.062213387,9.020942,4.101298,3
19033062416365,-0.0526421,9.0544405,4.0677986,3
19033064795532,-0.16271193,9.049655,4.034299,3
19033067174750,-0.23928227,9.049655,4.0151563,3
19033069553917,-0.2727818,9.040084,3.9960139,3
19033071933136,-0.2536392,9.040084,3.9673,3
19033074312302,-0.20578274,9.044869,3.9433718,3
19033076691521,-0.13399807,9.016156,3.9433718,3
19033079070740,-0.023928227,9.006584,3.9194436,3
19033081449907,0.10049855,8.9826565,3.9098723,3
19033083829125,0.2105684,8.968299,3.900301,3
19033086208292,0.29192436,8.944371,3.8907297,3
19033088587511,0.3684947,8.973084,3.8811584,3
19033090966677,0.44027936,8.992228,3.8907297,3
19033093345896,0.47856453,9.006584,3.900301,3
19033095725063,0.49292147,9.016156,3.9290147,3
19033098104282,0.47856453,9.035298,3.9481573,3
19033100483448,0.42592242,9.078369,3.9816568,3
19033102862667,0.33020952,9.092726,3.9960139,3
19033105241886,0.22492532,9.126225,4.024728,3
19033107621052,0.12921242,9.140582,4.0295134,3
19033110000271,0.023928227,9.145369,4.0534415,3
19033112379438,-0.086141616,9.178867,4.048656,3
19033114758657,-0.17706887,9.188439,4.0534415,3
19033117137823,-0.2536392,9.135797,4.072584,3
19033119516990,-0.32063824,9.102298,4.101298,3
19033121896209,-0.33499518,9.068798,4.0965123,3
19033124275427,-0.30149564,9.040084,4.106084,3
19033126654646,-0.24885355,9.006584,4.115655,3
19033129033813,-0.16749759,9.006584,4.106084,3
19033131413032,-0.062213387,8.9826565,4.1204405,3
19033133792198,0.086141616,8.9826565,4.1347976,3
19033136171417,0.19142582,8.987442,4.130012,3
19033138550584,0.3062813,8.997013,4.130012,3
19033140929802,0.4211368,9.016156,4.125226,3
19033143308969,0.52163535,9.044869,4.0965123,3
19033145688188,0.5838487,9.083155,4.0773697,3
19033148067407,0.60777694,9.102298,4.048656,3
19033150446521,0.60777694,9.131011,4.0295134,3
19033152825792,0.61734825,9.159725,4.024728,3
19033155204959,0.6221339,9.145369,4.005585,3
19033157584177,0.55513483,9.131011,4.0151563,3
19033159963344,0.4881358,9.107083,4.0103707,3
19033162342563,0.41156548,9.092726,4.0007997,3
19033164721729,0.3397808,9.083155,4.0007997,3
19033167100948,0.26799613,9.068798,3.991228,3
19033169480167,0.19142582,9.035298,3.9816568,3
19033171859334,0.11964113,9.030513,3.9960139,3
19033174238552,0.08135597,9.01137,4.005585,3
19033176617719,0.038285162,9.01137,4.0103707,3
19033178996938,0.02871387,8.987442,4.0007997,3
19033181376104,0.0526421,8.9826565,4.005585,3
19033183755323,0.09092726,9.01137,4.0151563,3
19033186134490,0.124426775,9.006584,4.0390844,3
19033188513709,0.17228323,8.997013,4.019942,3
19033190892927,0.22971097,8.9826565,4.005585,3
19033193272094,0.27756742,8.949157,4.024728,3
19033195651261,0.33020952,8.944371,4.034299,3
19033198030479,0.34456646,8.949157,4.024728,3
19033200409698,0.35413775,8.939586,4.019942,3
19033202788865,0.32542387,8.9108715,4.0295134,3
19033205168084,0.29192436,8.925228,4.0438704,3
19033207547250,0.22971097,8.953942,4.0390844,3
19033209926469,0.18185452,8.953942,4.0438704,3
19033212305636,0.11006984,8.953942,4.0869412,3
19033214684854,0.043070808,8.9348,4.1204405,3
19033217064021,-0.033499517,8.953942,4.168297,3
19033219443240,-0.06699903,8.944371,4.2352962,3
19033221822459,-0.124426775,8.939586,4.2831526,3
19033224201625,-0.15314065,8.944371,4.2927237,3
19033226580844,-0.148355,8.944371,4.3070807,3
19033228960011,-0.11485548,8.939586,4.321438,3
19033231339229,-0.08135597,8.939586,4.331009,3
19033233718396,-0.023928227,8.925228,4.331009,3
19033236097615,0.038285162,8.915657,4.331009,3
19033238476782,0.13399807,8.906086,4.3405805,3
19033240856000,0.19142582,8.886943,4.3262234,3
19033243235219,0.27756742,8.886943,4.278367,3
19033245614386,0.3684947,8.882157,4.2257247,3
19033247993604,0.49292147,8.9013,4.1635113,3
19033250372719,0.5838487,8.915657,4.1204405,3
19033252751990,0.6652047,8.925228,4.091727,3
19033255131157,0.6987042,8.949157,4.0534415,3
19033257510375,0.7322037,8.987442,4.0103707,3
19033259889542,0.7369894,9.020942,3.952943,3
19033262268761,0.71306115,9.016156,3.900301,3
19033264647927,0.6795616,9.016156,3.842873,3
19033267027146,0.6412765,9.040084,3.8237305,3
19033269406313,0.56470615,9.073584,3.804588,3
19033271785532,0.51206404,9.059227,3.818945,3
19033274164750,0.47856453,9.078369,3.8237305,3
19033276543917,0.4546363,9.08794,3.7950168,3
19033278923136,0.40677986,9.092726,3.7710886,3
19033281302302,0.3924229,9.092726,3.804588,3
19033283681521,0.3924229,9.097511,3.8237305,3
19033286060688,0.42592242,9.092726,3.8763726,3
19033288439907,0.45942193,9.040084,3.885944,3
19033290819073,0.47856453,9.020942,3.9338005,3
19033293198292,0.5072784,9.035298,3.9481573,3
19033295577459,0.53599226,9.0544405,3.9290147,3
19033297956677,0.5838487,9.035298,3.938586,3
19033300335896,0.5982057,9.030513,3.9577286,3
19033302715063,0.6029913,9.01137,3.9625144,3
19033305094282,0.5886344,8.949157,3.991228,3
19033307473448,0.55034924,8.949157,4.034299,3
19033309852667,0.5312066,8.930014,4.0677986,3
19033312231834,0.4881358,8.906086,4.0773697,3
19033314611052,0.44985065,8.877372,4.101298,3
19033316990219,0.39720857,8.886943,4.1347976,3
19033319369438,0.36370903,8.891729,4.1443686,3
19033321748604,0.30149564,8.872586,4.1778684,3
19033324127823,0.26799613,8.867801,4.1874394,3
19033326507042,0.2727818,8.896515,4.211368,3
19033328886209,0.28235307,8.906086,4.220939,3
19033331265427,0.29671,8.925228,4.249653,3
19033333644594,0.33499518,8.958728,4.249653,3
19033336023813,0.3924229,9.006584,4.2352962,3
19033338402979,0.4642076,9.025727,4.211368,3
19033340782198,0.52163535,9.016156,4.182654,3
19033343161365,0.59342,8.992228,4.1922255,3
19033345540584,0.64606214,8.963513,4.2017965,3
19033347919802,0.6891329,8.973084,4.197011,3
19033350298969,0.72263247,8.930014,4.2017965,3
19033352678136,0.7369894,8.9108715,4.206582,3
19033355057354,0.7369894,8.896515,4.197011,3
19033357436573,0.71306115,8.9013,4.173083,3
19033359815740,0.66041905,8.915657,4.168297,3
19033362194959,0.5455636,8.949157,4.1922255,3
19033364574125,0.4354937,8.949157,4.211368,3
19033366953344,0.29192436,8.939586,4.240082,3
19033369332511,0.13878371,8.958728,4.2448673,3
19033371711729,0.0526421,9.030513,4.23051,3
19033374090948,-0.033499517,9.08794,4.182654,3
19033376470115,-0.10049855,9.107083,4.125226,3
19033378849334,-0.12921242,9.183653,4.115655,3
19033381228500,-0.13399807,9.255438,4.0869412,3
19033383607719,-0.11485548,9.288938,4.0869412,3
19033385986886,-0.043070808,9.332008,4.0677986,3
19033388366104,0.08135597,9.341579,4.0295134,3
19033390745271,0.23449662,9.379865,4.0007997,3
19033393124490,0.3924229,9.370294,3.9481573,3
19033395503657,0.53599226,9.355937,3.9290147,3
19033397882875,0.70348984,9.322437,3.900301,3
19033400262042,0.86141616,9.298509,3.900301,3
19033402641261,0.9906286,9.250652,3.8907297,3
19033405020479,1.0911272,9.183653,3.8668015,3
19033407399646,1.18684,9.116654,3.8524444,3
19033409778865,1.2394822,9.078369,3.8285162,3
19033412158032,1.2873386,9.040084,3.8093736,3
19033414537250,1.2921243,9.020942,3.7950168,3
19033416916417,1.2729816,9.006584,3.790231,3
19033419295636,1.2251252,9.016156,3.7663028,3
19033421674802,1.1676974,8.987442,3.7280176,3
19033424054021,1.1150553,9.016156,3.6993039,3
19033426433188,1.038485,9.030513,3.6897326,3
19033428812407,0.93320084,9.040084,3.6753755,3
19033431191573,0.8853444,9.0544405,3.6658044,3
19033433570792,0.81834537,9.068798,3.6753755,3
19033435950011,0.7752745,9.08794,3.7280176,3
19033438329177,0.7513463,9.078369,3.7758741,3
19033440708396,0.7369894,9.111869,3.8093736,3
19033443087563,0.76570326,9.111869,3.8333018,3
19033445466782,0.7848458,9.12144,3.871587,3
19033447845948,0.8135597,9.116654,3.9146578,3
19033450225167,0.86141616,9.102298,3.9768713,3
19033452604334,0.91405827,9.073584,4.034299,3
19033454983552,0.971486,9.049655,4.091727,3
19033457362719,0.9954142,9.025727,4.1108694,3
19033459741938,1.0049855,9.020942,4.1347976,3
19033462121104,1.0001999,9.040084,4.139583,3
19033464500323,1.0049855,9.030513,4.125226,3
19033466879542,0.9906286,9.016156,4.1204405,3
19033469258709,0.94755775,9.016156,4.1347976,3
19033471637927,0.9092726,9.01137,4.1635113,3
19033474017094,0.8327023,9.030513,4.220939,3
19033476396313,0.7704889,9.01137,4.240082,3
19033478775479,0.7178468,8.977871,4.23051,3
19033481154698,0.66041905,8.977871,4.211368,3
19033483533865,0.60777694,8.968299,4.2161536,3
19033485913084,0.5886344,8.973084,4.240082,3
19033488292250,0.57427746,8.963513,4.2687955,3
19033490671469,0.56470615,8.939586,4.2831526,3
19033493050688,0.5694918,8.9013,4.2975097,3
19033495429854,0.57427746,8.882157,4.287938,3
19033497809073,0.59342,8.872586,4.23051,3
19033500188240,0.6221339,8.843872,4.211368,3
19033502567459,0.6412765,8.810373,4.182654,3
19033504946625,0.6364908,8.815159,4.15394,3
19033507325844,0.6269195,8.772088,4.168297,3
19033509705011,0.6269195,8.772088,4.1874394,3
19033512084229,0.5886344,8.796016,4.168297,3
19033514463396,0.55034924,8.805588,4.1443686,3
19033516842615,0.5455636,8.805588,4.101298,3
19033519221782,0.5072784,8.819944,4.0773697,3
19033521601000,0.49292147,8.877372,4.082155,3
19033523980219,0.5024927,8.891729,4.0773697,3
19033526359386,0.51206404,8.939586,4.0438704,3
19033528738604,0.51206404,8.968299,4.0295134,3
19033531117771,0.55034924,8.997013,4.034299,3
19033533496990,0.57906306,9.030513,4.0438704,3
19033535876157,0.5886344,9.064013,4.0677986,3
19033538255375,0.5982057,9.0544405,4.101298,3
19033540634542,0.6125626,9.030513,4.115655,3
19033543013761,0.5982057,9.040084,4.1347976,3
19033545392927,0.56470615,9.006584,4.139583,3
19033547772146,0.5455636,8.992228,4.173083,3
19033550151313,0.49292147,8.9826565,4.1922255,3
19033552530532,0.44985065,8.973084,4.211368,3
19033554909750,0.39720857,8.949157,4.220939,3
19033557288917,0.36370903,8.963513,4.249653,3
19033559668136,0.32063824,8.968299,4.249653,3
19033562047302,0.32063824,8.949157,4.2017965,3
19033564426521,0.32063824,8.949157,4.15394,3
19033566805688,0.33020952,8.9348,4.125226,3
19033569184907,0.36370903,8.953942,4.0965123,3
19033571564073,0.39720857,8.9108715,4.091727,3
19033573943292,0.47377887,8.920443,4.082155,3
19033576322511,0.55034924,8.925228,4.0438704,3
19033578701677,0.6364908,8.920443,4.0295134,3
19033581080844,0.6987042,8.9013,4.0103707,3
19033583460063,0.7800602,8.872586,3.9577286,3
19033585839229,0.8709874,8.863015,3.952943,3
19033588218448,0.9284152,8.848659,3.9194436,3
19033590597667,0.9762716,8.834301,3.885944,3
19033592976834,1.0001999,8.82473,3.8620157,3
19033595356052,1.0145568,8.796016,3.8237305,3
19033597735219,1.0241281,8.819944,3.790231,3
19033600114438,1.0097711,8.839087,3.7615173,3
19033602493604,0.971486,8.872586,3.7136607,3
19033604872823,0.91405827,8.920443,3.6658044,3
19033607251990,0.83748794,8.977871,3.6370904,3
19033609631209,0.75613195,9.020942,3.6083765,3
19033612010375,0.70348984,9.073584,3.6227336,3
19033614389594,0.6412765,9.131011,3.6323047,3
19033616768761,0.5838487,9.150154,3.6753755,3
19033619147979,0.5168497,9.145369,3.7328033,3
19033621527198,0.44985065,9.164511,3.7567315,3
19033623906365,0.40677986,9.174082,3.804588,3
19033626285584,0.3924229,9.174082,3.8333018,3
19033628664750,0.43070808,9.202796,3.8620157,3
19033631043969,0.44985065,9.193225,3.9194436,3
19033633423136,0.51206404,9.202796,3.9194436,3
19033635802354,0.5694918,9.193225,3.9338005,3
19033638181521,0.6364908,9.188439,3.952943,3
19033640560740,0.70348984,9.15494,3.9338005,3
19033642939959,0.75613195,9.111869,3.9290147,3
19033645319125,0.80877405,9.078369,3.9433718,3
19033647698344,0.83748794,9.040084,3.9577286,3
19033650077511,0.85184485,8.968299,3.9720855,3
19033652456729,0.8327023,8.949157,3.9816568,3
19033654835896,0.79441714,8.939586,3.9720855,3
19033657215115,0.7322037,8.9013,3.9481573,3
19033659594282,0.6269195,8.891729,3.9098723,3
19033661973500,0.47856453,8.877372,3.871587,3
19033664352667,0.3062813,8.877372,3.8524444,3
19033666731886,0.12921242,8.896515,3.8285162,3
19033669111052,-0.0526421,8.939586,3.818945,3
19033671490271,-0.21535404,8.930014,3.818945,3
19033673869386,-0.32542387,9.01137,3.8955152,3
19033676248657,-0.3924229,9.097511,3.9194436,3
19033678627823,-0.56470615,9.188439,3.885944,3
19033681007042,-0.57427746,9.265009,3.8333018,3
19033683386261,-0.63170516,9.365508,3.8141594,3
19033685765427,-0.6891329,9.513863,3.7806597,3
19033688144646,-0.6221339,9.590433,3.7950168,3
19033690523813,-0.46899325,9.657433,3.885944,3
19033692903032,-0.28235307,9.734002,3.9768713,3
19033695282198,-0.047856454,9.801002,4.0677986,3
19033697661417,0.2632105,9.839287,4.0965123,3
19033700040584,0.55513483,9.868001,4.130012,3
19033702419802,0.83748794,9.853643,4.125226,3
19033704798969,1.1246266,9.805787,4.125226,3
19033707178188,1.3734802,9.796216,4.139583,3
19033709557354,1.5361922,9.777073,4.197011,3
19033711936573,1.6127625,9.700503,4.220939,3
19033714315792,1.6654046,9.647861,4.302295,3
19033716694959,1.6510476,9.547362,4.3262234,3
19033719074177,1.5744773,9.437292,4.354937,3
19033721453344,1.4691931,9.312865,4.3405805,3
19033723832563,1.3447664,9.15494,4.345366,3
19033726211729,1.2107682,8.987442,4.331009,3
19033728590948,1.0624132,8.863015,4.321438,3
19033730970115,0.8805587,8.762517,4.2352962,3
19033733349334,0.72263247,8.652447,4.1204405,3
19033735728500,0.56470615,8.532805,3.9816568,3
19033738107719,0.4019942,8.374879,3.8668015,3
19033740486886,0.23928227,8.298309,3.9625144,3
19033742866104,0.10049855,8.063812,4.0151563,3
19033745245271,0.02871387,8.140383,4.26401,3
19033747624490,-0.047856454,7.8580294,4.220939,3
19033750003657,-0.09571291,8.087741,4.465007,3
19033752382875,-0.1052842,7.7479596,4.125226,3
19033754762094,-0.06699903,8.082955,4.3645086,3
19033757141261,-0.014356935,7.7910304,4.063013,3
19033759520479,0.11485548,8.039884,4.359723,3
19033761899646,0.29192436,7.958528,4.3836513,3
19033764278865,0.4642076,7.9968133,4.5272202,3
19033766658032,0.52163535,8.183454,4.651647,3
19033769037250,0.66999036,8.135597,4.56072,3
19033771416417,0.81834537,8.475378,4.7808595,3
19033773795636,0.95712906,8.212168,4.388437,3
19033776174802,1.119841,8.618947,4.5942197,3
19033778554021,1.2634103,8.585447,4.359723,3
19033780933188,1.253839,8.695518,4.4889355,3
19033783312407,1.18684,8.628518,4.503292,3
19033785691573,1.1006985,8.839087,4.6229334,3
19033788070792,0.9906286,8.963513,4.6037908,3
19033790450011,0.81834537,8.963513,4.388437,3
19033792829177,0.71306115,9.183653,4.240082,3
19033795208396,0.5599205,9.212367,4.0295134,3
19033797587563,0.4881358,9.260223,4.091727,3
19033799966782,0.4642076,9.15494,4.173083,3
19033802345948,0.44027936,9.183653,4.3118663,3
19033804725167,0.4211368,9.049655,4.2927237,3
19033807104334,0.45942193,8.992228,4.3070807,3
19033809483552,0.5599205,8.853444,4.173083,3
19033811862719,0.64606214,8.7673025,4.125226,3
19033814241938,0.7704889,8.6141615,4.130012,3
19033816621104,0.8757731,8.60459,4.2975097,3
19033819000323,1.0001999,8.398808,4.3501515,3
19033821379490,0.971486,8.403593,4.5272202,3
19033823758709,1.1485549,8.327023,4.2592244,3
19033826137875,1.0959128,8.585447,4.3357944,3
19033828517094,1.0719845,8.398808,4.2831526,3
19033830896313,0.8709874,8.250452,4.426722,3
19033833275479,1.2155539,8.312666,4.4554358,3
19033835654698,1.3256238,8.523234,4.4985065,3
19033838033865,0.8279166,8.465807,4.3405805,3
19033840413084,0.7465607,8.283952,4.0438704,3
19033842792250,1.0480564,8.575876,3.9960139,3
19033845171469,1.1485549,8.647661,3.9242291,3
19033847550636,0.7513463,8.585447,3.991228,3
19033849929854,0.7609176,8.5423765,4.0773697,3
19033852309021,0.8422736,8.695518,4.15394,3
19033854688240,0.8422736,8.772088,4.058227,3
19033857067407,0.6891329,8.743374,4.0677986,3
19033859446625,0.6795616,8.805588,4.0869412,3
19033861825792,0.5694918,8.949157,4.1491547,3
19033864205011,0.60777694,9.040084,4.125226,3
19033866584177,0.5312066,9.126225,4.1204405,3
19033868963396,0.5168497,9.145369,4.0773697,3
19033871342615,0.52163535,9.193225,4.048656,3
19033873721782,0.49292147,9.265009,4.091727,3
19033876101000,0.47856453,9.2793665,4.0438704,3
19033878480167,0.6364908,8.853444,3.7663028,3
19033880859386,0.8470592,8.489735,3.6849468,3
19033883238552,0.3924229,8.628518,3.4408789,3
19033885617771,0.24885355,8.977871,3.0915267,3
19033887996938,0.40677986,8.413164,2.4741786,3
19033890376157,0.11485548,8.49452,2.5268207,3
19033892755323,-0.55034924,8.9348,3.2446675,3
19033895134542,-0.5599205,8.930014,4.249653,3
19033897513709,-0.79441714,8.733803,4.9340005,3
19033899892927,-0.44985065,8.85823,5.058427,3
19033902272094,-0.71306115,9.38465,5.2977095,3
19033904651313,-0.43070808,9.8727865,5.1206403,3
19033907030532,0.062213387,10.150353,4.627719,3
19033909409698,0.28713873,10.097712,4.23051,3
19033911788917,0.86141616,10.006784,4.220939,3
19033914168084,1.416551,9.781859,4.197011,3
19033916547302,2.1487548,9.781859,4.3645086,3
19033918926417,2.1487548,9.585648,4.23051,3
19033921305688,2.713461,9.303294,3.7758741,3
19033923684854,2.804388,9.2793665,3.5700915,3
19033926064073,2.507678,8.944371,3.3260236,3
19033928443240,2.2875385,8.623733,3.5030923,3
19033930822459,1.9716859,8.571091,3.9242291,3
19033933201625,1.5266209,8.46102,4.302295,3
19033935580844,0.91884387,8.298309,4.551149,3
19033937960011,0.4833502,8.398808,4.6707897,3
19033940339229,0.10049855,8.5423765,4.618148,3
19033942718396,-0.2105684,8.590233,4.5415773,3
19033945097563,-0.4019942,8.662018,4.5894337,3
19033947476782,-0.49292147,8.82473,4.761717,3
19033949856000,-0.53599226,8.920443,4.900501,3
19033952235219,-0.4977071,8.9348,4.843073,3
19033954614386,-0.52163535,9.049655,4.5559344,3
19033956993604,-0.4977071,9.164511,4.197011,3
19033959372771,-0.37806597,9.150154,3.938586,3
19033961751990,-0.11964113,9.111869,3.8763726,3
19033964131157,0.22971097,9.040084,3.8763726,3
19033966510375,0.53599226,9.049655,3.991228,3
19033968889490,0.85184485,8.953942,3.952943,3
19033971268761,1.1437693,9.035298,3.8333018,3
19033973647927,1.3304094,9.107083,3.6131623,3
19033976027146,1.4356936,9.221938,3.546163,3
19033978406313,1.564906,9.336794,3.4456646,3
19033980785532,1.4500505,9.485149,3.5413775,3
19033983164698,1.3974084,9.38465,3.4695928,3
19033985543917,1.1102697,9.556933,3.574877,3
19033987923084,0.80877405,9.643075,3.4743786,3
19033990302302,0.37328035,9.734002,3.2973096,3
19033992681469,0.02871387,9.686146,3.1920254,3
19033995060688,-0.34456646,9.710074,3.3930225,3
19033997439854,-0.5838487,9.628718,3.7423747,3
19033999819073,-0.6556334,9.485149,4.168297,3
19034002198292,-0.7704889,9.446864,4.517649,3
19034004577459,-0.81834537,9.470792,4.4889355,3
19034006956677,-0.94277215,9.446864,4.1874394,3
19034009335844,-0.90448695,9.303294,3.7567315,3
19034011715063,-0.9284152,9.250652,3.546163,3
19034014094229,-0.8422736,9.131011,3.5174494,3
19034016473448,-0.7465607,9.016156,3.7806597,3
19034018852615,-0.57427746,8.85823,4.005585,3
19034021231834,-0.44985065,8.82473,4.1347976,3
19034023611000,-0.31106696,8.7673025,3.991228,3
19034025990219,-0.19142582,8.71466,3.7471602,3
19034028369386,-0.047856454,8.7577305,3.5557344,3
19034030748604,0.08135597,8.810373,3.5700915,3
19034033127771,0.21535404,8.819944,3.8380876,3
19034035506990,0.2440679,8.800801,4.1491547,3
19034037886157,0.24885355,8.839087,4.3788652,3
19034040265375,0.20578274,8.9013,4.469793,3
19034042644542,0.124426775,8.9826565,4.354937,3
19034045023761,0.0047856453,9.025727,4.1347976,3
19034047402979,-0.062213387,9.107083,3.9864426,3
19034049782146,-0.047856454,9.169296,4.019942,3
19034052161365,-0.02871387,9.111869,4.182654,3
19034054540532,0.05742774,9.059227,4.398008,3
19034056919750,0.15792629,9.006584,4.5798626,3
19034059298917,0.36370903,8.9348,4.5894337,3
19034061678136,0.5407779,8.896515,4.4745784,3
19034064057302,0.71306115,8.891729,4.316652,3
19034066436521,0.8662018,8.891729,4.2017965,3
19034068815688,0.9667004,8.9108715,4.1778684,3
19034071194907,1.0336994,8.906086,4.278367,3
19034073574073,1.0624132,8.9013,4.402794,3
19034075953292,1.0815558,8.891729,4.4410787,3
19034078332459,1.1102697,8.886943,4.3788652,3
19034080711677,1.0671989,8.906086,4.2257247,3
19034083090844,0.9667004,8.987442,4.072584,3
19034085470063,0.79920274,9.030513,3.9816568,3
19034087849229,0.57906306,9.040084,3.9864426,3
19034090228448,0.35413775,9.044869,4.063013,3
19034092607667,0.09092726,9.059227,4.1204405,3
19034094986834,-0.12921242,9.064013,4.106084,3
19034097366052,-0.31106696,9.059227,4.048656,3
19034099745219,-0.4211368,9.073584,3.9960139,3
19034102124438,-0.5024927,9.059227,3.9720855,3
19034104503604,-0.51206404,9.035298,3.9720855,3
19034106882771,-0.41635114,9.01137,4.0151563,3
19034109261990,-0.21535404,9.001799,4.0390844,3
19034111641209,0.047856454,9.025727,4.005585,3
19034114020375,0.32063824,9.001799,3.9242291,3
19034116399594,0.6029913,9.020942,3.8380876,3
19034118778761,0.8757731,9.001799,3.8093736,3
19034121157979,1.119841,8.987442,3.7950168,3
19034123537146,1.2969099,8.9826565,3.8668015,3
19034125916365,1.4213367,8.987442,3.9194436,3
19034128295532,1.4500505,8.992228,3.9338005,3
19034130674750,1.4069797,9.020942,3.8620157,3
19034133053917,1.3160524,8.992228,3.7998023,3
19034135433136,1.1485549,8.9826565,3.737589,3
19034137812302,0.91405827,9.025727,3.7615173,3
19034140191521,0.67477596,8.997013,3.8285162,3
19034142570688,0.45942193,8.992228,3.8955152,3
19034144949907,0.2536392,9.020942,3.9290147,3
19034147329073,0.06699903,9.035298,3.9194436,3
19034149708292,-0.08135597,9.040084,3.900301,3
19034152087511,-0.19621146,9.030513,3.8907297,3
19034154466677,-0.22971097,9.020942,3.9577286,3
19034156845896,-0.2009971,9.01137,4.048656,3
19034159225063,-0.05742774,9.006584,4.1443686,3
19034161604229,0.12921242,9.020942,4.1778684,3
19034163983448,0.35413775,9.020942,4.1491547,3
19034166362667,0.6125626,9.044869,4.082155,3
19034168741834,0.89013004,9.044869,4.0103707,3
19034171121052,1.1820544,9.044869,4.024728,3
19034173500219,1.4691931,9.025727,4.0677986,3
19034175879438,1.6510476,9.016156,4.1108694,3
19034178258604,1.7754744,9.001799,4.15394,3
19034180637823,1.8664017,8.987442,4.1587257,3
19034183016990,1.8951155,8.977871,4.115655,3
19034185396209,1.847259,8.9826565,4.101298,3
19034187775375,1.7084754,8.997013,4.0869412,3
19034190154594,1.5744773,8.987442,4.1204405,3
19034192533761,1.4069797,8.9826565,4.1778684,3
19034194912979,1.1916257,8.987442,4.2352962,3
19034197292146,0.9619147,8.997013,4.23051,3
19034199671365,0.72741807,9.006584,4.197011,3
19034202050532,0.526421,8.987442,4.1635113,3
19034204429750,0.38763726,8.992228,4.1443686,3
19034206808969,0.28713873,8.987442,4.1587257,3
19034209188136,0.2009971,8.968299,4.1874394,3
19034211567354,0.19621146,8.949157,4.1922255,3
19034213946521,0.23928227,8.973084,4.2017965,3
19034216325740,0.3493521,8.977871,4.1874394,3
19034218704907,0.4642076,8.997013,4.130012,3
19034221084125,0.60777694,8.997013,4.0773697,3
19034223463240,0.79441714,9.001799,4.0295134,3
19034225842511,0.9523434,9.016156,3.9960139,3
19034228221677,1.0911272,8.997013,3.9960139,3
19034230600896,1.1676974,9.001799,3.991228,3
19034232980063,1.2251252,9.020942,3.9864426,3
19034235359282,1.2251252,9.030513,3.9673,3
19034237738448,1.1916257,9.020942,3.9673,3
19034240117667,1.105484,9.020942,3.9577286,3
19034242496834,1.0336994,9.030513,3.9481573,3
19034244876052,0.95712906,9.006584,3.9481573,3
19034247255219,0.8327023,9.001799,3.9768713,3
19034249634438,0.7322037,9.001799,3.9816568,3
19034252013604,0.66041905,8.987442,3.9816568,3
19034254392823,0.6029913,8.953942,3.9768713,3
19034256771990,0.57906306,8.953942,3.9768713,3
19034259151209,0.5886344,8.977871,3.9864426,3
19034261530375,0.60777694,8.925228,3.9960139,3
19034263909594,0.67477596,8.9108715,4.0103707,3
19034266288813,0.7322037,8.906086,4.019942,3
19034268667979,0.8566305,8.939586,4.034299,3
19034271047146,0.9523434,8.949157,4.005585,3
19034273426365,1.038485,8.944371,3.9960139,3
19034275805584,1.1294123,8.944371,3.991228,3
19034278184750,1.2011969,8.944371,4.0007997,3
19034280563969,1.2011969,8.949157,4.0103707,3
19034282943136,1.1820544,8.930014,4.024728,3
19034285322354,1.1150553,8.915657,4.058227,3
19034287701521,1.0719845,8.9348,4.0390844,3
19034290080740,0.95712906,8.977871,4.0151563,3
19034292459907,0.8279166,8.992228,4.0007997,3
19034294839125,0.71306115,8.968299,3.991228,3
19034297218292,0.5982057,8.963513,4.0007997,3
19034299597511,0.49292147,8.977871,3.9864426,3
19034301976677,0.4211368,8.977871,3.991228,3
19034304355896,0.3684947,8.953942,4.005585,3
19034306735063,0.3589234,8.963513,3.9816568,3
19034309114282,0.41156548,8.939586,3.9481573,3
19034311493448,0.44027936,8.939586,3.9481573,3
19034313872667,0.53599226,8.9108715,3.9625144,3
19034316251834,0.64606214,8.906086,3.9864426,3
19034318631052,0.76570326,8.9108715,4.019942,3
19034321010219,0.8662018,8.896515,4.0151563,3
19034323389438,0.9762716,8.886943,3.991228,3
19034325768604,1.0671989,8.9108715,3.9625144,3
19034328147823,1.1102697,8.896515,3.9816568,3
19034330527042,1.1485549,8.915657,3.991228,3
19034332906209,1.1437693,8.9348,4.034299,3
19034335285427,1.105484,8.958728,4.058227,3
19034337664594,1.0145568,8.9826565,4.072584,3
19034340043761,0.9092726,9.01137,4.072584,3
19034342422979,0.7800602,9.020942,4.091727,3
19034344802198,0.6364908,9.025727,4.115655,3
19034347181365,0.5024927,9.030513,4.125226,3
19034349560584,0.37328035,9.059227,4.1443686,3
19034351939750,0.2536392,9.049655,4.1778684,3
19034354318969,0.17706887,9.040084,4.211368,3
19034356698136,0.11964113,9.0544405,4.2352962,3
19034359077302,0.12921242,9.025727,4.23051,3
19034361456521,0.15792629,9.035298,4.220939,3
19034363835740,0.22013968,9.016156,4.2017965,3
19034366214907,0.27756742,8.958728,4.2017965,3
19034368594125,0.4019942,8.953942,4.2017965,3
19034370973292,0.5024927,8.930014,4.2017965,3
19034373352511,0.6125626,8.906086,4.206582,3
19034375731677,0.7369894,8.9013,4.206582,3
19034378110896,0.8135597,8.925228,4.211368,3
19034380490063,0.89013004,8.930014,4.1922255,3
19034382869282,0.9284152,8.944371,4.1587257,3
19034385248448,0.9236295,8.958728,4.139583,3
19034387627667,0.94755775,8.958728,4.115655,3
19034390006834,0.91884387,8.9826565,4.106084,3
19034392386052,0.8853444,9.016156,4.082155,3
19034394765219,0.82313097,9.020942,4.0677986,3
19034397144438,0.76570326,9.064013,4.058227,3
19034399523604,0.6939186,9.083155,4.0151563,3
19034401902823,0.6221339,9.078369,3.9816568,3
19034404281990,0.6029913,9.08794,3.9433718,3
19034406661209,0.55513483,9.073584,3.9242291,3
19034409040427,0.53599226,9.073584,3.9146578,3
19034411419594,0.5312066,9.111869,3.9146578,3
19034413798761,0.55034924,9.102298,3.8955152,3
19034416177979,0.5886344,9.107083,3.871587,3
19034418557198,0.6364908,9.08794,3.8333018,3
19034420936365,0.63170516,9.068798,3.8476589,3
19034423315584,0.66041905,9.044869,3.8763726,3
19034425694750,0.6652047,9.035298,3.9098723,3
19034428073969,0.67477596,9.035298,3.9146578,3
19034430453136,0.6843473,9.020942,3.938586,3
19034432832354,0.66041905,8.992228,3.952943,3
19034435211521,0.6412765,8.992228,3.9768713,3
19034437590740,0.6125626,8.997013,4.005585,3
19034439969907,0.57906306,8.987442,4.0390844,3
19034442349125,0.5455636,8.987442,4.072584,3
19034444728292,0.5407779,8.977871,4.1347976,3
19034447107511,0.5455636,8.968299,4.1778684,3
19034449486677,0.5312066,8.944371,4.220939,3
19034451865896,0.55513483,8.930014,4.2592244,3
19034454245063,0.5838487,8.925228,4.240082,3
19034456624282,0.64606214,8.906086,4.23051,3
19034459003448,0.7178468,8.9108715,4.23051,3
19034461382667,0.7752745,8.896515,4.240082,3
19034463761834,0.8566305,8.877372,4.254439,3
19034466141052,0.9523434,8.863015,4.2448673,3
19034468520219,1.0145568,8.877372,4.206582,3
19034470899438,1.0863415,8.891729,4.139583,3
19034473278604,1.1533405,8.85823,4.072584,3
19034475657823,1.1772687,8.872586,4.0438704,3
19034478036990,1.1772687,8.891729,4.0390844,3
19034480416209,1.1533405,8.915657,4.024728,3
19034482795375,1.119841,8.920443,4.024728,3
19034485174594,1.0576276,8.939586,3.9960139,3
19034487553761,0.9954142,8.968299,3.9768713,3
19034489932979,0.9236295,8.992228,3.9577286,3
19034492312146,0.8135597,9.016156,3.9720855,3
19034494691365,0.7369894,9.01137,4.0103707,3
19034497070584,0.66041905,9.030513,4.019942,3
19034499449698,0.57906306,9.064013,4.0390844,3
19034501828917,0.55034924,9.044869,4.0295134,3
19034504208136,0.5312066,9.030513,4.005585,3
19034506587302,0.5168497,9.035298,4.0103707,3
19034508966521,0.5312066,9.040084,4.0295134,3
19034511345740,0.5838487,9.035298,4.0534415,3
19034513724854,0.6269195,9.044869,4.091727,3
19034516104125,0.70348984,9.044869,4.115655,3
19034518483240,0.7465607,9.030513,4.1443686,3
19034520862511,0.79920274,9.025727,4.182654,3
19034523241677,0.8422736,9.035298,4.197011,3
19034525620896,0.90448695,8.997013,4.220939,3
19034528000063,0.9619147,8.9826565,4.2257247,3
19034530379282,0.9906286,8.963513,4.2017965,3
19034532758396,1.0097711,8.944371,4.182654,3
19034535137667,1.0145568,8.9348,4.182654,3
19034537516834,1.0049855,8.930014,4.1347976,3
19034539896052,0.98584294,8.930014,4.125226,3
19034542275219,0.95712906,8.953942,4.091727,3
19034544654438,0.8853444,8.949157,4.072584,3
19034547033604,0.85184485,8.949157,4.0534415,3
19034549412823,0.7848458,8.963513,4.048656,3
19034551791990,0.72741807,8.987442,3.9960139,3
19034554171209,0.6891329,8.997013,3.9768713,3
19034556550375,0.6364908,9.030513,3.9673,3
19034558929594,0.6029913,9.092726,3.9625144,3
19034561308761,0.57906306,9.102298,3.952943,3
19034563687979,0.56470615,9.078369,3.938586,3
19034566067146,0.5694918,9.078369,3.9194436,3
19034568446365,0.5886344,9.083155,3.952943,3
19034570825532,0.5982057,9.064013,4.034299,3
19034573204750,0.61734825,9.01137,4.139583,3
19034575583917,0.64606214,8.992228,4.1922255,3
19034577963136,0.67477596,8.992228,4.173083,3
19034580342250,0.70348984,9.040084,4.1347976,3
19034582721521,0.7609176,9.08794,4.058227,3
19034585100688,0.75613195,8.958728,3.8668015,3
19034587479907,0.74177504,8.930014,3.8668015,3
19034589859073,0.7609176,8.939586,3.9673,3
19034592238292,0.70348984,8.949157,4.1347976,3
19034594617459,0.7609176,8.886943,4.2831526,3
19034596996677,0.7513463,8.839087,4.3501515,3
19034599375844,0.7800602,8.843872,4.254439,3
19034601755063,0.79441714,8.882157,4.0773697,3
19034604134229,0.8566305,8.891729,3.9673,3
19034606513448,0.89491564,8.872586,3.9673,3
19034608892667,0.89491564,8.867801,4.106084,3
19034611271834,0.93320084,8.843872,4.240082,3
19034613651000,0.91884387,8.867801,4.302295,3
19034616030219,0.9092726,8.886943,4.23051,3
19034618409386,0.8805587,8.9108715,4.0965123,3
19034620788604,0.82313097,8.9348,3.9960139,3
19034623167823,0.7896315,8.930014,3.952943,3
19034625546990,0.6987042,8.958728,3.991228,3
19034627926209,0.67477596,8.963513,4.072584,3
19034630305375,0.60777694,8.953942,4.1204405,3
19034632684594,0.5407779,8.968299,4.0965123,3
19034635063761,0.5072784,8.963513,4.0151563,3
19034637442927,0.44027936,8.997013,3.9290147,3
19034639822146,0.36370903,9.020942,3.938586,3
19034642201365,0.33499518,9.025727,3.991228,3
19034644580532,0.25842485,8.997013,4.139583,3
19034646959750,0.28235307,8.9348,4.182654,3
19034649338917,0.2009971,8.9348,4.1491547,3
19034651718136,0.17706887,8.9348,4.034299,3
19034654097302,0.15792629,8.963513,3.9673,3
19034656476521,0.15792629,8.953942,3.9338005,3
19034658855688,0.13399807,8.944371,3.9768713,3
19034661234907,0.15792629,8.906086,4.072584,3
19034663614073,0.20578274,8.944371,4.139583,3
19034665993292,0.18664017,8.968299,4.130012,3
19034668372459,0.21535404,8.958728,4.058227,3
19034670751677,0.23928227,8.953942,3.9768713,3
19034673130844,0.22971097,8.958728,3.9768713,3
19034675510063,0.23928227,8.9826565,4.063013,3
19034677889229,0.20578274,8.977871,4.173083,3
19034680268448,0.16271193,9.001799,4.254439,3
19034682647615,0.09571291,9.016156,4.26401,3
19034685026834,0.06699903,9.01137,4.206582,3
19034687406000,0.014356935,9.025727,4.139583,3
19034689785219,-0.014356935,9.030513,4.1347976,3
19034692164386,-0.05742774,9.064013,4.1587257,3
19034694543604,-0.11006984,9.064013,4.2257247,3
19034696922771,-0.11006984,9.040084,4.278367,3
19034699301990,-0.13878371,9.025727,4.3118663,3
19034701681157,-0.16271193,9.035298,4.302295,3
19034704060375,-0.17228323,8.997013,4.26401,3
19034706439542,-0.11485548,8.992228,4.1491547,3
19034708818761,-0.06699903,9.001799,4.048656,3
19034711197927,0.0,9.020942,3.9960139,3
19034713577146,0.038285162,9.025727,4.0390844,3
19034715956313,0.1052842,8.992228,4.072584,3
19034718335532,0.15792629,8.9826565,4.0390844,3
19034720714698,0.20578274,9.01137,3.952943,3
19034723093917,0.30149564,8.9826565,3.8763726,3
19034725473084,0.35413775,9.01137,3.8333018,3
19034727852302,0.34456646,9.073584,3.818945,3
19034730231469,0.3589234,9.035298,3.8763726,3
19034732610688,0.44027936,8.953942,3.9960139,3
19034734989854,0.47377887,8.997013,4.0869412,3
19034737369073,0.47856453,9.068798,4.082155,3
19034739748240,0.5694918,9.030513,4.034299,3
19034742127459,0.64606214,9.040084,3.9338005,3
19034744506625,0.6891329,9.126225,3.9481573,3
19034746885844,0.80877405,9.102298,3.9673,3
19034749265063,0.8470592,9.078369,4.058227,3
19034751644229,0.9236295,9.073584,4.082155,3
19034754023396,0.9523434,9.083155,4.048656,3
19034756402615,1.0001999,9.016156,4.048656,3
19034758781782,1.0863415,8.973084,4.024728,3
19034761161000,1.0480564,9.064013,4.005585,3
19034763540167,1.0911272,9.097511,3.9720855,3
19034765919386,1.052842,9.078369,4.019942,3
19034768298552,1.052842,9.030513,4.101298,3
19034770677771,1.0241281,9.097511,4.273581,3
19034773056938,0.98584294,9.025727,4.3357944,3
19034775436157,0.9523434,8.939586,4.23051,3
19034777815323,0.79920274,8.992228,4.1443686,3
19034780194542,0.7082755,9.030513,4.168297,3
19034782573709,0.6029913,8.968299,4.316652,3
19034784952927,0.47377887,8.915657,4.421936,3
19034787332146,0.4019942,8.9013,4.398008,3
19034789711313,0.38285163,8.958728,4.254439,3
19034792090532,0.40677986,8.963513,4.082155,3
19034794469698,0.47377887,8.949157,3.9960139,3
19034796848865,0.63170516,8.939586,3.952943,3
19034799228084,0.72263247,8.953942,3.9481573,3
19034801607302,0.8757731,8.949157,3.900301,3
19034803986469,1.0097711,8.958728,3.871587,3
19034806365688,1.0671989,8.973084,3.804588,3
19034808744854,1.0815558,8.939586,3.7758741,3
19034811124021,1.119841,8.9013,3.7328033,3
19034813503240,1.0911272,8.930014,3.656233,3
19034815882459,1.0001999,8.9826565,3.5988052,3
19034818261625,0.94277215,8.963513,3.6275191,3
19034820640844,0.82313097,8.949157,3.6897326,3
19034823020011,0.6987042,8.944371,3.7328033,3
19034825399177,0.6125626,8.939586,3.737589,3
19034827778396,0.5407779,8.968299,3.6993039,3
19034830157615,0.4354937,9.01137,3.6466618,3
19034832536782,0.38285163,9.044869,3.6897326,3
19034834916000,0.3493521,9.006584,3.7806597,3
19034837295167,0.29192436,8.992228,3.8763726,3
19034839674334,0.22971097,9.035298,3.9194436,3
19034842053552,0.25842485,9.030513,3.9290147,3
19034844432771,0.30149564,8.992228,3.9098723,3
19034846811938,0.35413775,9.016156,3.8763726,3
19034849191157,0.4881358,9.025727,3.8333018,3
19034851570323,0.63170516,9.020942,3.8620157,3
19034853949542,0.7752745,9.006584,3.9146578,3
19034856328709,0.94277215,8.992228,3.991228,3
19034858707927,1.0911272,8.9826565,4.005585,3
19034861087094,1.1964114,8.968299,3.9673,3
19034863466313,1.2634103,8.925228,3.9146578,3
19034865845479,1.3112668,8.9108715,3.8955152,3
19034868224698,1.2777673,8.891729,3.9577286,3
19034870603865,1.2586247,8.886943,4.048656,3
19034872983084,1.1485549,8.872586,4.15394,3
19034875362250,1.0480564,8.906086,4.2017965,3
19034877741469,0.9284152,8.9348,4.2017965,3
19034880120636,0.8039884,8.939586,4.1874394,3
19034882499854,0.6843473,8.930014,4.173083,3
19034884879021,0.57427746,8.920443,4.2592244,3
19034887258240,0.5312066,8.882157,4.3645086,3
19034889637407,0.4642076,8.867801,4.426722,3
19034892016625,0.4642076,8.863015,4.412365,3
19034894395792,0.46899325,8.85823,4.3788652,3
19034896775011,0.52163535,8.848659,4.3405805,3
19034899154177,0.59342,8.848659,4.3070807,3
19034901533396,0.6987042,8.877372,4.287938,3
19034903912563,0.8470592,8.9108715,4.278367,3
19034906291782,0.9810573,8.953942,4.2687955,3
19034908670948,1.1294123,8.987442,4.249653,3
19034911050167,1.3208381,9.016156,4.211368,3
19034913429334,1.4644074,9.025727,4.173083,3
19034915808552,1.6079768,9.040084,4.1108694,3
19034918187719,1.6797615,9.044869,4.0151563,3
19034920566938,1.7515461,9.044869,3.9290147,3
19034922946104,1.7563318,9.035298,3.8955152,3
19034925325323,1.7371893,8.987442,3.9146578,3
19034927704490,1.6749759,9.016156,3.9720855,3
19034930083709,1.5409778,9.059227,3.9960139,3
19034932462875,1.402194,9.049655,3.9625144,3
19034934842094,1.282553,9.006584,3.885944,3
19034937221261,1.119841,8.963513,3.8333018,3
19034939600479,0.9236295,8.939586,4.115655,3
19034941979646,0.8422736,8.810373,4.436293,3
19034944358865,0.7369894,8.939586,4.4745784,3
19034946738032,0.66999036,9.164511,4.0773697,3
19034949117250,0.7513463,9.221938,3.5365918,3
19034951496417,0.8135597,9.169296,3.211168,3
19034953875584,0.85184485,9.131011,3.3499517,3
19034956254802,0.98584294,9.073584,3.8333018,3
19034958634021,1.1485549,8.9826565,4.3405805,3
19034961013188,1.2873386,9.025727,4.4889355,3
19034963392407,1.3782659,9.078369,4.331009,3
19034965771573,1.5266209,9.0544405,3.9816568,3
19034968150792,1.5840486,9.073584,3.7567315,3
19034970529959,1.5936198,9.078369,3.7854455,3
19034972909177,1.6319051,9.064013,4.082155,3
19034975288344,1.6127625,9.092726,4.4841495,3
19034977667563,1.4787644,9.030513,4.6468616,3
19034980046729,1.3160524,8.949157,4.6085763,3
19034982425948,1.0145568,8.853444,4.479364,3
19034984805115,0.72263247,8.810373,4.4315076,3
19034987184334,0.40677986,8.886943,4.493721,3
19034989563500,0.17706887,8.939586,4.5128636,3
19034991942719,-0.1052842,8.977871,4.4602213,3
19034994321886,-0.24885355,8.930014,4.3740797,3
19034996701104,-0.33020952,8.9108715,4.302295,3
19034999080271,-0.32063824,8.944371,4.254439,3
19035001459490,-0.19621146,8.920443,4.173083,3
19035003838657,0.009571291,8.939586,4.0965123,3
19035006217875,0.2440679,8.930014,4.0390844,3
19035008597042,0.4977071,8.9108715,4.0438704,3
19035010976261,0.7800602,8.867801,4.0869412,3
19035013355427,1.0145568,8.877372,4.0869412,3
19035015734646,1.2059826,8.872586,4.082155,3
19035018113813,1.3399807,8.853444,4.0677986,3
19035020493032,1.3830515,8.896515,4.0151563,3
19035022872198,1.3734802,8.949157,4.0103707,3
19035025251417,1.3064811,8.963513,4.024728,3
19035027630584,1.1581261,8.949157,4.0103707,3
19035030009802,0.9379865,8.944371,4.034299,3
19035032388969,0.7513463,8.968299,4.024728,3
19035034768188,0.53599226,8.992228,3.9768713,3
19035037147354,0.31106696,8.997013,3.900301,3
19035039526521,0.10049855,9.001799,3.8572302,3
19035041905740,-0.062213387,8.987442,3.8380876,3
19035044284959,-0.15792629,8.968299,3.8811584,3
19035046664125,-0.22971097,8.968299,3.952943,3
19035049043344,-0.21535404,8.925228,3.9960139,3
19035051422511,-0.17228323,8.9013,3.9673,3
19035053801729,-0.043070808,8.915657,3.9290147,3
19035056180896,0.1052842,8.896515,3.900301,3
19035058560063,0.32063824,8.877372,3.885944,3
19035060939282,0.55513483,8.863015,3.9050865,3
19035063318500,0.79441714,8.85823,3.9290147,3
19035065697667,1.0432707,8.867801,3.9481573,3
19035068076834,1.2251252,8.82473,3.9481573,3
19035070456052,1.3782659,8.819944,3.938586,3
19035072835219,1.4548361,8.805588,3.9242291,3
19035075214438,1.4644074,8.815159,3.9768713,3
19035077593657,1.416551,8.819944,4.0295134,3
19035079972823,1.3256238,8.843872,4.072584,3
19035082351990,1.18684,8.877372,4.0869412,3
19035084731209,1.0097711,8.906086,4.0773697,3
19035087110375,0.8470592,8.939586,4.063013,3
19035089489594,0.6843473,8.987442,4.0677986,3
19035091868813,0.51206404,9.016156,4.0965123,3
19035094247979,0.3924229,9.001799,4.115655,3
19035096627146,0.33499518,8.992228,4.1347976,3
19035099006365,0.3062813,8.997013,4.182654,3
19035101385532,0.31106696,9.016156,4.1874394,3
19035103764750,0.37328035,8.9826565,4.173083,3
19035106143917,0.4546363,8.958728,4.1587257,3
19035108523136,0.57427746,8.949157,4.173083,3
19035110902302,0.6987042,8.930014,4.2161536,3
19035113281521,0.81834537,8.925228,4.220939,3
19035115660688,0.8997013,8.891729,4.249653,3
19035118039907,0.9762716,8.882157,4.23051,3
19035120419073,1.0289137,8.9013,4.206582,3
19035122798292,1.0097711,8.9013,4.1874394,3
19035125177459,0.9523434,8.896515,4.211368,3
19035127556677,0.8470592,8.920443,4.240082,3
19035129935844,0.6939186,8.939586,4.278367,3
19035132315063,0.5168497,8.939586,4.2687955,3
19035134694229,0.35413775,8.958728,4.240082,3
19035137073448,0.18664017,9.006584,4.206582,3
19035139452615,0.05742774,9.01137,4.182654,3
19035141831834,-0.076570325,8.997013,4.173083,3
19035144211000,-0.16271193,9.020942,4.1587257,3
19035146590219,-0.22492532,9.049655,4.139583,3
19035148969386,-0.26799613,9.068798,4.115655,3
19035151348604,-0.2440679,9.08794,4.0869412,3
19035153727771,-0.20578274,9.12144,4.0677986,3
19035156106990,-0.15314065,9.135797,4.0390844,3
19035158486157,-0.076570325,9.15494,4.0103707,3
19035160865375,0.043070808,9.135797,4.005585,3
19035163244542,0.16271193,9.159725,3.9960139,3
19035165623761,0.3062813,9.164511,4.0007997,3
19035168002927,0.44027936,9.131011,3.9864426,3
19035170382146,0.6029913,9.111869,3.952943,3
19035172761313,0.7178468,9.111869,3.9290147,3
19035175140532,0.79441714,9.107083,3.9098723,3
19035177519698,0.8709874,9.092726,3.9098723,3
19035179898917,0.9092726,9.083155,3.9433718,3
19035182278084,0.9092726,9.030513,3.9673,3
19035184657302,0.8997013,9.040084,3.991228,3
19035187036469,0.8709874,9.025727,3.9960139,3
19035189415688,0.79441714,9.030513,3.9625144,3
19035191794854,0.7465607,9.020942,3.9481573,3
19035194174073,0.6987042,9.025727,3.9768713,3
19035196553240,0.6364908,9.016156,4.0390844,3
19035198932459,0.5886344,8.992228,4.115655,3
19035201311625,0.55513483,9.001799,4.1443686,3
19035203690844,0.55034924,9.020942,4.115655,3
19035206069959,0.5455636,8.992228,4.048656,3
19035208449229,0.57427746,8.992228,4.0103707,3
19035210828396,0.61734825,9.006584,4.019942,3
19035213207615,0.6843473,8.9826565,4.091727,3
19035215586782,0.7178468,8.977871,4.173083,3
19035217966000,0.7465607,8.953942,4.206582,3
19035220345167,0.7896315,8.949157,4.2017965,3
19035222724334,0.8422736,8.9826565,4.168297,3
19035225103552,0.86141616,8.973084,4.130012,3
19035227482771,0.9092726,8.958728,4.125226,3
19035229861938,0.91405827,8.973084,4.139583,3
19035232241157,0.91405827,8.968299,4.1874394,3
19035234620323,0.8853444,8.973084,4.2017965,3
19035236999542,0.8662018,8.944371,4.182654,3
19035239378709,0.83748794,8.930014,4.1635113,3
19035241757927,0.8135597,8.930014,4.1204405,3
19035244137094,0.79441714,8.906086,4.0965123,3
19035246516313,0.7848458,8.925228,4.0965123,3
19035248895479,0.7704889,8.9108715,4.1108694,3
19035251274698,0.7513463,8.891729,4.115655,3
19035253653865,0.7513463,8.886943,4.0869412,3
19035256033084,0.76570326,8.915657,4.0390844,3
19035258412250,0.7896315,8.930014,3.9625144,3
19035260791469,0.82313097,8.915657,3.9290147,3
19035263170636,0.80877405,8.939586,3.9050865,3
19035265549802,0.8470592,8.944371,3.938586,3
19035267929021,0.8566305,8.949157,4.005585,3
19035270308188,0.8327023,8.949157,4.0103707,3
19035272687407,0.8422736,8.968299,3.991228,3
19035275066625,0.79920274,8.992228,3.9481573,3
19035277445792,0.7848458,8.987442,3.9146578,3
19035279824959,0.7704889,8.997013,3.900301,3
19035282204177,0.7465607,8.992228,3.9433718,3
19035284583344,0.6891329,9.01137,3.991228,3
19035286962563,0.6843473,9.016156,4.0390844,3
19035289341729,0.6652047,9.016156,4.0390844,3
19035291720948,0.67477596,9.035298,4.0151563,3
19035294100115,0.65084773,9.020942,3.9864426,3
19035296479334,0.6939186,8.9826565,3.9625144,3
19035298858500,0.7082755,9.030513,4.058227,3
19035301237719,0.75613195,9.025727,4.1587257,3
19035303616886,0.7752745,8.973084,4.173083,3
19035305996104,0.7752745,8.949157,4.1443686,3
19035308375271,0.82313097,8.9826565,4.058227,3
19035310754490,0.85184485,8.958728,3.9960139,3
19035313133657,0.8662018,8.949157,3.9625144,3
19035315512875,0.85184485,8.977871,4.019942,3
19035317892042,0.8327023,8.963513,4.1204405,3
19035320271261,0.80877405,8.939586,4.168297,3
19035322650427,0.7800602,8.968299,4.1443686,3
19035325029646,0.7609176,9.020942,4.0773697,3
19035327408813,0.7322037,9.006584,4.0103707,3
19035329788032,0.6891329,8.997013,3.9960139,3
19035332167198,0.66041905,9.020942,4.0534415,3
19035334546417,0.6364908,9.006584,4.130012,3
19035336925584,0.65084773,8.939586,4.197011,3
19035339304750,0.6221339,8.915657,4.197011,3
19035341683969,0.57906306,8.963513,4.1108694,3
19035344063188,0.5838487,8.987442,4.0151563,3
19035346442354,0.6029913,8.987442,3.938586,3
19035348821573,0.5886344,9.030513,3.9242291,3
19035351200740,0.5838487,9.035298,3.9720855,3
19035353579959,0.6029913,9.01137,4.024728,3
19035355959125,0.64606214,9.016156,4.0438704,3
19035358338344,0.6556334,9.035298,4.0103707,3
19035360717511,0.6556334,9.01137,3.9338005,3
19035363096729,0.6556334,9.006584,3.885944,3
19035365475896,0.6556334,9.044869,3.8333018,3
19035367855063,0.6269195,9.049655,3.8620157,3
19035370234282,0.6412765,9.006584,3.9577286,3
19035372613500,0.52163535,9.020942,4.0390844,3
19035374992667,0.44985065,9.01137,4.072584,3
19035377371886,0.39720857,8.992228,4.0103707,3
19035379751052,0.34456646,9.025727,3.9098723,3
19035382130271,0.29671,9.0544405,3.8620157,3
19035384509438,0.29192436,9.016156,3.871587,3
19035386888604,0.25842485,8.9826565,3.9816568,3
19035389267823,0.25842485,8.930014,4.106084,3
19035391646990,0.3062813,8.877372,4.15394,3
19035394026209,0.33020952,8.85823,4.1443686,3
19035396405375,0.3397808,8.872586,4.101298,3
19035398784594,0.4019942,8.872586,4.106084,3
19035401163761,0.44027936,8.834301,4.168297,3
19035403542979,0.5168497,8.786445,4.249653,3
19035405922146,0.5982057,8.772088,4.345366,3
19035408301365,0.67477596,8.815159,4.402794,3
19035410680532,0.72263247,8.877372,4.3932223,3
19035413059750,0.7752745,8.829515,4.2687955,3
19035415438917,0.8039884,8.867801,4.197011,3
19035417818136,0.8279166,8.968299,4.2687955,3
19035420197302,0.81834537,8.968299,4.3262234,3
19035422576521,0.7896315,8.925228,4.3357944,3
19035424955688,0.7513463,8.968299,4.302295,3
19035427334907,0.71306115,8.997013,4.287938,3
19035429714073,0.6891329,9.001799,4.345366,3
19035432093292,0.6364908,8.958728,4.469793,3
19035434472459,0.6125626,8.930014,4.4458647,3
19035436851677,0.6556334,8.992228,4.211368,3
19035439230844,0.60777694,9.08794,3.8811584,3
19035441610063,0.52163535,9.111869,3.6753755,3
19035443989229,0.5838487,9.126225,3.7854455,3
19035446368448,0.5024927,9.068798,4.091727,3
19035448747615,0.45942193,8.977871,4.23051,3
19035451126834,0.49292147,8.987442,4.139583,3
19035453506000,0.526421,9.092726,3.8811584,3
19035455885219,0.4977071,9.097511,3.6370904,3
19035458264386,0.55034924,9.083155,3.6275191,3
19035460643604,0.56470615,9.073584,3.8093736,3
19035463022771,0.5407779,9.049655,4.0295134,3
19035465401990,0.5312066,9.020942,4.1778684,3
19035467781157,0.53599226,8.977871,4.101298,3
19035470160375,0.51206404,9.030513,3.8668015,3
19035472539542,0.51206404,9.049655,3.67059,3
19035474918761,0.5694918,9.025727,3.5988052,3
19035477297927,0.5886344,9.0544405,3.7136607,3
19035479677146,0.60777694,8.987442,3.9242291,3
19035482056313,0.66041905,8.944371,4.1587257,3
19035484435532,0.6652047,9.068798,4.2592244,3
19035486814698,0.7465607,9.073584,4.082155,3
19035489193865,0.7800602,8.863015,3.7950168,3
19035491573084,0.7178468,8.834301,3.6753755,3
19035493952302,0.8039884,9.073584,3.9098723,3
19035496331469,0.80877405,8.997013,4.0773697,3
19035498710636,0.76570326,8.944371,4.2975097,3
19035501089854,0.7369894,8.944371,4.2687955,3
19035503469021,0.7752745,9.145369,4.197011,3
19035505848240,0.72741807,9.025727,3.8668015,3
19035508227407,0.64606214,9.030513,3.7710886,3
19035510606625,0.63170516,9.0544405,3.8668015,3
19035512985792,0.56470615,9.044869,4.024728,3
19035515365011,0.45942193,8.987442,4.082155,3
19035517744177,0.41156548,9.073584,4.0677986,3
19035520123396,0.40677986,9.116654,3.9816568,3
19035522502563,0.3924229,9.059227,3.8955152,3
19035524881782,0.38285163,9.030513,3.885944,3
19035527260948,0.3684947,9.035298,3.9050865,3
19035529640167,0.42592242,9.044869,3.9768713,3
19035532019334,0.46899325,9.044869,4.0390844,3
19035534398552,0.52163535,9.068798,4.082155,3
19035536777719,0.55034924,9.049655,4.058227,3
19035539156938,0.6412765,9.0544405,4.0390844,3
19035541536104,0.6987042,9.064013,4.0295134,3
19035543915323,0.72263247,9.044869,4.0438704,3
19035546294490,0.76570326,9.025727,4.0869412,3
19035548673709,0.8039884,8.997013,4.1347976,3
19035551052875,0.8135597,8.9826565,4.1874394,3
19035553432094,0.7704889,8.973084,4.173083,3
19035555811261,0.74177504,8.973084,4.130012,3
19035558190479,0.72741807,8.977871,4.0869412,3
19035560569646,0.6891329,8.968299,4.063013,3
19035562948865,0.66041905,8.949157,4.125226,3
19035565328032,0.6125626,8.920443,4.15394,3
19035567707198,0.61734825,8.939586,4.173083,3
19035570086417,0.61734825,8.963513,4.1778684,3
19035572465584,0.6125626,8.958728,4.1587257,3
19035574844802,0.5982057,8.968299,4.125226,3
19035577224021,0.6029913,8.958728,4.0677986,3
19035579603188,0.6364908,8.939586,4.048656,3
19035581982354,0.65084773,8.944371,4.082155,3
19035584361573,0.65084773,8.925228,4.091727,3
19035586740740,0.65084773,8.930014,4.1108694,3
19035589119959,0.65084773,8.925228,4.0773697,3
19035591499125,0.6652047,8.953942,4.0007997,3
19035593878344,0.6652047,8.973084,3.952943,3
19035596257511,0.70348984,8.997013,3.9194436,3
19035598636729,0.72741807,8.997013,3.9433718,3
19035601015896,0.7465607,8.977871,3.9960139,3
19035603395115,0.7800602,8.997013,4.0534415,3
19035605774282,0.79441714,9.001799,4.0869412,3
19035608153500,0.82313097,8.997013,4.072584,3
19035610532667,0.8757731,9.016156,4.024728,3
19035612911886,0.89491564,9.025727,4.0151563,3
19035615291052,0.89013004,8.997013,4.0295134,3
19035617670271,0.8757731,8.997013,4.106084,3
19035620049438,0.8327023,9.01137,4.173083,3
19035622428657,0.7848458,8.963513,4.182654,3
19035624807823,0.7369894,8.963513,4.125226,3
19035627187042,0.7082755,8.987442,4.072584,3
19035629566209,0.70348984,8.973084,3.9816568,3
19035631945427,0.6795616,8.944371,3.9194436,3
19035634324594,0.6891329,8.968299,3.9481573,3
19035636703813,0.66999036,8.973084,3.9960139,3
19035639082979,0.6891329,8.973084,4.034299,3
19035641462198,0.6987042,8.963513,4.034299,3
19035643841365,0.7465607,8.987442,4.034299,3
19035646220584,0.7752745,9.030513,4.019942,3
19035648599750,0.7848458,9.030513,4.0007997,3
19035650978917,0.82313097,9.049655,3.9960139,3
19035653358136,0.8470592,9.049655,4.0390844,3
19035655737302,0.85184485,9.0544405,4.0677986,3
19035658116521,0.8327023,9.030513,4.0773697,3
19035660495688,0.8039884,9.01137,4.0677986,3
19035662874907,0.7465607,8.9826565,4.063013,3
19035665254073,0.72263247,8.939586,4.019942,3
19035667633292,0.6652047,8.9348,4.0007997,3
19035670012459,0.6364908,8.9348,4.0295134,3
19035672391677,0.5886344,8.891729,4.0773697,3
19035674770844,0.59342,8.882157,4.0965123,3
19035677150063,0.5599205,8.9013,4.0965123,3
19035679529229,0.57427746,8.915657,4.091727,3
19035681908448,0.59342,8.9348,4.0869412,3
19035684287615,0.5982057,8.930014,4.139583,3
19035686666834,0.5886344,8.915657,4.173083,3
19035689046000,0.5886344,8.891729,4.240082,3
19035691425219,0.5694918,8.896515,4.2687955,3
19035693804386,0.51206404,8.882157,4.2448673,3
19035696183552,0.47377887,8.877372,4.2161536,3
19035698562771,0.44027936,8.9013,4.2161536,3
19035700941990,0.4019942,8.920443,4.23051,3
19035703321157,0.36370903,8.906086,4.249653,3
19035705700375,0.32542387,8.877372,4.2831526,3
19035708079542,0.26799613,8.848659,4.3645086,3
19035710458709,0.20578274,8.872586,4.5320063,3
19035712837927,0.19621146,8.867801,4.5942197,3
19035715217146,0.17706887,8.843872,4.316652,3
19035717596261,0.22492532,8.973084,3.900301,3
19035719975479,0.24885355,9.126225,3.6323047,3
19035722354698,0.30149564,9.126225,3.6227336,3
19035724733865,0.37806597,9.097511,3.8907297,3
19035727113084,0.38763726,9.035298,4.2687955,3
19035729492250,0.49292147,8.963513,4.479364,3
19035731871469,0.57906306,9.01137,4.3740797,3
19035734250636,0.6221339,9.102298,4.048656,3
19035736629854,0.6556334,9.083155,3.751946,3
19035739009021,0.71306115,9.068798,3.7184465,3
19035741388240,0.7178468,9.073584,3.938586,3
19035743767407,0.6843473,9.040084,4.2448673,3
19035746146625,0.66999036,8.992228,4.4554358,3
19035748525792,0.6556334,9.001799,4.398008,3
19035750905011,0.6891329,9.006584,4.125226,3
19035753284177,0.72741807,9.016156,3.8141594,3
19035755663396,0.7704889,9.001799,3.6610186,3
19035758042563,0.80877405,8.973084,3.7710886,3
19035760421782,0.81834537,8.915657,4.024728,3
19035762800948,0.8135597,8.85823,4.1922255,3
19035765180167,0.79441714,8.863015,4.1874394,3
19035767559334,0.7465607,8.925228,4.0151563,3
19035769938552,0.6891329,8.949157,3.7663028,3
19035772317719,0.6269195,8.977871,3.6514473,3
19035774696938,0.56470615,9.016156,3.7088752,3
19035777076104,0.51206404,9.030513,3.8907297,3
19035779455323,0.46899325,9.049655,4.082155,3
19035781834490,0.46899325,9.073584,4.2017965,3
19035784213657,0.47856453,9.102298,4.115655,3
19035786592875,0.526421,9.111869,3.9577286,3
19035788972042,0.55034924,9.111869,3.8237305,3
19035791351261,0.6125626,9.102298,3.842873,3
19035793730427,0.6412765,9.078369,3.9816568,3
19035796109646,0.6652047,9.025727,4.1635113,3
19035798488813,0.6843473,8.9826565,4.278367,3
19035800868032,0.75613195,8.968299,4.2592244,3
19035803247198,0.80877405,8.963513,4.130012,3
19035805626417,0.89491564,8.968299,3.991228,3
19035808005584,0.94755775,8.963513,3.9338005,3
19035810384802,0.9810573,8.953942,3.9673,3
19035812763969,0.9906286,8.953942,4.063013,3
19035815143188,1.0097711,8.949157,4.1778684,3
19035817522354,1.0241281,8.939586,4.1922255,3
19035819901573,0.9810573,8.953942,4.101298,3
19035822280740,0.94277215,8.973084,4.0151563,3
19035824659959,0.8805587,8.968299,3.9720855,3
19035827039125,0.7848458,8.973084,4.0151563,3
19035829418344,0.66999036,8.9826565,4.115655,3
19035831797511,0.59342,8.973084,4.197011,3
19035834176677,0.52163535,8.953942,4.2161536,3
19035836555896,0.4642076,8.953942,4.1443686,3
19035838935115,0.44027936,8.949157,4.019942,3
19035841314282,0.44027936,8.977871,3.9433718,3
19035843693448,0.44985065,8.992228,3.9290147,3
19035846072667,0.4881358,8.997013,3.9673,3
19035848451834,0.52163535,9.006584,4.0295134,3
19035850831052,0.57427746,9.006584,4.063013,3
19035853210219,0.6221339,8.987442,4.072584,3
19035855589438,0.6987042,9.020942,4.024728,3
19035857968604,0.75613195,9.035298,3.9768713,3
19035860347823,0.81834537,9.030513,3.938586,3
19035862726990,0.8470592,9.035298,3.9625144,3
19035865106209,0.8470592,9.016156,4.005585,3
19035867485375,0.86141616,8.997013,4.048656,3
19035869864594,0.85184485,9.001799,4.048656,3
19035872243761,0.8327023,8.997013,4.0151563,3
19035874622979,0.8135597,8.977871,3.9768713,3
19035877002146,0.7848458,8.997013,3.9481573,3
19035879381365,0.7178468,9.01137,3.9673,3
19035881760532,0.6652047,9.006584,4.0007997,3
19035884139698,0.59342,8.997013,4.072584,3
19035886518917,0.53599226,8.9826565,4.0965123,3
19035888898136,0.4977071,9.001799,4.0677986,3
19035891277302,0.45942193,9.006584,4.0295134,3
19035893656521,0.4546363,9.01137,4.0103707,3
19035896035688,0.47377887,9.01137,4.0103707,3
19035898414854,0.45942193,9.030513,4.034299,3
19035900794073,0.4833502,9.006584,4.0869412,3
19035903173240,0.5455636,8.992228,4.1108694,3
19035905552459,0.5886344,9.001799,4.115655,3
19035907931625,0.6556334,9.006584,4.091727,3
19035910310844,0.6987042,9.030513,4.091727,3
19035912690011,0.7465607,9.040084,4.063013,3
19035915069229,0.7848458,9.030513,4.063013,3
19035917448396,0.82313097,9.025727,4.0773697,3
19035919827563,0.8470592,9.006584,4.072584,3
19035922206782,0.8709874,9.049655,4.0677986,3
19035924586000,0.8757731,9.059227,4.0151563,3
19035926965167,0.8853444,9.083155,3.9864426,3
19035929344386,0.8709874,9.073584,3.9864426,3
19035931723552,0.8757731,9.092726,3.9673,3
19035934102771,0.8757731,9.102298,3.991228,3
19035936481938,0.8709874,9.107083,4.005585,3
19035938861157,0.89013004,9.107083,4.0151563,3
19035941240323,0.8853444,9.107083,4.0007997,3
19035943619542,0.8853444,9.068798,3.991228,3
19035945998709,0.8757731,9.078369,3.9768713,3
19035948377927,0.86141616,9.068798,3.9864426,3
19035950757094,0.83748794,9.035298,4.005585,3
19035953136313,0.82313097,9.044869,4.019942,3
19035955515479,0.7704889,9.044869,4.0390844,3
19035957894646,0.74177504,9.035298,4.0103707,3
19035960273865,0.6939186,9.030513,3.991228,3
19035962653032,0.6221339,9.0544405,3.9673,3
19035965032250,0.6029913,9.044869,3.952943,3
19035967411417,0.5455636,9.020942,3.9625144,3
19035969790636,0.52163535,9.035298,4.005585,3
19035972169802,0.49292147,9.035298,4.0390844,3
19035974549021,0.4546363,9.01137,4.034299,3
19035976928188,0.40677986,9.035298,4.024728,3
19035979307407,0.39720857,9.01137,4.0295134,3
19035981686573,0.3924229,8.977871,4.034299,3
19035984065792,0.39720857,8.973084,4.0534415,3
19035986444959,0.41635114,8.953942,4.082155,3
19035988824177,0.43070808,8.958728,4.0677986,3
19035991203344,0.47377887,8.953942,4.0773697,3
19035993582563,0.46899325,8.944371,4.0677986,3
19035995961729,0.51206404,8.939586,4.0773697,3
19035998340948,0.5694918,8.9348,4.0965123,3
19036000720115,0.57427746,8.920443,4.115655,3
19036003099334,0.59342,8.9013,4.1443686,3
19036005478500,0.63170516,8.925228,4.173083,3
19036007857719,0.64606214,8.906086,4.182654,3
19036010236886,0.6652047,8.9108715,4.1874394,3
19036012616104,0.66999036,8.9013,4.182654,3
19036014995271,0.66999036,8.886943,4.206582,3
19036017374438,0.6891329,8.882157,4.197011,3
19036019753657,0.6987042,8.843872,4.211368,3
19036022132823,0.7082755,8.829515,4.2017965,3
19036024512042,0.72263247,8.829515,4.2017965,3
19036026891209,0.74177504,8.82473,4.1778684,3
19036029270427,0.7752745,8.815159,4.15394,3
19036031649594,0.7896315,8.805588,4.1204405,3
19036034028813,0.8422736,8.805588,4.101298,3
19036036407979,0.8853444,8.819944,4.101298,3
19036038787146,0.94277215,8.815159,4.0677986,3
19036041166365,0.971486,8.805588,4.0390844,3
19036043545584,1.0097711,8.834301,4.0295134,3
19036045924750,1.038485,8.834301,4.0103707,3
19036048303969,1.0097711,8.843872,3.9864426,3
19036050683136,1.0145568,8.867801,3.9768713,3
19036053062354,1.0097711,8.896515,3.9720855,3
19036055441521,0.9762716,8.891729,3.9433718,3
19036057820688,0.9523434,8.925228,3.938586,3
19036060199907,0.9092726,8.958728,3.9050865,3
19036062579073,0.8566305,8.968299,3.8907297,3
19036064958292,0.8279166,9.001799,3.8763726,3
19036067337459,0.7752745,8.992228,3.8955152,3
19036069716677,0.74177504,9.006584,3.9050865,3
19036072095844,0.7178468,9.040084,3.8955152,3
19036074475063,0.66999036,9.068798,3.9098723,3
19036076854229,0.6412765,9.040084,3.9194436,3
19036079233448,0.63170516,9.035298,3.9242291,3
19036081612615,0.64606214,9.044869,3.9290147,3
19036083991834,0.65084773,9.030513,3.9625144,3
19036086371000,0.66041905,9.020942,3.9816568,3
19036088750219,0.66041905,9.044869,3.991228,3
19036091129386,0.67477596,9.030513,4.019942,3
19036093508604,0.6891329,9.016156,4.034299,3
19036095887771,0.6891329,9.016156,4.0438704,3
19036098266990,0.6843473,9.020942,4.063013,3
19036100646157,0.6556334,9.025727,4.091727,3
19036103025375,0.6364908,9.001799,4.0965123,3
19036105404542,0.6125626,8.977871,4.125226,3
19036107783761,0.5694918,8.973084,4.139583,3
19036110162927,0.53599226,8.939586,4.1443686,3
19036112542094,0.49292147,8.949157,4.15394,3
19036114921313,0.4546363,8.944371,4.1635113,3
19036117300479,0.38763726,8.949157,4.15394,3
19036119679698,0.36370903,8.949157,4.168297,3
19036122058865,0.3684947,8.958728,4.1874394,3
19036124438084,0.36370903,8.968299,4.182654,3
19036126817250,0.38763726,8.968299,4.168297,3
19036129196469,0.4211368,8.992228,4.15394,3
19036131575636,0.4546363,8.997013,4.125226,3
19036133954854,0.5312066,9.001799,4.106084,3
19036136334021,0.6125626,8.977871,4.1204405,3
19036138713240,0.6843473,8.992228,4.15394,3
19036141092407,0.75613195,8.992228,4.173083,3
19036143471625,0.8039884,9.001799,4.168297,3
19036145850792,0.8662018,9.016156,4.130012,3
19036148230011,0.9284152,9.040084,4.1347976,3
19036150609177,0.95712906,9.044869,4.101298,3
19036152988396,0.9619147,9.040084,4.106084,3
19036155367563,0.9906286,9.049655,4.101298,3
19036157746729,0.94755775,9.035298,4.101298,3
19036160125948,0.8853444,9.049655,4.125226,3
19036162505115,0.83748794,9.040084,4.091727,3
19036164884334,0.7800602,9.044869,4.0773697,3
19036167263500,0.7082755,9.035298,4.0677986,3
19036169642719,0.6652047,9.006584,4.058227,3
19036172021886,0.61734825,9.020942,4.034299,3
19036174401104,0.5694918,9.020942,4.063013,3
19036176780271,0.526421,9.025727,4.063013,3
19036179159490,0.5312066,9.020942,4.058227,3
19036181538657,0.55513483,9.016156,4.048656,3
19036183917875,0.57427746,9.020942,4.019942,3
19036186297042,0.6364908,9.020942,4.019942,3
19036188676261,0.7082755,9.01137,4.024728,3
19036191055427,0.7609176,8.992228,4.0295134,3
19036193434594,0.8279166,8.987442,4.0438704,3
19036195813813,0.8805587,8.977871,4.034299,3
19036198192979,0.91405827,8.973084,4.0151563,3
19036200572146,0.9619147,8.992228,3.9864426,3
19036202951365,0.971486,8.973084,3.9768713,3
19036205330584,0.95712906,8.977871,4.0007997,3
19036207709750,0.9762716,8.977871,4.005585,3
19036210088969,0.9667004,8.958728,4.019942,3
19036212468136,0.9236295,8.958728,4.019942,3
19036214847354,0.91405827,8.968299,4.0151563,3
19036217226521,0.8853444,8.949157,4.019942,3
19036219605740,0.8327023,8.953942,4.0295134,3
19036221984907,0.8039884,8.939586,4.024728,3
19036224364125,0.80877405,8.953942,4.0295134,3
19036226743292,0.7752745,8.963513,4.048656,3
19036229122511,0.75613195,8.953942,4.072584,3
19036231501677,0.7322037,8.944371,4.072584,3
19036233880896,0.7465607,8.920443,4.0677986,3
19036236260063,0.7369894,8.906086,4.063013,3
19036238639282,0.74177504,8.891729,4.058227,3
19036241018448,0.7704889,8.896515,4.0534415,3
19036243397667,0.7513463,8.872586,4.0534415,3
19036245776834,0.72741807,8.872586,4.034299,3
19036248156000,0.71306115,8.872586,4.019942,3
19036250535219,0.6987042,8.886943,4.0103707,3
19036252914386,0.6364908,8.877372,4.034299,3
19036255293604,0.64606214,8.891729,4.034299,3
19036257672771,0.63170516,8.877372,4.0295134,3
19036260051990,0.6029913,8.906086,4.019942,3
19036262431157,0.5838487,8.9108715,4.0151563,3
19036264810375,0.5599205,8.9108715,4.005585,3
19036267189542,0.5599205,8.9108715,4.005585,3
19036269568761,0.5407779,8.9348,4.019942,3
19036271947927,0.53599226,8.944371,4.019942,3
19036274327146,0.5455636,8.953942,4.005585,3
19036276706313,0.56470615,8.958728,4.019942,3
19036279085532,0.57427746,8.958728,4.0103707,3
19036281464698,0.6125626,8.968299,4.0103707,3
19036283843917,0.6221339,8.920443,4.005585,3
19036286223084,0.6556334,8.939586,4.0151563,3
19036288602250,0.6939186,8.963513,4.034299,3
19036290981469,0.72741807,8.977871,4.019942,3
19036293360636,0.74177504,9.006584,4.024728,3
19036295739854,0.74177504,8.987442,4.0295134,3
19036298119021,0.7704889,9.01137,4.0390844,3
19036300498240,0.76570326,8.992228,4.0390844,3
19036302877407,0.7609176,8.963513,4.0295134,3
19036305256625,0.75613195,8.992228,4.0295134,3
19036307635792,0.72263247,8.977871,4.0534415,3
19036310015011,0.66999036,8.992228,4.0677986,3
19036312394177,0.67477596,9.01137,4.106084,3
19036314773396,0.6364908,9.035298,4.0965123,3
19036317152563,0.6125626,9.030513,4.115655,3
19036319531782,0.56470615,9.025727,4.1108694,3
19036321910948,0.5455636,9.025727,4.130012,3
19036324290167,0.5312066,9.020942,4.1491547,3
19036326669334,0.51206404,9.020942,4.1443686,3
19036329048500,0.5168497,9.030513,4.1587257,3
19036331427719,0.53599226,9.030513,4.15394,3
19036333806886,0.55513483,9.001799,4.15394,3
19036336186104,0.5599205,8.9826565,4.15394,3
19036338565271,0.5838487,9.006584,4.130012,3
19036340944490,0.6029913,8.997013,4.1204405,3
19036343323657,0.6029913,9.001799,4.130012,3
19036345702875,0.60777694,9.001799,4.139583,3
19036348082042,0.61734825,8.997013,4.1108694,3
19036350461261,0.60777694,9.001799,4.1204405,3
19036352840427,0.5982057,9.016156,4.1204405,3
19036355219646,0.59342,9.030513,4.0965123,3
19036357598813,0.5982057,9.025727,4.0869412,3
19036359978032,0.56470615,9.035298,4.101298,3
19036362357198,0.52163535,9.020942,4.101298,3
19036364736417,0.5024927,9.040084,4.0869412,3
19036367115584,0.46899325,9.059227,4.0438704,3
19036369494750,0.44506502,9.064013,4.0438704,3
19036371873969,0.4354937,9.059227,4.019942,3
19036374253136,0.4211368,9.068798,3.9960139,3
19036376632354,0.4211368,9.092726,4.0151563,3
19036379011521,0.42592242,9.08794,4.019942,3
19036381390740,0.42592242,9.073584,3.9864426,3
19036383769907,0.4642076,9.083155,3.9960139,3
19036386149125,0.4881358,9.097511,4.005585,3
19036388528292,0.5312066,9.102298,4.0007997,3
19036390907511,0.55034924,9.073584,4.0007997,3
19036393286677,0.57427746,9.059227,4.005585,3
19036395665896,0.61734825,9.040084,4.019942,3
19036398045063,0.6652047,9.020942,4.0390844,3
19036400424282,0.6364908,9.006584,4.048656,3
19036402803448,0.66999036,9.016156,4.0534415,3
19036405182667,0.64606214,9.016156,4.034299,3
19036407561834,0.6125626,9.006584,4.0390844,3
19036409941052,0.61734825,8.987442,4.048656,3
19036412320219,0.56470615,8.9826565,4.058227,3
19036414699386,0.5312066,8.958728,4.0677986,3
19036417078604,0.4977071,8.939586,4.0773697,3
19036419457771,0.5072784,8.939586,4.0773697,3
19036421836990,0.47856453,8.953942,4.082155,3
19036424216157,0.47377887,8.920443,4.091727,3
19036426595375,0.4642076,8.925228,4.091727,3
19036428974542,0.4833502,8.896515,4.082155,3
19036431353761,0.52163535,8.9108715,4.0773697,3
19036433732927,0.5407779,8.944371,4.0869412,3
19036436112146,0.5886344,8.9108715,4.072584,3
19036438491313,0.6221339,8.915657,4.0438704,3
19036440870532,0.66999036,8.944371,4.0534415,3
19036443249698,0.7178468,8.925228,4.0390844,3
19036445628917,0.7465607,8.920443,4.0295134,3
19036448008084,0.7609176,8.920443,4.0438704,3
19036450387302,0.7800602,8.930014,4.0534415,3
19036452766469,0.80877405,8.930014,4.058227,3
19036455145636,0.81834537,8.939586,4.058227,3
19036457524854,0.80877405,8.963513,4.0534415,3
19036459904021,0.7848458,8.973084,4.0534415,3
19036462283240,0.7752745,8.977871,4.0534415,3
19036464662407,0.7513463,8.977871,4.0677986,3
19036467041625,0.71306115,8.958728,4.0677986,3
19036469420792,0.64606214,8.968299,4.072584,3
19036471800011,0.6412765,8.963513,4.0869412,3
19036474179177,0.61734825,8.992228,4.0869412,3
19036476558396,0.65084773,8.9826565,4.0965123,3
19036478937563,0.60777694,8.992228,4.1108694,3
19036481316782,0.61734825,8.997013,4.0965123,3
19036483695948,0.6412765,9.01137,4.082155,3
19036486075167,0.70348984,8.987442,4.082155,3
19036488454334,0.72741807,8.973084,4.091727,3
19036490833500,0.75613195,8.977871,4.0773697,3
19036493212719,0.8039884,8.973084,4.0534415,3
19036495591886,0.82313097,8.953942,4.063013,3
19036497971104,0.8327023,8.973084,4.0773697,3
19036500350271,0.89013004,8.963513,4.0773697,3
19036502729490,0.8805587,8.992228,4.0869412,3
19036505108657,0.86141616,8.987442,4.0869412,3
19036507487875,0.8470592,9.001799,4.101298,3
19036509867042,0.83748794,8.968299,4.082155,3
19036512246261,0.79920274,8.987442,4.0965123,3
19036514625427,0.7609176,8.977871,4.0773697,3
19036517004646,0.72741807,9.01137,4.0869412,3
19036519383813,0.71306115,9.001799,4.091727,3
19036521763032,0.6891329,9.016156,4.101298,3
19036524142198,0.6891329,9.001799,4.091727,3
19036526521417,0.6652047,9.016156,4.0677986,3
19036528900584,0.6795616,8.987442,4.0534415,3
19036531279750,0.71306115,8.987442,4.034299,3
19036533658969,0.7082755,8.992228,4.024728,3
19036536038136,0.7369894,8.992228,4.0103707,3
19036538417354,0.7609176,9.01137,4.0103707,3
19036540796521,0.7800602,9.01137,4.0007997,3
19036543175740,0.8039884,9.001799,3.9673,3
19036545554907,0.85184485,9.001799,3.952943,3
19036547934125,0.8470592,9.01137,3.9625144,3
19036550313292,0.8566305,9.006584,3.9625144,3
19036552692511,0.8422736,9.016156,3.991228,3
19036555071677,0.8135597,9.001799,3.9864426,3
19036557450896,0.7800602,8.997013,3.9960139,3
19036559830063,0.7609176,9.030513,4.0151563,3
19036562209282,0.71306115,9.025727,4.0438704,3
19036564588448,0.67477596,9.025727,4.048656,3
19036566967667,0.63170516,9.025727,4.058227,3
19036569346834,0.5838487,9.001799,4.0773697,3
19036571726000,0.5455636,9.001799,4.091727,3
19036574105219,0.53599226,9.006584,4.0869412,3
19036576484386,0.5312066,8.997013,4.0677986,3
19036578863604,0.51206404,8.997013,4.0677986,3
19036581242771,0.526421,9.01137,4.063013,3
19036583621990,0.57427746,9.006584,4.0534415,3
19036586001157,0.5694918,8.997013,4.082155,3
19036588380375,0.6029913,8.977871,4.063013,3
19036590759542,0.66041905,8.968299,4.0677986,3
19036593138761,0.6795616,8.973084,4.072584,3
19036595517927,0.71306115,8.958728,4.0677986,3
19036597897146,0.7465607,8.968299,4.0677986,3
19036600276313,0.7752745,8.958728,4.0438704,3
19036602655479,0.75613195,8.973084,4.058227,3
19036605034646,0.7513463,8.987442,4.0677986,3
19036607413917,0.74177504,8.968299,4.0677986,3
19036609793084,0.6939186,8.963513,4.072584,3
19036612172250,0.6652047,8.958728,4.0773697,3
19036614551469,0.64606214,8.968299,4.0869412,3
19036616930636,0.6125626,8.973084,4.0773697,3
19036619309854,0.5694918,8.963513,4.082155,3
19036621689021,0.55513483,8.963513,4.058227,3
19036624068240,0.526421,8.953942,4.0438704,3
19036626447407,0.52163535,8.949157,4.058227,3
19036628826625,0.5312066,8.953942,4.063013,3
19036631205792,0.5312066,8.939586,4.048656,3
19036633585011,0.5455636,8.953942,4.034299,3
19036635964177,0.57906306,8.958728,4.019942,3
19036638343344,0.5982057,8.973084,4.019942,3
19036640722563,0.64606214,8.9826565,4.024728,3
19036643101782,0.6652047,8.9826565,4.019942,3
19036645480948,0.6891329,8.973084,4.0151563,3
19036647860115,0.7178468,8.987442,4.0103707,3
19036650239334,0.71306115,8.992228,4.0151563,3
19036652618500,0.72263247,8.987442,4.0390844,3
19036654997719,0.71306115,9.006584,4.048656,3
19036657376886,0.6987042,9.016156,4.063013,3
19036659756104,0.6795616,9.020942,4.072584,3
19036662135271,0.65084773,8.997013,4.0773697,3
19036664514490,0.6029913,9.001799,4.072584,3
19036666893657,0.5599205,9.001799,4.058227,3
19036669272875,0.5455636,8.973084,4.0390844,3
19036671652042,0.52163535,8.949157,4.063013,3
19036674031261,0.4881358,8.944371,4.063013,3
19036676410427,0.47377887,8.930014,4.063013,3
19036678789646,0.45942193,8.939586,4.091727,3
19036681168813,0.4881358,8.963513,4.091727,3
19036683547979,0.5168497,8.9348,4.0869412,3
19036685927198,0.5599205,8.944371,4.082155,3
19036688306365,0.6125626,8.958728,4.0869412,3
19036690685584,0.65084773,8.949157,4.072584,3
19036693064750,0.66041905,8.968299,4.082155,3
19036695443969,0.7082755,8.953942,4.0773697,3
19036697823136,0.7322037,8.939586,4.082155,3
19036700202354,0.7465607,8.953942,4.058227,3
19036702581521,0.76570326,8.953942,4.0390844,3
19036704960740,0.7609176,8.968299,4.0438704,3
19036707339907,0.76570326,8.997013,4.024728,3
19036709719125,0.7513463,8.9826565,4.019942,3
19036712098292,0.74177504,8.968299,4.024728,3
19036714477511,0.71306115,8.992228,4.0151563,3
19036716856677,0.6939186,9.01137,4.019942,3
19036719235896,0.66999036,9.01137,4.024728,3
19036721615063,0.65084773,9.016156,4.034299,3
19036723994229,0.64606214,9.020942,4.0295134,3
19036726373448,0.65084773,9.01137,4.0151563,3
19036728752615,0.66041905,9.006584,4.0390844,3
19036731131834,0.66999036,9.025727,4.048656,3
19036733511000,0.67477596,9.040084,4.048656,3
19036735890219,0.66041905,9.025727,4.0390844,3
19036738269386,0.6891329,9.020942,4.0390844,3
19036740648604,0.71306115,9.020942,4.048656,3
19036743027771,0.72263247,9.001799,4.034299,3
19036745406990,0.7178468,9.001799,4.0677986,3
19036747786157,0.71306115,9.020942,4.058227,3
19036750165375,0.72741807,9.01137,4.0438704,3
19036752544542,0.70348984,8.992228,4.063013,3
19036754923709,0.6843473,8.977871,4.058227,3
19036757302927,0.64606214,8.977871,4.058227,3
19036759682094,0.6652047,8.997013,4.063013,3
19036762061313,0.60777694,8.968299,4.0677986,3
19036764440479,0.5838487,8.992228,4.0773697,3
19036766819698,0.57427746,8.977871,4.0773697,3
19036769198865,0.5694918,8.973084,4.082155,3
19036771578084,0.5599205,8.9826565,4.0677986,3
19036773957250,0.5455636,8.9826565,4.072584,3
19036776336469,0.5455636,8.963513,4.0677986,3
19036778715636,0.5886344,8.953942,4.0677986,3
19036781094854,0.6221339,8.944371,4.0773697,3
19036783473969,0.65084773,8.963513,4.091727,3
19036785853188,0.6795616,8.977871,4.0869412,3
19036788232407,0.72263247,8.958728,4.091727,3
19036790611573,0.75613195,8.9348,4.0869412,3
