t_ns,ax,ay,az,accuracy
19991560286051,-0.5024927,8.738588,4.479364,3
19991562662717,-0.4546363,8.729017,4.4315076,3
19991565041728,-0.4546363,8.743374,4.436293,3
19991567420738,-0.4881358,8.752945,4.5128636,3
19991569799749,-0.4977071,8.738588,4.5559344,3
19991572178134,-0.5455636,8.7577305,4.570291,3
19991574557769,-0.61734825,8.738588,4.536792,3
19991576936780,-0.6556334,8.752945,4.4985065,3
19991579315738,-0.7082755,8.772088,4.479364,3
19991581694696,-0.7896315,8.748159,4.4985065,3
19991584073759,-0.8279166,8.733803,4.5798626,3
19991586452769,-0.86141616,8.685946,4.651647,3
19991588831780,-0.8757731,8.695518,4.666004,3
19991591210790,-0.89491564,8.709874,4.6372905,3
19991593589801,-0.8709874,8.724232,4.599005,3
19991595968811,-0.8327023,8.724232,4.570291,3
19991598347821,-0.7752745,8.719446,4.584648,3
19991600726832,-0.70348984,8.71466,4.599005,3
19991603105478,-0.64606214,8.685946,4.6325045,3
19991605484853,-0.5838487,8.695518,4.651647,3
19991607863811,-0.5072784,8.695518,4.642076,3
19991610242821,-0.4546363,8.676374,4.618148,3
19991612621832,-0.41156548,8.685946,4.575077,3
19991615000842,-0.37806597,8.71466,4.551149,3
19991617379853,-0.41156548,8.695518,4.584648,3
19991619758863,-0.43070808,8.676374,4.6372905,3
19991622137874,-0.4546363,8.666803,4.6564326,3
19991624516884,-0.5024927,8.662018,4.6468616,3
19991626895894,-0.55513483,8.681161,4.6229334,3
19991629274905,-0.60777694,8.690732,4.6037908,3
19991631653915,-0.6843473,8.681161,4.584648,3
19991634032926,-0.7322037,8.671589,4.575077,3
19991636411936,-0.79441714,8.676374,4.575077,3
19991638790894,-0.82313097,8.700303,4.584648,3
19991641169905,-0.8327023,8.695518,4.570291,3
19991643548915,-0.8279166,8.724232,4.536792,3
19991645927926,-0.79920274,8.738588,4.5224347,3
19991648306936,-0.7609176,8.743374,4.503292,3
19991650685946,-0.71306115,8.748159,4.503292,3
19991653064957,-0.66999036,8.752945,4.5224347,3
19991655443915,-0.61734825,8.733803,4.5320063,3
19991657822978,-0.5455636,8.738588,4.536792,3
19991660201988,-0.4833502,8.738588,4.5320063,3
19991662580946,-0.44506502,8.705089,4.5224347,3
19991664960009,-0.41635114,8.700303,4.536792,3
19991667338967,-0.37806597,8.690732,4.5415773,3
19991669717978,-0.3924229,8.666803,4.599005,3
19991672096988,-0.40677986,8.666803,4.6372905,3
19991674475999,-0.3924229,8.652447,4.6564326,3
19991676855009,-0.44985065,8.647661,4.651647,3
19991679234019,-0.4881358,8.642876,4.6325045,3
19991681613030,-0.5168497,8.657232,4.6229334,3
19991683992040,-0.5599205,8.657232,4.618148,3
19991686371051,-0.59342,8.671589,4.613362,3
19991688750061,-0.60777694,8.666803,4.6085763,3
19991691129019,-0.66999036,8.671589,4.627719,3
19991693508030,-0.6795616,8.685946,4.6325045,3
19991695887040,-0.6891329,8.719446,4.6085763,3
19991698266051,-0.6556334,8.709874,4.584648,3
19991700645061,-0.6269195,8.705089,4.5655055,3
19991703024071,-0.61734825,8.690732,4.5655055,3
19991705403082,-0.5982057,8.719446,4.56072,3
19991707782092,-0.55034924,8.719446,4.575077,3
19991710161103,-0.55034924,8.700303,4.5894337,3
19991712540113,-0.5312066,8.685946,4.5894337,3
19991714919124,-0.5312066,8.705089,4.570291,3
19991717298082,-0.5312066,8.705089,4.5559344,3
19991719677092,-0.5455636,8.719446,4.5415773,3
19991722056103,-0.5694918,8.738588,4.56072,3
19991724435113,-0.61734825,8.719446,4.5798626,3
19991726814124,-0.6412765,8.729017,4.5559344,3
19991729193134,-0.6843473,8.729017,4.56072,3
19991731572144,-0.7082755,8.738588,4.551149,3
19991733951155,-0.70348984,8.748159,4.546363,3
19991736330165,-0.74177504,8.748159,4.5559344,3
19991738709176,-0.7848458,8.752945,4.5655055,3
19991741088186,-0.79441714,8.738588,4.584648,3
19991743467196,-0.7848458,8.729017,4.570291,3
19991745846155,-0.75613195,8.729017,4.570291,3
19991748225165,-0.76570326,8.729017,4.5798626,3
19991750604176,-0.7752745,8.733803,4.56072,3
19991752983186,-0.75613195,8.752945,4.584648,3
19991755362196,-0.72263247,8.733803,4.5942197,3
19991757741207,-0.7178468,8.724232,4.5894337,3
19991760120217,-0.7322037,8.743374,4.575077,3
19991762499228,-0.72263247,8.752945,4.584648,3
19991764878238,-0.70348984,8.752945,4.56072,3
19991767257249,-0.7178468,8.748159,4.575077,3
19991769636259,-0.70348984,8.7673025,4.584648,3
19991772015217,-0.7082755,8.7577305,4.6037908,3
19991774394228,-0.72741807,8.748159,4.613362,3
19991776773238,-0.7178468,8.752945,4.6229334,3
19991779152249,-0.7322037,8.752945,4.627719,3
19991781531259,-0.71306115,8.709874,4.6325045,3
19991783910269,-0.6987042,8.705089,4.642076,3
19991786289280,-0.6795616,8.676374,4.627719,3
19991788668290,-0.67477596,8.671589,4.599005,3
19991791047301,-0.6843473,8.652447,4.5942197,3
19991793426311,-0.6843473,8.647661,4.5942197,3
19991795805321,-0.6891329,8.681161,4.570291,3
19991798184280,-0.6939186,8.685946,4.536792,3
19991800563290,-0.70348984,8.685946,4.508078,3
19991802942301,-0.6987042,8.681161,4.479364,3
19991805321311,-0.7178468,8.705089,4.465007,3
19991807700321,-0.74177504,8.724232,4.4554358,3
19991810079332,-0.7800602,8.719446,4.4554358,3
19991812458290,-0.80877405,8.71466,4.45065,3
19991814837353,-0.81834537,8.719446,4.4554358,3
19991817216363,-0.8279166,8.729017,4.45065,3
19991819595374,-0.8327023,8.705089,4.469793,3
19991821974384,-0.8422736,8.695518,4.4841495,3
19991824353342,-0.8327023,8.690732,4.517649,3
19991826732353,-0.8327023,8.690732,4.5272202,3
19991829111363,-0.8039884,8.676374,4.5320063,3
19991831490374,-0.7465607,8.666803,4.546363,3
19991833869384,-0.71306115,8.647661,4.546363,3
19991836248394,-0.66041905,8.657232,4.584648,3
19991838627405,-0.6269195,8.652447,4.5942197,3
19991841006415,-0.57906306,8.671589,4.599005,3
19991843385426,-0.52163535,8.705089,4.627719,3
19991845764436,-0.5072784,8.705089,4.6564326,3
19991848143446,-0.47856453,8.709874,4.651647,3
19991850522405,-0.4546363,8.733803,4.6468616,3
19991852901415,-0.47377887,8.71466,4.6325045,3
19991855280426,-0.4881358,8.690732,4.627719,3
19991857659436,-0.53599226,8.724232,4.642076,3
19991860038446,-0.57427746,8.743374,4.6372905,3
19991862417457,-0.60777694,8.743374,4.6325045,3
19991864796467,-0.67477596,8.743374,4.6229334,3
19991867175478,-0.72263247,8.748159,4.6085763,3
19991869554488,-0.7609176,8.752945,4.599005,3
19991871933499,-0.79920274,8.781659,4.584648,3
19991874312509,-0.82313097,8.786445,4.584648,3
19991876691415,-0.8470592,8.800801,4.5798626,3
19991879070478,-0.86141616,8.786445,4.5655055,3
19991881449488,-0.8709874,8.805588,4.5559344,3
19991883828499,-0.8422736,8.796016,4.5415773,3
19991886207509,-0.82313097,8.805588,4.5272202,3
19991888586519,-0.79920274,8.800801,4.5128636,3
19991890965530,-0.7513463,8.815159,4.5224347,3
19991893344540,-0.7369894,8.786445,4.508078,3
19991895723551,-0.7082755,8.762517,4.5128636,3
19991898102561,-0.67477596,8.762517,4.517649,3
19991900481571,-0.65084773,8.7673025,4.517649,3
19991902860530,-0.6269195,8.762517,4.508078,3
19991905239540,-0.63170516,8.738588,4.503292,3
19991907618551,-0.6412765,8.724232,4.508078,3
19991909997561,-0.65084773,8.729017,4.4985065,3
19991912376571,-0.66999036,8.743374,4.508078,3
19991914755582,-0.6939186,8.733803,4.5128636,3
19991917134592,-0.72741807,8.748159,4.4985065,3
19991919513603,-0.75613195,8.729017,4.517649,3
19991921892613,-0.7800602,8.748159,4.5272202,3
19991924271624,-0.8039884,8.752945,4.56072,3
19991926650634,-0.82313097,8.738588,4.5559344,3
19991929029644,-0.79441714,8.748159,4.575077,3
19991931408603,-0.7800602,8.733803,4.584648,3
19991933787613,-0.75613195,8.724232,4.6037908,3
19991936166624,-0.7322037,8.71466,4.618148,3
19991938545634,-0.67477596,8.685946,4.618148,3
19991940924644,-0.64606214,8.666803,4.6229334,3
19991943303655,-0.59342,8.662018,4.6085763,3
19991945682665,-0.56470615,8.652447,4.5655055,3
19991948061676,-0.52163535,8.63809,4.56072,3
19991950440686,-0.49292147,8.628518,4.5559344,3
19991952819696,-0.46899325,8.628518,4.551149,3
19991955198707,-0.4546363,8.63809,4.5415773,3
19991957577665,-0.4833502,8.642876,4.5559344,3
19991959956676,-0.5168497,8.671589,4.551149,3
19991962335686,-0.5455636,8.666803,4.5224347,3
19991964714696,-0.57427746,8.705089,4.493721,3
19991967093707,-0.60777694,8.700303,4.493721,3
19991969472717,-0.63170516,8.690732,4.4889355,3
19991971851728,-0.70348984,8.700303,4.5128636,3
19991974230738,-0.7178468,8.71466,4.536792,3
19991976609749,-0.7609176,8.695518,4.546363,3
19991978988759,-0.7704889,8.676374,4.575077,3
19991981367717,-0.8135597,8.695518,4.599005,3
19991983746728,-0.8279166,8.676374,4.599005,3
19991986125738,-0.8135597,8.685946,4.5894337,3
19991988504749,-0.8135597,8.662018,4.5942197,3
19991990883759,-0.79920274,8.666803,4.6085763,3
19991993262769,-0.7609176,8.657232,4.599005,3
19991995641780,-0.7513463,8.681161,4.584648,3
19991998020790,-0.7513463,8.685946,4.56072,3
19992000399801,-0.72741807,8.705089,4.56072,3
19992002778811,-0.7178468,8.733803,4.575077,3
19992005157821,-0.72263247,8.752945,4.5798626,3
19992007536780,-0.7369894,8.743374,4.5798626,3
19992009915790,-0.7465607,8.71466,4.575077,3
19992012294801,-0.7465607,8.709874,4.551149,3
19992014673811,-0.76570326,8.709874,4.536792,3
19992017052821,-0.79441714,8.733803,4.5415773,3
19992019431832,-0.8279166,8.724232,4.56072,3
19992021810842,-0.8566305,8.719446,4.5655055,3
19992024189853,-0.8709874,8.738588,4.5798626,3
19992026568863,-0.9092726,8.7577305,4.5894337,3
19992028947874,-0.94277215,8.772088,4.5894337,3
19992031326884,-0.94755775,8.796016,4.5655055,3
19992033705894,-0.9762716,8.79123,4.551149,3
19992036084853,-0.9667004,8.815159,4.5415773,3
19992038463863,-0.9619147,8.829515,4.551149,3
19992040842874,-0.9523434,8.810373,4.56072,3
19992043221884,-0.9379865,8.815159,4.570291,3
19992045600894,-0.8997013,8.800801,4.56072,3
19992047979905,-0.89491564,8.805588,4.546363,3
19992050358915,-0.8805587,8.786445,4.5559344,3
19992052737926,-0.83748794,8.786445,4.570291,3
19992055116936,-0.79441714,8.776874,4.575077,3
19992057495946,-0.7513463,8.7577305,4.6037908,3
19992059874905,-0.72263247,8.748159,4.6372905,3
19992062253915,-0.70348984,8.7673025,4.6564326,3
19992064632926,-0.6891329,8.752945,4.6707897,3
19992067011936,-0.6843473,8.724232,4.6564326,3
19992069390946,-0.6891329,8.729017,4.6325045,3
19992071769957,-0.7178468,8.733803,4.6325045,3
19992074148967,-0.7369894,8.719446,4.618148,3
19992076527978,-0.76570326,8.709874,4.618148,3
19992078906988,-0.7800602,8.690732,4.5942197,3
19992081285999,-0.80877405,8.705089,4.5798626,3
19992083665009,-0.8566305,8.71466,4.551149,3
19992086043967,-0.8853444,8.733803,4.4985065,3
19992088422978,-0.9236295,8.709874,4.4985065,3
19992090801988,-0.9379865,8.71466,4.503292,3
19992093180999,-0.9523434,8.729017,4.4841495,3
19992095560009,-0.95712906,8.762517,4.493721,3
19992097939019,-0.9379865,8.7577305,4.479364,3
19992100318030,-0.8997013,8.752945,4.465007,3
19992102697040,-0.8709874,8.7577305,4.469793,3
19992105076051,-0.8279166,8.729017,4.5128636,3
19992107455061,-0.7848458,8.729017,4.5320063,3
19992109834019,-0.79920274,8.71466,4.575077,3
19992112213030,-0.79441714,8.709874,4.5942197,3
19992114592040,-0.75613195,8.676374,4.6037908,3
19992116971051,-0.7369894,8.642876,4.6037908,3
19992119350061,-0.72741807,8.647661,4.6085763,3
19992121729071,-0.71306115,8.642876,4.5798626,3
19992124108082,-0.7465607,8.647661,4.6037908,3
19992126487092,-0.7513463,8.623733,4.6085763,3
19992128866103,-0.7752745,8.628518,4.599005,3
19992131245061,-0.7896315,8.63809,4.6085763,3
19992133624124,-0.8327023,8.633304,4.6037908,3
19992136003134,-0.85184485,8.662018,4.613362,3
19992138382092,-0.8757731,8.666803,4.618148,3
19992140761103,-0.89491564,8.652447,4.6085763,3
19992143140113,-0.90448695,8.671589,4.6037908,3
19992145519124,-0.89013004,8.681161,4.6372905,3
19992147898134,-0.86141616,8.681161,4.6564326,3
19992150277144,-0.8135597,8.662018,4.6564326,3
19992152656155,-0.7704889,8.666803,4.6707897,3
19992155035165,-0.74177504,8.657232,4.6803613,3
19992157414176,-0.71306115,8.647661,4.6707897,3
19992159793186,-0.67477596,8.623733,4.6707897,3
19992162172144,-0.63170516,8.6141615,4.6707897,3
19992164551155,-0.60777694,8.633304,4.6564326,3
19992166930061,-0.5599205,8.628518,4.642076,3
19992169309176,-0.5599205,8.642876,4.642076,3
19992171688186,-0.57427746,8.666803,4.6229334,3
19992174067196,-0.5886344,8.685946,4.599005,3
19992176446207,-0.5838487,8.705089,4.6037908,3
19992178825217,-0.5886344,8.709874,4.5894337,3
19992181204228,-0.6029913,8.729017,4.575077,3
19992183583238,-0.60777694,8.729017,4.5415773,3
19992185962249,-0.61734825,8.743374,4.5128636,3
19992188341207,-0.6412765,8.729017,4.479364,3
19992190720217,-0.6652047,8.709874,4.479364,3
19992193099228,-0.66999036,8.71466,4.4841495,3
19992195478238,-0.66999036,8.685946,4.5224347,3
19992197857249,-0.66999036,8.676374,4.551149,3
19992200236259,-0.6795616,8.671589,4.56072,3
19992202615269,-0.6795616,8.657232,4.551149,3
19992204994280,-0.6652047,8.628518,4.551149,3
19992207373290,-0.6652047,8.652447,4.536792,3
19992209752301,-0.66999036,8.63809,4.575077,3
19992212131311,-0.6556334,8.652447,4.570291,3
19992214510269,-0.66041905,8.681161,4.575077,3
19992216889280,-0.64606214,8.709874,4.546363,3
19992219268290,-0.6364908,8.729017,4.5272202,3
19992221647301,-0.63170516,8.743374,4.5224347,3
19992224026311,-0.6843473,8.786445,4.5128636,3
19992226405321,-0.6939186,8.805588,4.503292,3
19992228784332,-0.6891329,8.82473,4.5320063,3
19992231163342,-0.70348984,8.819944,4.536792,3
19992233542353,-0.7322037,8.819944,4.546363,3
19992235921363,-0.72741807,8.805588,4.5559344,3
19992238300321,-0.7465607,8.786445,4.5894337,3
19992240679332,-0.7369894,8.762517,4.6085763,3
19992243058342,-0.72263247,8.743374,4.618148,3
19992245437353,-0.7369894,8.729017,4.6325045,3
19992247816363,-0.72263247,8.71466,4.627719,3
19992250195374,-0.7369894,8.705089,4.6229334,3
19992252574384,-0.7369894,8.700303,4.599005,3
19992254953394,-0.7513463,8.724232,4.5894337,3
19992257332405,-0.7465607,8.7673025,4.6037908,3
19992259711415,-0.7369894,8.796016,4.6085763,3
19992262090374,-0.74177504,8.810373,4.618148,3
19992264469384,-0.74177504,8.82473,4.613362,3
19992266848394,-0.72263247,8.839087,4.6085763,3
19992269227405,-0.7178468,8.834301,4.6085763,3
19992271606415,-0.6939186,8.819944,4.618148,3
19992273985426,-0.6652047,8.819944,4.613362,3
19992276364436,-0.6221339,8.810373,4.6037908,3
19992278743446,-0.59342,8.762517,4.6229334,3
19992281122457,-0.59342,8.733803,4.666004,3
19992283501467,-0.57906306,8.719446,4.694718,3
19992285880478,-0.5455636,8.705089,4.7377887,3
19992288259488,-0.5599205,8.685946,4.752146,3
19992290638446,-0.526421,8.671589,4.7569313,3
19992293017457,-0.5312066,8.63809,4.74736,3
19992295396467,-0.5599205,8.628518,4.7042894,3
19992297775478,-0.5694918,8.671589,4.6755753,3
19992300154488,-0.5694918,8.676374,4.6325045,3
19992302533499,-0.60777694,8.671589,4.627719,3
19992304912509,-0.60777694,8.700303,4.5942197,3
19992307291519,-0.6221339,8.733803,4.575077,3
19992309670530,-0.6221339,8.752945,4.5272202,3
19992312049540,-0.65084773,8.748159,4.4889355,3
19992314428551,-0.6412765,8.748159,4.465007,3
19992316807509,-0.6412765,8.719446,4.4458647,3
19992319186519,-0.65084773,8.690732,4.4171505,3
19992321565530,-0.6364908,8.690732,4.4171505,3
19992323944540,-0.59342,8.666803,4.4171505,3
19992326323551,-0.5838487,8.657232,4.412365,3
19992328702561,-0.5838487,8.652447,4.4075794,3
19992331081571,-0.5838487,8.657232,4.3836513,3
19992333460582,-0.5886344,8.647661,4.3932223,3
19992335839592,-0.6221339,8.662018,4.398008,3
19992338218603,-0.6412765,8.719446,4.398008,3
19992340597561,-0.6556334,8.7673025,4.398008,3
19992342976571,-0.6891329,8.772088,4.398008,3
19992345355582,-0.7082755,8.805588,4.398008,3
19992347734592,-0.7322037,8.82473,4.426722,3
19992350113603,-0.72741807,8.829515,4.45065,3
19992352492613,-0.71306115,8.82473,4.4602213,3
19992354871624,-0.6843473,8.815159,4.4410787,3
19992357250634,-0.66041905,8.781659,4.465007,3
19992359629644,-0.6269195,8.772088,4.4889355,3
19992362008603,-0.59342,8.738588,4.536792,3
19992364387613,-0.5407779,8.71466,4.584648,3
19992366766624,-0.4833502,8.681161,4.6468616,3
19992369145634,-0.44985065,8.633304,4.709075,3
19992371524644,-0.41635114,8.595019,4.752146,3
19992373903655,-0.38285163,8.585447,4.7808595,3
19992376282665,-0.33020952,8.585447,4.8095737,3
19992378661624,-0.31585258,8.575876,4.800002,3
19992381040686,-0.32063824,8.595019,4.766503,3
19992383419696,-0.33499518,8.647661,4.7377887,3
19992385798707,-0.37328035,8.676374,4.733003,3
19992388177665,-0.40677986,8.733803,4.709075,3
19992390556676,-0.44985065,8.748159,4.7282176,3
19992392935686,-0.4881358,8.762517,4.7282176,3
19992395314696,-0.526421,8.781659,4.723432,3
19992397693707,-0.57427746,8.834301,4.685147,3
19992400072717,-0.59342,8.810373,4.613362,3
19992402451728,-0.6029913,8.772088,4.546363,3
19992404830738,-0.61734825,8.7673025,4.5415773,3
19992407209749,-0.5838487,8.748159,4.5272202,3
19992409588759,-0.5455636,8.724232,4.508078,3
19992411967769,-0.53599226,8.690732,4.4889355,3
19992414346728,-0.5072784,8.709874,4.465007,3
19992416725738,-0.4833502,8.709874,4.45065,3
19992419104749,-0.5072784,8.71466,4.426722,3
19992421483759,-0.5407779,8.743374,4.436293,3
19992423862769,-0.5838487,8.781659,4.4315076,3
19992426241780,-0.63170516,8.800801,4.45065,3
19992428620790,-0.6843473,8.781659,4.45065,3
19992430999801,-0.71306115,8.796016,4.45065,3
19992433378811,-0.71306115,8.843872,4.4554358,3
19992435757821,-0.72741807,8.872586,4.4410787,3
19992438136780,-0.74177504,8.872586,4.436293,3
19992440515790,-0.76570326,8.863015,4.426722,3
19992442894801,-0.7322037,8.843872,4.436293,3
19992445273811,-0.74177504,8.829515,4.45065,3
19992447652821,-0.7178468,8.772088,4.4985065,3
19992450031832,-0.6939186,8.733803,4.546363,3
19992452410842,-0.65084773,8.685946,4.575077,3
19992454789853,-0.6269195,8.666803,4.6229334,3
19992457168863,-0.61734825,8.633304,4.651647,3
19992459547874,-0.57427746,8.60459,4.6755753,3
19992461926884,-0.5407779,8.609376,4.7282176,3
19992464305842,-0.5455636,8.585447,4.776074,3
19992466684853,-0.55034924,8.590233,4.776074,3
19992469063863,-0.5599205,8.642876,4.761717,3
19992471442874,-0.57906306,8.657232,4.733003,3
19992473821884,-0.6364908,8.681161,4.733003,3
19992476200894,-0.6939186,8.719446,4.7282176,3
19992478579905,-0.76570326,8.729017,4.7377887,3
19992480958915,-0.8039884,8.743374,4.7569313,3
19992483337926,-0.8135597,8.786445,4.752146,3
19992485716884,-0.8422736,8.781659,4.7282176,3
19992488095894,-0.8422736,8.815159,4.6803613,3
19992490474905,-0.8327023,8.829515,4.6325045,3
19992492853863,-0.7848458,8.79123,4.5798626,3
19992495232926,-0.7800602,8.762517,4.546363,3
19992497611936,-0.72263247,8.724232,4.5320063,3
19992499990946,-0.6795616,8.709874,4.5415773,3
19992502369957,-0.64606214,8.676374,4.56072,3
19992504748967,-0.6269195,8.595019,4.5415773,3
19992507127978,-0.6269195,8.599805,4.551149,3
19992509506988,-0.65084773,8.63809,4.546363,3
19992511885999,-0.66999036,8.633304,4.517649,3
19992514264957,-0.6987042,8.599805,4.4889355,3
19992516643967,-0.7513463,8.642876,4.4602213,3
19992519022978,-0.8279166,8.681161,4.4458647,3
19992521401988,-0.86141616,8.695518,4.479364,3
19992523780999,-0.8805587,8.733803,4.4889355,3
19992526160009,-0.8997013,8.805588,4.5224347,3
19992528539019,-0.9092726,8.79123,4.5128636,3
19992530918030,-0.9236295,8.800801,4.503292,3
19992533297040,-0.8997013,8.819944,4.4841495,3
19992535675999,-0.8805587,8.839087,4.4889355,3
19992538055009,-0.81834537,8.79123,4.5224347,3
19992540434019,-0.79920274,8.662018,4.5128636,3
19992542813030,-0.8039884,7.5661054,3.7806597,3
19992545192040,-0.66999036,7.475178,3.6897326,3
19992547571051,-0.0526421,9.690931,4.206582,3
19992549950061,-0.6125626,9.619147,3.4695928,3
19992552329071,-0.49292147,8.752945,3.3786657,3
19992554708082,0.53599226,9.260223,4.3405805,3
19992557087092,0.28235307,9.040084,5.0105705,3
19992559466103,0.2440679,8.456235,5.6039906,3
19992561845061,0.44506502,8.56152,5.881558,3
19992564224071,0.61734825,9.116654,5.704489,3
19992566603082,-0.06699903,8.762517,5.2307105,3
19992568982092,-0.16749759,8.475378,5.288138,3
19992571361103,-0.19142582,8.729017,5.613562,3
19992573740113,-0.91884387,8.796016,5.757131,3
19992576119124,-1.1437693,8.5423765,5.245067,3
19992578498134,-1.3495519,8.628518,4.4745784,3
19992580877144,-1.4739788,9.01137,3.6610186,3
19992583256155,-1.8424734,8.819944,3.158526,3
19992585635113,-1.7802601,8.690732,3.5413775,3
19992588014124,-1.6414764,8.666803,4.3262234,3
19992590393134,-1.9334008,8.590233,4.85743,3
19992592772144,-1.8999012,8.63809,5.3503513,3
19992595151155,-1.7946169,8.283952,5.2642097,3
19992597530165,-1.7036897,8.465807,5.0536413,3
19992599909176,-1.6462619,8.547162,4.6612186,3
19992602288186,-1.4069797,8.590233,4.321438,3
19992604667196,-1.2251252,8.85823,4.287938,3
19992607046207,-1.1294123,9.001799,4.4315076,3
19992609425165,-0.9906286,8.9826565,4.814359,3
19992611804176,-0.8757731,8.973084,5.0440702,3
19992614183186,-0.8470592,9.131011,4.9674997,3
19992616562196,-0.8566305,9.083155,4.6803613,3
19992618941207,-0.74177504,8.915657,4.503292,3
19992621320217,-0.6364908,8.872586,4.4602213,3
19992623699228,-0.7178468,8.848659,4.551149,3
19992626078238,-0.6412765,8.733803,4.6325045,3
19992628457249,-0.5312066,8.681161,4.5655055,3
19992630836259,-0.44985065,8.762517,4.402794,3
19992633215217,-0.3493521,8.786445,4.0965123,3
19992635594228,-0.22013968,8.829515,3.871587,3
19992637973238,-0.124426775,8.843872,3.7328033,3
19992640352249,-0.08135597,8.82473,3.8476589,3
19992642731259,-0.023928227,8.719446,4.15394,3
19992645110269,0.014356935,8.551949,4.412365,3
19992647489280,-0.05742774,8.518449,4.4745784,3
19992649868290,-0.11964113,8.532805,4.2592244,3
19992652247301,-0.22013968,8.5423765,3.9433718,3
19992654626311,-0.2727818,8.724232,3.6370904,3
19992657005321,-0.41156548,8.987442,3.2925239,3
19992659384280,-0.6843473,9.025727,3.5126636,3
19992661763290,-0.71306115,8.685946,4.5128636,3
19992664142301,-0.4977071,8.413164,5.1924253,3
19992666521311,-0.72741807,8.226524,4.7377887,3
19992668900321,-0.7082755,8.9013,3.7950168,3
19992671279332,-0.34456646,9.844072,2.416751,3
19992673658342,-0.65084773,9.781859,1.6510476,3
19992676037353,-0.44985065,9.284152,2.8139594,3
19992678416363,0.22492532,9.150154,5.3407803,3
19992680795374,0.22492532,8.56152,6.867401,3
19992683174332,0.12921242,8.207381,6.690332,3
19992685553342,0.5312066,8.590233,5.2689953,3
19992687932353,0.5072784,8.815159,3.6897326,3
19992690311363,0.1052842,8.657232,3.4169507,3
19992692690374,0.076570325,8.437093,4.666004,3
19992695069384,-0.06699903,8.288737,6.1639113,3
19992697448394,-0.526421,8.336594,6.719046,3
19992699827405,-0.8662018,8.465807,6.1974106,3
19992702206415,-0.91884387,8.973084,5.2019963,3
19992704585374,-1.0719845,9.135797,3.8620157,3
19992706964384,-1.3447664,9.150154,3.359523,3
19992709343394,-1.282553,9.040084,3.9146578,3
19992711722405,-1.3112668,9.097511,5.4556355,3
19992714101415,-1.4691931,8.805588,6.546763,3
19992716480426,-1.4739788,8.681161,7.001399,3
19992718859436,-1.2921243,8.4705925,6.3744793,3
19992721238446,-1.2346965,8.360522,5.4221363,3
19992723617457,-1.0719845,8.240881,4.685147,3
19992725996467,-0.8279166,8.078169,4.56072,3
19992728375478,-0.6939186,8.04467,5.1732826,3
19992730754436,-0.6364908,8.039884,5.8337016,3
19992733133446,-0.60777694,8.145168,5.9676995,3
19992735512457,-0.5312066,8.34138,5.259424,3
19992737891467,-0.5455636,8.60459,4.125226,3
19992740270478,-0.5072784,8.738588,3.2685957,3
19992742649488,-0.44506502,8.71466,3.211168,3
19992745028499,-0.40677986,8.513663,3.885944,3
19992747407509,-0.44985065,8.274381,4.881358,3
19992749786519,-0.4211368,8.154739,5.584848,3
19992752165478,-0.4354937,8.202596,5.4987063,3
19992754544488,-0.52163535,8.413164,4.761717,3
19992756923499,-0.60777694,8.690732,3.8668015,3
19992759302509,-0.6939186,8.987442,3.4025939,3
19992761681519,-0.8853444,9.126225,3.4695928,3
19992764060530,-1.1294123,9.202796,4.0295134,3
19992766439540,-1.282553,9.188439,4.5942197,3
19992768818551,-1.4356936,9.169296,4.800002,3
19992771197561,-1.5218352,9.126225,4.6085763,3
19992773576571,-1.4979069,9.092726,4.2448673,3
19992775955582,-1.4404793,9.035298,4.024728,3
19992778334540,-1.3256238,8.963513,4.2257247,3
19992780713551,-1.1102697,8.886943,4.6612186,3
19992783092561,-0.82313097,8.867801,5.0249276,3
19992785471571,-0.53599226,8.85823,5.005785,3
19992787850582,-0.18664017,8.863015,4.6229334,3
19992790229592,0.15314065,8.867801,4.101298,3
19992792608603,0.44506502,8.82473,3.8141594,3
19992794987613,0.6843473,8.7577305,3.9098723,3
19992797366624,0.79920274,8.647661,4.345366,3
19992799745582,0.85184485,8.489735,4.814359,3
19992802124592,0.8662018,8.384451,5.029713,3
19992804503603,0.8709874,8.403593,4.9340005,3
19992806882613,0.81834537,8.489735,4.627719,3
19992809261624,0.7800602,8.681161,4.2257247,3
19992811640634,0.6412765,8.853444,3.9960139,3
19992814019644,0.44506502,8.9108715,4.1491547,3
19992816398655,0.37328035,8.958728,4.4458647,3
19992818777665,0.17706887,9.059227,4.627719,3
19992821156676,-0.043070808,9.025727,4.618148,3
19992823535634,-0.1052842,8.953942,4.479364,3
19992825914644,-0.19621146,8.906086,4.273581,3
19992828293655,-0.3062813,8.834301,4.2352962,3
19992830672613,-0.28235307,8.71466,4.508078,3
19992833051676,-0.16749759,8.585447,4.895715,3
19992835430686,-0.08135597,8.537591,5.1349974,3
19992837809696,0.033499517,8.52802,5.0536413,3
19992840188707,0.148355,8.571091,4.7138605,3
19992842567717,0.2009971,8.585447,4.369294,3
19992844946728,0.22971097,8.518449,4.2161536,3
19992847325738,0.21535404,8.508878,4.331009,3
19992849704696,0.11006984,8.4705925,4.613362,3
19992852083707,-0.009571291,8.350951,4.85743,3
19992854462717,-0.11006984,8.331808,4.9770713,3
19992856841728,-0.27756742,8.394022,4.900501,3
19992859220738,-0.41635114,8.422736,4.733003,3
19992861599749,-0.4881358,8.532805,4.6707897,3
19992863978759,-0.6221339,8.705089,4.7282176,3
19992866357769,-0.75613195,8.781659,4.8191447,3
19992868736780,-0.89013004,8.829515,4.924429,3
19992871115790,-0.94755775,8.872586,4.938786,3
19992873494749,-1.0193424,8.939586,4.8287163,3
19992875873759,-1.1150553,8.973084,4.666004,3
19992878252717,-1.1581261,8.953942,4.536792,3
19992880631780,-1.2011969,8.944371,4.5320063,3
19992883010790,-1.2634103,8.863015,4.599005,3
19992885389801,-1.3399807,8.776874,4.7138605,3
19992887768811,-1.3734802,8.690732,4.776074,3
19992890147821,-1.402194,8.652447,4.709075,3
19992892526780,-1.4739788,8.652447,4.546363,3
19992894905738,-1.5074782,8.700303,4.2927237,3
19992897284801,-1.5361922,8.781659,4.082155,3
19992899663811,-1.5409778,8.848659,3.9433718,3
19992902042821,-1.5361922,8.896515,3.9625144,3
19992904421832,-1.4787644,8.930014,4.0390844,3
19992906800842,-1.4356936,8.953942,4.1922255,3
19992909179853,-1.3208381,8.930014,4.2687955,3
19992911558863,-1.1916257,8.939586,4.26401,3
19992913937874,-1.0480564,8.920443,4.2352962,3
19992916316884,-0.90448695,8.906086,4.254439,3
19992918695842,-0.72741807,8.85823,4.421936,3
19992921074853,-0.6269195,8.867801,4.6612186,3
19992923453863,-0.59342,8.815159,4.881358,3
19992925832874,-0.46899325,8.776874,4.914858,3
19992928211884,-0.4642076,8.896515,4.7856455,3
19992930590894,-0.51206404,8.872586,4.5320063,3
19992932969905,-0.6269195,8.800801,4.5655055,3
19992935348915,-0.55513483,8.681161,4.766503,3
19992937727926,-0.57427746,8.676374,5.005785,3
19992940106884,-0.72263247,8.595019,5.1158547,3
19992942485842,-0.6221339,8.585447,5.130212,3
19992944864905,-0.6364908,8.628518,5.087141,3
19992947243915,-0.64606214,8.547162,4.9292145,3
19992949622926,-0.6556334,8.446664,4.871787,3
19992952001936,-0.57906306,8.403593,4.8909297,3
19992954380946,-0.6221339,8.408379,4.9531426,3
19992956759957,-0.66999036,8.346166,5.005785,3
19992959138967,-0.6125626,8.355737,5.0536413,3
19992961517978,-0.6556334,8.46102,4.996214,3
19992963896988,-0.70348984,8.5423765,4.8047876,3
19992966275946,-0.71306115,8.642876,4.627719,3
19992968654957,-0.71306115,8.743374,4.4841495,3
19992971033967,-0.7800602,8.815159,4.465007,3
19992973412978,-0.7848458,8.810373,4.5272202,3
19992975791988,-0.7704889,8.843872,4.618148,3
19992978170999,-0.8039884,8.882157,4.6803613,3
19992980550009,-0.86141616,8.867801,4.6707897,3
19992982929019,-0.8470592,8.815159,4.6564326,3
19992985308030,-0.8422736,8.839087,4.6325045,3
19992987687040,-0.8470592,8.834301,4.6372905,3
19992990065999,-0.7896315,8.772088,4.6755753,3
19992992445009,-0.7609176,8.748159,4.709075,3
19992994824019,-0.7178468,8.743374,4.723432,3
19992997203030,-0.66999036,8.700303,4.6707897,3
19992999582040,-0.57906306,8.690732,4.503292,3
19993001960999,-0.5455636,8.738588,4.354937,3
19993004340061,-0.5312066,8.733803,4.2927237,3
19993006719071,-0.4833502,8.733803,4.3501515,3
19993009098030,-0.4354937,8.709874,4.345366,3
19993011477040,-0.4019942,8.733803,4.26401,3
19993013856051,-0.35413775,8.729017,4.1587257,3
19993016235061,-0.31106696,8.695518,4.091727,3
19993018614071,-0.2727818,8.685946,4.115655,3
19993020993082,-0.24885355,8.719446,4.130012,3
19993023372092,-0.18185452,8.776874,4.1347976,3
19993025751103,-0.12921242,8.810373,4.139583,3
19993028130113,-0.09092726,8.877372,4.1874394,3
19993030509124,-0.0526421,8.896515,4.254439,3
19993032888082,0.0047856453,8.930014,4.354937,3
19993035267092,0.0526421,8.953942,4.4410787,3
19993037646103,0.08135597,8.968299,4.4985065,3
19993040025061,0.124426775,8.968299,4.4889355,3
19993042404124,0.148355,8.977871,4.4602213,3
19993044783134,0.18664017,8.953942,4.465007,3
19993047162144,0.22492532,8.896515,4.551149,3
19993049541155,0.2536392,8.743374,4.599005,3
19993051920165,0.29671,8.671589,4.6468616,3
19993054299176,0.3589234,8.819944,4.6564326,3
19993056678134,0.31585258,8.973084,4.6229334,3
19993059057144,0.21535404,8.930014,4.6755753,3
19993061436155,0.18664017,8.9108715,5.0344987,3
19993063815165,0.15314065,8.925228,5.407779,3
19993066194176,-0.019142581,8.815159,5.4317074,3
19993068573186,-0.16749759,8.652447,5.168497,3
19993070952196,-0.22971097,8.518449,4.948357,3
19993073331207,-0.30149564,8.413164,4.8526444,3
19993075710217,-0.44027936,8.298309,4.9340005,3
19993078089176,-0.4833502,8.365308,5.0536413,3
19993080468186,-0.4833502,8.523234,4.9579287,3
19993082847196,-0.5694918,8.681161,4.7712884,3
19993085226207,-0.5312066,8.839087,4.6037908,3
19993087605217,-0.33020952,8.863015,4.4171505,3
19993089984228,-0.21535404,8.781659,4.302295,3
19993092363238,-0.023928227,8.63809,4.278367,3
19993094742249,0.2440679,8.551949,4.2975097,3
19993097121259,0.45942193,8.5423765,4.354937,3
19993099500269,0.6652047,8.60459,4.354937,3
19993101879228,0.8422736,8.652447,4.240082,3
19993104258238,1.0097711,8.724232,3.9960139,3
19993106637249,1.134198,8.829515,3.804588,3
19993109016259,1.2442678,8.896515,3.7184465,3
19993111395269,1.2394822,8.920443,3.723232,3
19993113774280,1.2155539,8.886943,3.8093736,3
19993116153290,1.134198,8.867801,3.9433718,3
19993118532301,0.9619147,8.834301,4.0965123,3
19993120911311,0.7465607,8.819944,4.278367,3
19993123290321,0.5024927,8.839087,4.4985065,3
19993125669332,0.2632105,8.829515,4.584648,3
19993128048290,0.0,8.810373,4.6037908,3
19993130427301,-0.19621146,8.882157,4.6899323,3
19993132806311,-0.3589234,8.848659,4.6612186,3
19993135185321,-0.49292147,8.738588,4.4889355,3
19993137564332,-0.51206404,8.523234,4.182654,3
19993139943342,-0.38763726,8.690732,4.1347976,3
19993142322353,-0.2536392,9.08794,4.4315076,3
19993144701363,-0.148355,9.006584,4.685147,3
19993147080374,0.2536392,8.886943,4.7377887,3
19993149459332,0.5838487,8.863015,4.666004,3
19993151838342,0.9284152,8.719446,4.6707897,3
19993154217353,1.2155539,8.403593,4.8095737,3
19993156596363,1.4883357,8.269595,4.9770713,3
19993158975374,1.5601203,8.394022,5.048856,3
19993161354384,1.5074782,8.384451,4.800002,3
19993163733394,1.402194,8.480164,4.4602213,3
19993166112405,1.1294123,8.695518,4.1874394,3
19993168491415,0.8566305,8.834301,4.1108694,3
19993170870426,0.5694918,8.829515,4.173083,3
19993173249384,0.28235307,8.9108715,4.3070807,3
19993175628342,0.014356935,9.01137,4.369294,3
19993178007405,-0.17706887,8.944371,4.369294,3
19993180386415,-0.28713873,8.953942,4.3932223,3
19993182765426,-0.31106696,8.997013,4.4554358,3
19993185144436,-0.27756742,8.963513,4.627719,3
19993187523446,-0.16271193,8.848659,4.790431,3
19993189902457,0.047856454,8.762517,4.924429,3
19993192281467,0.35413775,8.685946,4.9770713,3
19993194660478,0.6125626,8.5423765,4.910072,3
19993197039436,0.90448695,8.465807,4.7856455,3
19993199418446,1.1437693,8.480164,4.6372905,3
19993201797457,1.2969099,8.465807,4.4841495,3
19993204176415,1.3686945,8.465807,4.4602213,3
19993206555478,1.2729816,8.475378,4.465007,3
19993208934488,1.0767702,8.475378,4.4745784,3
19993211313499,0.8135597,8.523234,4.517649,3
19993213692509,0.47856453,8.547162,4.5559344,3
19993216071519,0.05742774,8.56152,4.570291,3
19993218450478,-0.27756742,8.6141615,4.575077,3
19993220829488,-0.5168497,8.628518,4.6468616,3
19993223208499,-0.7513463,8.676374,4.718646,3
19993225587509,-0.9284152,8.705089,4.790431,3
19993227966519,-0.9906286,8.738588,4.8622155,3
19993230345530,-1.0336994,8.748159,4.881358,3
19993232724540,-1.0432707,8.781659,4.85743,3
19993235103551,-0.93320084,8.772088,4.8287163,3
19993237482561,-0.7704889,8.776874,4.814359,3
19993239861571,-0.5838487,8.738588,4.814359,3
19993242240478,-0.4019942,8.681161,4.8287163,3
19993244619540,-0.14356937,8.681161,4.847859,3
19993246998551,0.08135597,8.786445,4.8191447,3
19993249377561,0.30149564,8.628518,4.493721,3
19993251756571,0.4642076,8.585447,4.3836513,3
19993254135582,0.63170516,8.599805,4.4985065,3
19993256514592,0.6891329,8.580662,4.6564326,3
19993258893603,0.74177504,8.49452,4.761717,3
19993261272613,0.7082755,8.56152,4.8526444,3
19993263651571,0.5838487,8.647661,4.718646,3
19993266030582,0.3924229,8.652447,4.4458647,3
19993268409592,0.16749759,8.705089,4.3357944,3
19993270788603,-0.038285162,8.786445,4.388437,3
19993273167561,-0.31106696,8.805588,4.5128636,3
19993275546624,-0.5312066,8.815159,4.6803613,3
19993277925634,-0.67477596,8.877372,4.8191447,3
19993280304644,-0.7752745,8.906086,4.8239303,3
19993282683655,-0.7609176,8.896515,4.6803613,3
19993285062613,-0.6652047,8.9348,4.517649,3
19993287441624,-0.51206404,8.930014,4.45065,3
19993289820634,-0.30149564,8.891729,4.479364,3
19993292199644,-0.019142581,8.848659,4.584648,3
19993294578655,0.2105684,8.82473,4.6803613,3
19993296957665,0.41156548,8.781659,4.6899323,3
19993299336676,0.6412765,8.743374,4.5798626,3
19993301715686,0.8279166,8.743374,4.469793,3
19993304094696,0.95712906,8.738588,4.3788652,3
19993306473655,1.0097711,8.71466,4.3932223,3
19993308852665,1.0815558,8.729017,4.4602213,3
19993311231676,1.0959128,8.729017,4.503292,3
19993313610686,1.0719845,8.7673025,4.4554358,3
19993315989696,0.9762716,8.805588,4.3501515,3
19993318368707,0.91884387,8.839087,4.23051,3
19993320747717,0.80877405,8.891729,4.173083,3
19993323126728,0.66041905,8.867801,4.206582,3
19993325505738,0.526421,8.863015,4.287938,3
19993327884696,0.38763726,8.867801,4.4171505,3
19993330263759,0.2536392,8.834301,4.4745784,3
19993332642717,0.14356937,8.815159,4.4889355,3
19993335021728,0.086141616,8.79123,4.436293,3
19993337400738,0.047856454,8.800801,4.3932223,3
19993339779749,0.009571291,8.805588,4.3932223,3
19993342158759,-0.023928227,8.796016,4.4554358,3
19993344537769,-0.0047856453,8.776874,4.551149,3
19993346916780,0.033499517,8.796016,4.613362,3
19993349295790,0.02871387,8.79123,4.6325045,3
19993351674801,0.0,8.776874,4.613362,3
19993354053759,0.0047856453,8.796016,4.6085763,3
19993356432769,-0.0526421,8.733803,4.627719,3
19993358811780,-0.124426775,8.700303,4.694718,3
19993361190790,-0.22492532,8.676374,4.7856455,3
19993363569801,-0.31585258,8.662018,4.8765726,3
19993365948811,-0.41635114,8.652447,4.948357,3
19993368327821,-0.5312066,8.647661,4.914858,3
19993370706832,-0.6412765,8.647661,4.8765726,3
19993373085842,-0.7322037,8.676374,4.8047876,3
19993375464749,-0.83748794,8.71466,4.7808595,3
19993377843811,-0.91884387,8.709874,4.7856455,3
19993380222769,-0.9284152,8.700303,4.8191447,3
19993382601832,-0.95712906,8.709874,4.8287163,3
19993384980842,-0.9619147,8.705089,4.843073,3
19993387359853,-0.89013004,8.690732,4.8047876,3
19993389738863,-0.7848458,8.705089,4.7856455,3
19993392117874,-0.6795616,8.724232,4.752146,3
19993394496884,-0.5455636,8.743374,4.733003,3
19993396875894,-0.41156548,8.743374,4.74736,3
19993399254853,-0.28713873,8.7673025,4.752146,3
19993401633863,-0.15314065,8.800801,4.74736,3
19993404012874,-0.08135597,8.800801,4.723432,3
19993406391884,-0.033499517,8.796016,4.6755753,3
19993408770894,-0.023928227,8.805588,4.642076,3
19993411149905,-0.02871387,8.796016,4.5894337,3
19993413528915,-0.06699903,8.810373,4.56072,3
19993415907926,-0.09571291,8.815159,4.546363,3
19993418286936,-0.148355,8.79123,4.4889355,3
19993420665894,-0.22013968,8.781659,4.4315076,3
19993423044905,-0.2009971,8.79123,4.331009,3
19993425423915,-0.22971097,8.839087,4.316652,3
19993427802926,-0.2440679,8.829515,4.2352962,3
19993430181936,-0.2440679,8.848659,4.2017965,3
19993432560946,-0.2009971,8.82473,4.23051,3
19993434939957,-0.0526421,8.839087,4.273581,3
19993437318967,0.023928227,8.848659,4.3405805,3
19993439697978,0.23928227,8.819944,4.3788652,3
19993442076988,0.44506502,8.79123,4.412365,3
19993444455946,0.6221339,8.772088,4.4315076,3
19993446834957,0.74177504,8.7577305,4.493721,3
19993449213967,0.89013004,8.724232,4.551149,3
19993451592978,0.95712906,8.705089,4.6325045,3
19993453971988,0.91405827,8.676374,4.6899323,3
19993456350999,0.8566305,8.642876,4.733003,3
19993458730009,0.7609176,8.666803,4.790431,3
19993461109019,0.6125626,8.676374,4.7856455,3
19993463488030,0.44027936,8.705089,4.766503,3
19993465866988,0.33020952,8.738588,4.733003,3
19993468245999,0.2009971,8.7577305,4.709075,3
19993470625009,0.09571291,8.7577305,4.6564326,3
19993473004019,0.06699903,8.7673025,4.6612186,3
19993475383030,0.1052842,8.772088,4.6564326,3
19993477762040,0.16749759,8.772088,4.6372905,3
19993480141051,0.26799613,8.733803,4.6037908,3
19993482520061,0.39720857,8.705089,4.584648,3
19993484899071,0.51206404,8.666803,4.56072,3
19993487278030,0.6125626,8.642876,4.5224347,3
19993489657040,0.71306115,8.642876,4.493721,3
19993492036051,0.81834537,8.652447,4.469793,3
19993494415061,0.8757731,8.666803,4.398008,3
19993496794071,0.89013004,8.690732,4.3645086,3
19993499173082,0.8709874,8.71466,4.3405805,3
19993501552092,0.8422736,8.748159,4.321438,3
19993503931103,0.7752745,8.743374,4.3405805,3
19993506310113,0.66999036,8.7673025,4.3740797,3
19993508689071,0.57427746,8.762517,4.3932223,3
19993511068082,0.4642076,8.748159,4.412365,3
19993513447092,0.35413775,8.743374,4.45065,3
19993515826103,0.22971097,8.733803,4.493721,3
19993518205061,0.17228323,8.705089,4.493721,3
19993520584124,0.13878371,8.705089,4.517649,3
19993522963134,0.13878371,8.681161,4.5320063,3
19993525342144,0.16271193,8.681161,4.536792,3
19993527721155,0.22492532,8.705089,4.5128636,3
19993530100165,0.31106696,8.733803,4.4985065,3
19993532479124,0.43070808,8.705089,4.4985065,3
19993534858134,0.52163535,8.662018,4.517649,3
19993537237144,0.6221339,8.647661,4.536792,3
19993539616155,0.71306115,8.633304,4.546363,3
19993541995165,0.7704889,8.666803,4.5655055,3
19993544374176,0.8279166,8.642876,4.551149,3
19993546753186,0.8566305,8.63809,4.546363,3
19993549132196,0.8327023,8.652447,4.5415773,3
19993551511207,0.7609176,8.666803,4.570291,3
19993553890165,0.6795616,8.652447,4.6085763,3
19993556269176,0.5599205,8.662018,4.6372905,3
19993558648186,0.4211368,8.657232,4.627719,3
19993561027196,0.26799613,8.676374,4.6229334,3
19993563406207,0.1052842,8.676374,4.6085763,3
19993565785217,-0.009571291,8.690732,4.6085763,3
19993568164228,-0.086141616,8.685946,4.6037908,3
19993570543238,-0.124426775,8.685946,4.618148,3
19993572922249,-0.148355,8.690732,4.6085763,3
19993575301259,-0.11006984,8.700303,4.5894337,3
19993577680217,-0.019142581,8.719446,4.5655055,3
19993580059228,0.06699903,8.748159,4.5320063,3
19993582438238,0.2009971,8.7673025,4.5224347,3
19993584817249,0.32063824,8.762517,4.5272202,3
19993587196259,0.4354937,8.762517,4.5415773,3
19993589575269,0.56470615,8.800801,4.536792,3
19993591954280,0.67477596,8.819944,4.551149,3
19993594333290,0.72741807,8.843872,4.508078,3
19993596712301,0.74177504,8.9013,4.4841495,3
19993599091311,0.7704889,8.891729,4.469793,3
19993601470269,0.7369894,8.906086,4.4554358,3
19993603849280,0.7082755,8.9013,4.45065,3
19993606228290,0.6364908,8.9013,4.421936,3
19993608607301,0.55513483,8.906086,4.426722,3
19993610986311,0.4881358,8.882157,4.3932223,3
19993613365321,0.4019942,8.85823,4.3836513,3
19993615744332,0.34456646,8.843872,4.3932223,3
19993618123342,0.3062813,8.82473,4.402794,3
19993620502301,0.2727818,8.819944,4.4315076,3
19993622881311,0.2632105,8.829515,4.465007,3
19993625260321,0.30149564,8.810373,4.4458647,3
19993627639332,0.36370903,8.800801,4.421936,3
19993630018342,0.4211368,8.810373,4.402794,3
19993632397353,0.51206404,8.815159,4.412365,3
19993634776363,0.6125626,8.805588,4.45065,3
19993637155374,0.71306115,8.819944,4.4841495,3
19993639534384,0.8135597,8.839087,4.517649,3
19993641913342,0.8805587,8.82473,4.517649,3
19993644292353,0.9379865,8.839087,4.4985065,3
19993646671363,1.0097711,8.848659,4.5128636,3
19993649050374,1.0480564,8.829515,4.5224347,3
19993651429384,1.0001999,8.829515,4.5655055,3
19993653808394,0.971486,8.819944,4.584648,3
19993656187405,0.91884387,8.829515,4.6037908,3
19993658566415,0.8327023,8.82473,4.618148,3
19993660945426,0.7465607,8.839087,4.6325045,3
19993663324384,0.64606214,8.843872,4.642076,3
19993665703394,0.57906306,8.839087,4.6564326,3
19993668082405,0.4977071,8.843872,4.666004,3
19993670461363,0.42592242,8.848659,4.6803613,3
19993672840426,0.38285163,8.848659,4.6899323,3
19993675219436,0.33020952,8.839087,4.685147,3
19993677598446,0.29192436,8.810373,4.6803613,3
19993679977457,0.30149564,8.810373,4.685147,3
19993682356467,0.36370903,8.796016,4.6755753,3
19993684735478,0.4019942,8.796016,4.694718,3
19993687114436,0.46899325,8.796016,4.6899323,3
19993689493446,0.5407779,8.781659,4.6899323,3
19993691872457,0.61734825,8.776874,4.6707897,3
19993694251467,0.6652047,8.7673025,4.6372905,3
19993696630478,0.72741807,8.7577305,4.642076,3
19993699009488,0.76570326,8.729017,4.627719,3
19993701388499,0.7800602,8.724232,4.6229334,3
19993703767509,0.7609176,8.681161,4.6037908,3
19993706146467,0.72263247,8.676374,4.584648,3
19993708525530,0.6652047,8.657232,4.5655055,3
19993710904488,0.57906306,8.671589,4.5559344,3
19993713283446,0.47377887,8.700303,4.5320063,3
19993715662509,0.35413775,8.709874,4.517649,3
19993718041519,0.22013968,8.719446,4.493721,3
19993720420530,0.10049855,8.709874,4.4745784,3
19993722799540,-0.023928227,8.71466,4.4315076,3
19993725178551,-0.11485548,8.724232,4.412365,3
19993727557561,-0.18664017,8.729017,4.3932223,3
19993729936519,-0.2727818,8.695518,4.3836513,3
19993732315530,-0.35413775,8.685946,4.359723,3
19993734694540,-0.38763726,8.671589,4.3357944,3
19993737073551,-0.4019942,8.685946,4.3070807,3
19993739452561,-0.36370903,8.705089,4.287938,3
19993741831571,-0.3062813,8.719446,4.2687955,3
19993744210582,-0.22492532,8.709874,4.2927237,3
19993746589540,-0.11006984,8.729017,4.3357944,3
19993748968603,-0.014356935,8.743374,4.369294,3
19993751347613,0.12921242,8.748159,4.402794,3
19993753726624,0.22492532,8.748159,4.4602213,3
19993756105582,0.31585258,8.805588,4.503292,3
19993758484592,0.37806597,8.839087,4.5272202,3
19993760863603,0.4211368,8.848659,4.5942197,3
19993763242613,0.43070808,8.863015,4.666004,3
19993765621624,0.4019942,8.882157,4.733003,3
19993768000634,0.36370903,8.891729,4.7952166,3
19993770379644,0.30149564,8.906086,4.833502,3
19993772758603,0.25842485,8.915657,4.8382874,3
19993775137613,0.24885355,8.920443,4.814359,3
19993777516624,0.2105684,8.906086,4.833502,3
19993779895634,0.18185452,8.886943,4.8382874,3
19993782274644,0.22013968,8.829515,4.833502,3
19993784653655,0.2632105,8.79123,4.8095737,3
19993787032665,0.32542387,8.748159,4.7808595,3
19993789411676,0.4019942,8.705089,4.718646,3
19993791790686,0.4833502,8.647661,4.666004,3
19993794169696,0.57427746,8.6141615,4.6325045,3
19993796548655,0.6364908,8.6141615,4.613362,3
19993798927665,0.72741807,8.585447,4.6085763,3
19993801306676,0.79920274,8.556734,4.6037908,3
19993803685686,0.8422736,8.590233,4.5559344,3
19993806064696,0.8757731,8.623733,4.503292,3
19993808443707,0.89013004,8.63809,4.421936,3
19993810822717,0.8709874,8.657232,4.3740797,3
19993813201728,0.83748794,8.662018,4.3501515,3
19993815580738,0.7800602,8.676374,4.345366,3
19993817959749,0.72263247,8.709874,4.3357944,3
19993820338707,0.6652047,8.724232,4.2975097,3
19993822717717,0.57906306,8.724232,4.2592244,3
19993825096728,0.5024927,8.748159,4.2448673,3
19993827475738,0.41156548,8.776874,4.240082,3
19993829854749,0.3493521,8.7673025,4.2592244,3
19993832233759,0.26799613,8.776874,4.2831526,3
19993834612769,0.24885355,8.796016,4.3357944,3
19993836991780,0.22492532,8.786445,4.3357944,3
19993839370790,0.2440679,8.772088,4.3405805,3
19993841749749,0.28235307,8.796016,4.3405805,3
19993844128759,0.32542387,8.796016,4.354937,3
19993846507769,0.3924229,8.7673025,4.398008,3
19993848886780,0.44985065,8.738588,4.469793,3
19993851265790,0.5072784,8.729017,4.5320063,3
19993853644801,0.56470615,8.705089,4.5942197,3
19993856023811,0.63170516,8.700303,4.6325045,3
19993858402821,0.66999036,8.705089,4.6612186,3
19993860781780,0.66999036,8.685946,4.723432,3
19993863160790,0.65084773,8.690732,4.776074,3
19993865539749,0.6364908,8.709874,4.814359,3
19993867918811,0.6029913,8.729017,4.8622155,3
19993870297821,0.57427746,8.7577305,4.8765726,3
19993872676832,0.52163535,8.7673025,4.9292145,3
19993875055842,0.45942193,8.79123,4.962714,3
19993877434853,0.4354937,8.810373,4.962714,3
19993879813863,0.4019942,8.805588,4.9531426,3
19993882192821,0.36370903,8.839087,4.9435716,3
19993884571832,0.34456646,8.867801,4.924429,3
19993886950842,0.3397808,8.853444,4.9052863,3
19993889329853,0.3589234,8.843872,4.895715,3
19993891708863,0.42592242,8.819944,4.867001,3
19993894087874,0.4642076,8.810373,4.800002,3
19993896466884,0.5024927,8.805588,4.766503,3
19993898845894,0.5694918,8.772088,4.733003,3
19993901224905,0.5982057,8.738588,4.718646,3
19993903603863,0.6029913,8.71466,4.7042894,3
19993905982874,0.60777694,8.705089,4.7042894,3
19993908361884,0.5886344,8.685946,4.613362,3
19993910740894,0.57906306,8.71466,4.5128636,3
19993913119905,0.5599205,8.719446,4.388437,3
19993915498915,0.5407779,8.752945,4.3357944,3
19993917877926,0.49292147,8.772088,4.321438,3
19993920256936,0.44506502,8.819944,4.369294,3
19993922635946,0.4211368,8.834301,4.359723,3
19993925014905,0.3924229,8.810373,4.287938,3
19993927393915,0.38763726,8.863015,4.211368,3
19993929772926,0.41156548,8.810373,4.1874394,3
19993932151936,0.4642076,8.772088,4.2592244,3
19993934530946,0.5407779,8.772088,4.3836513,3
19993936909957,0.63170516,8.772088,4.4985065,3
19993939288967,0.72263247,8.796016,4.5128636,3
19993941667978,0.82313097,8.800801,4.4075794,3
19993944046988,0.8997013,8.819944,4.3262234,3
19993946425999,0.9379865,8.810373,4.3118663,3
19993948804957,0.9810573,8.800801,4.4075794,3
19993951183967,0.9954142,8.805588,4.546363,3
19993953562926,1.0097711,8.796016,4.6325045,3
19993955941988,0.9954142,8.800801,4.6229334,3
19993958320999,0.971486,8.810373,4.517649,3
19993960699957,0.9236295,8.819944,4.4075794,3
19993963079019,0.89013004,8.819944,4.4075794,3
19993965458030,0.8757731,8.82473,4.4554358,3
19993967837040,0.8327023,8.819944,4.536792,3
19993970215999,0.79920274,8.843872,4.546363,3
19993972595009,0.7465607,8.829515,4.5128636,3
19993974974019,0.7322037,8.800801,4.398008,3
19993977353030,0.66041905,8.796016,4.3118663,3
19993979732040,0.59342,8.772088,4.321438,3
19993982111051,0.5599205,8.7673025,4.388437,3
19993984490061,0.51206404,8.776874,4.4315076,3
19993986869071,0.47856453,8.781659,4.421936,3
19993989248082,0.41635114,8.79123,4.3740797,3
19993991627092,0.37806597,8.786445,4.321438,3
19993994006051,0.30149564,8.800801,4.321438,3
19993996385061,0.2440679,8.810373,4.3836513,3
19993998764071,0.21535404,8.796016,4.4171505,3
19994001143082,0.18664017,8.796016,4.4171505,3
19994003522092,0.11006984,8.79123,4.3645086,3
19994005901103,0.09092726,8.762517,4.278367,3
19994008280113,0.076570325,8.724232,4.2592244,3
19994010659124,0.07178468,8.690732,4.321438,3
19994013038082,0.086141616,8.642876,4.4602213,3
19994015417092,0.13878371,8.60459,4.575077,3
19994017796051,0.16271193,8.5423765,4.642076,3
19994020175113,0.16271193,8.537591,4.694718,3
19994022554124,0.2440679,8.499306,4.6372905,3
19994024933134,0.28713873,8.475378,4.5894337,3
19994027312144,0.30149564,8.504091,4.5942197,3
19994029691155,0.36370903,8.484949,4.6803613,3
19994032070165,0.3924229,8.484949,4.7425747,3
19994034449124,0.38763726,8.537591,4.7712884,3
19994036828082,0.41156548,8.56152,4.723432,3
19994039207144,0.37328035,8.6141615,4.709075,3
19994041586155,0.33499518,8.652447,4.6755753,3
19994043965165,0.29192436,8.695518,4.6755753,3
19994046344176,0.2727818,8.738588,4.685147,3
19994048723186,0.21535404,8.772088,4.6612186,3
19994051102196,0.13399807,8.79123,4.6085763,3
19994053481207,0.09571291,8.79123,4.584648,3
19994055860165,0.019142581,8.800801,4.5320063,3
19994058239176,-0.014356935,8.810373,4.4458647,3
19994060618186,-0.076570325,8.85823,4.421936,3
19994062997196,-0.047856454,8.819944,4.3740797,3
19994065376207,-0.05742774,8.781659,4.369294,3
19994067755217,-0.033499517,8.743374,4.4315076,3
19994070134228,0.014356935,8.724232,4.479364,3
19994072513238,0.12921242,8.705089,4.493721,3
19994074892249,0.20578274,8.729017,4.412365,3
19994077271207,0.31585258,8.743374,4.2927237,3
19994079650217,0.43070808,8.772088,4.249653,3
19994082029228,0.5407779,8.7673025,4.2257247,3
19994084408238,0.5982057,8.762517,4.302295,3
19994086787249,0.6939186,8.743374,4.402794,3
19994089166259,0.7609176,8.685946,4.4458647,3
19994091545269,0.7848458,8.705089,4.493721,3
19994093924280,0.7800602,8.719446,4.479364,3
19994096303290,0.72741807,8.752945,4.421936,3
19994098682301,0.65084773,8.7673025,4.3405805,3
19994101061259,0.57427746,8.772088,4.3070807,3
19994103440269,0.5072784,8.743374,4.3836513,3
19994105819280,0.4211368,8.752945,4.5128636,3
19994108198290,0.33499518,8.709874,4.5942197,3
19994110577301,0.31585258,8.743374,4.5559344,3
19994112956311,0.26799613,8.733803,4.479364,3
19994115335321,0.28235307,8.738588,4.4554358,3
19994117714332,0.32542387,8.733803,4.56072,3
19994120093290,0.3684947,8.729017,4.699504,3
19994122472301,0.42592242,8.738588,4.776074,3
19994124851311,0.51206404,8.752945,4.8047876,3
19994127230321,0.57906306,8.7673025,4.752146,3
19994129609332,0.64606214,8.800801,4.6803613,3
19994131988342,0.6939186,8.810373,4.666004,3
19994134367353,0.72741807,8.810373,4.7425747,3
19994136746363,0.74177504,8.810373,4.871787,3
19994139125374,0.7704889,8.848659,5.0009995,3
19994141504332,0.7369894,8.882157,5.0009995,3
19994143883342,0.7465607,8.949157,4.85743,3
19994146262353,0.72741807,8.963513,4.6755753,3
19994148641363,0.7082755,8.997013,4.613362,3
19994151020374,0.70348984,8.997013,4.6372905,3
19994153399384,0.6652047,8.973084,4.7042894,3
19994155778394,0.6412765,8.939586,4.800002,3
19994158157405,0.6221339,8.891729,4.8765726,3
19994160536415,0.57906306,8.867801,4.833502,3
19994162915374,0.5312066,8.848659,4.7425747,3
19994165294384,0.49292147,8.815159,4.6564326,3
19994167673394,0.49292147,8.79123,4.6468616,3
19994170052405,0.46899325,8.772088,4.6899323,3
19994172431415,0.44985065,8.776874,4.776074,3
19994174810374,0.4642076,8.752945,4.800002,3
19994177189436,0.44985065,8.781659,4.699504,3
19994179568446,0.45942193,8.762517,4.613362,3
19994181947457,0.55034924,8.719446,4.536792,3
19994184326467,0.5838487,8.700303,4.546363,3
19994186705426,0.6652047,8.695518,4.5894337,3
19994189084436,0.79920274,8.652447,4.642076,3
19994191463446,0.9236295,8.628518,4.599005,3
19994193842457,0.98584294,8.628518,4.503292,3
19994196221467,1.0624132,8.633304,4.3836513,3
19994198600478,1.1150553,8.652447,4.3740797,3
19994200979488,1.0719845,8.633304,4.369294,3
19994203358499,0.9810573,8.623733,4.402794,3
19994205737509,0.9619147,8.633304,4.469793,3
19994208116467,0.8709874,8.633304,4.4985065,3
19994210495478,0.7752745,8.623733,4.4985065,3
19994212874488,0.7369894,8.657232,4.465007,3
19994215253499,0.7800602,8.671589,4.412365,3
19994217632509,0.7752745,8.652447,4.369294,3
19994220011519,0.79920274,8.662018,4.398008,3
19994222390530,0.89491564,8.63809,4.45065,3
19994224769540,1.0145568,8.628518,4.5272202,3
19994227148551,1.0959128,8.623733,4.546363,3
19994229527509,1.2011969,8.642876,4.5320063,3
19994231906519,1.2777673,8.633304,4.517649,3
19994234285530,1.3447664,8.618947,4.508078,3
19994236664540,1.4117653,8.63809,4.5128636,3
19994239043551,1.4404793,8.681161,4.551149,3
19994241422561,1.4644074,8.681161,4.6037908,3
19994243801571,1.4596218,8.71466,4.6468616,3
19994246180582,1.4835501,8.733803,4.642076,3
19994248559592,1.4931214,8.762517,4.599005,3
19994250938551,1.4500505,8.805588,4.551149,3
19994253317561,1.416551,8.815159,4.5128636,3
19994255696571,1.3782659,8.805588,4.5128636,3
19994258075582,1.3016955,8.829515,4.5128636,3
19994260454592,1.2490535,8.819944,4.546363,3
19994262833603,1.1964114,8.786445,4.56072,3
19994265212613,1.1102697,8.7673025,4.5320063,3
19994267591624,1.0719845,8.781659,4.551149,3
19994269970582,1.0480564,8.7673025,4.546363,3
19994272349592,0.9762716,8.729017,4.5415773,3
19994274728603,0.9619147,8.705089,4.570291,3
19994277107613,0.9619147,8.685946,4.551149,3
19994279486624,0.9667004,8.681161,4.517649,3
19994281865634,0.9284152,8.657232,4.493721,3
19994284244644,0.9236295,8.599805,4.4458647,3
19994286623655,0.89013004,8.580662,4.4171505,3
19994289002665,0.85184485,8.571091,4.426722,3
19994291381676,0.80877405,8.547162,4.4410787,3
19994293760634,0.7704889,8.5423765,4.4315076,3
19994296139644,0.75613195,8.5423765,4.4458647,3
19994298518655,0.7513463,8.5423765,4.4410787,3
19994300897665,0.7465607,8.575876,4.426722,3
19994303276676,0.74177504,8.575876,4.4075794,3
19994305655686,0.76570326,8.623733,4.4315076,3
19994308034696,0.7609176,8.671589,4.465007,3
19994310413707,0.7752745,8.652447,4.479364,3
19994312792717,0.79920274,8.647661,4.4985065,3
19994315171728,0.7896315,8.647661,4.5320063,3
19994317550686,0.7848458,8.685946,4.546363,3
19994319929696,0.8039884,8.671589,4.5559344,3
19994322308707,0.82313097,8.676374,4.570291,3
19994324687717,0.8135597,8.662018,4.6037908,3
19994327066728,0.8327023,8.657232,4.627719,3
19994329445738,0.82313097,8.662018,4.651647,3
19994331824749,0.79920274,8.657232,4.6612186,3
19994334203759,0.76570326,8.657232,4.642076,3
19994336582717,0.74177504,8.60459,4.627719,3
19994338961728,0.6939186,8.6141615,4.642076,3
19994341340738,0.63170516,8.618947,4.6468616,3
19994343719749,0.5694918,8.633304,4.6803613,3
19994346098759,0.49292147,8.647661,4.694718,3
19994348477769,0.40677986,8.652447,4.694718,3
19994350856780,0.41635114,8.657232,4.6755753,3
19994353235790,0.3684947,8.681161,4.6325045,3
19994355614801,0.32542387,8.671589,4.6085763,3
19994357993759,0.31106696,8.695518,4.599005,3
19994360372769,0.31106696,8.705089,4.5894337,3
19994362751780,0.33020952,8.709874,4.570291,3
19994365130790,0.3493521,8.71466,4.56072,3
19994367509801,0.37328035,8.729017,4.56072,3
19994369888811,0.4019942,8.724232,4.536792,3
19994372267821,0.44985065,8.733803,4.517649,3
19994374646832,0.4881358,8.752945,4.503292,3
19994377025842,0.526421,8.776874,4.45065,3
19994379404801,0.56470615,8.776874,4.4554358,3
19994381783811,0.5886344,8.79123,4.426722,3
19994384162821,0.6221339,8.800801,4.4171505,3
19994386541832,0.6221339,8.82473,4.4315076,3
19994388920790,0.64606214,8.82473,4.436293,3
19994391299853,0.64606214,8.863015,4.4315076,3
19994393678863,0.6269195,8.867801,4.436293,3
19994396057874,0.5982057,8.9108715,4.45065,3
19994398436832,0.5838487,8.920443,4.4554358,3
19994400815842,0.55513483,8.915657,4.493721,3
19994403194853,0.51206404,8.915657,4.517649,3
19994405573863,0.5024927,8.906086,4.536792,3
19994407952874,0.4977071,8.877372,4.546363,3
19994410331884,0.5168497,8.839087,4.5415773,3
19994412710894,0.5407779,8.843872,4.517649,3
19994415089905,0.56470615,8.82473,4.4985065,3
19994417468915,0.57906306,8.82473,4.5224347,3
19994419847874,0.60777694,8.796016,4.536792,3
19994422226884,0.65084773,8.776874,4.5655055,3
19994424605894,0.6652047,8.7673025,4.5798626,3
19994426984905,0.71306115,8.71466,4.5942197,3
19994429363915,0.7322037,8.700303,4.6037908,3
19994431742926,0.7369894,8.695518,4.613362,3
19994434121936,0.7369894,8.695518,4.613362,3
19994436500946,0.7465607,8.690732,4.618148,3
19994438879957,0.7369894,8.690732,4.6325045,3
19994441258967,0.7465607,8.685946,4.6468616,3
19994443637926,0.70348984,8.685946,4.666004,3
19994446016936,0.7082755,8.700303,4.6803613,3
19994448395946,0.6843473,8.695518,4.6755753,3
19994450774957,0.6891329,8.695518,4.6899323,3
19994453153967,0.6795616,8.71466,4.685147,3
19994455532978,0.6891329,8.719446,4.6564326,3
19994457911988,0.6843473,8.729017,4.6564326,3
19994460290999,0.70348984,8.71466,4.627719,3
19994462670009,0.7178468,8.705089,4.6468616,3
19994465048967,0.7322037,8.733803,4.642076,3
19994467427978,0.72263247,8.71466,4.6468616,3
19994469806988,0.7513463,8.695518,4.651647,3
19994472185999,0.76570326,8.676374,4.613362,3
19994474565009,0.7704889,8.647661,4.5655055,3
19994476944019,0.7465607,8.657232,4.536792,3
19994479323030,0.74177504,8.652447,4.536792,3
19994481702040,0.70348984,8.662018,4.5559344,3
19994484081051,0.6412765,8.666803,4.570291,3
19994486460061,0.5838487,8.652447,4.584648,3
19994488839019,0.55034924,8.642876,4.5894337,3
19994491218030,0.51206404,8.642876,4.584648,3
19994493597040,0.4546363,8.666803,4.5798626,3
19994495976051,0.43070808,8.662018,4.599005,3
19994498355061,0.40677986,8.690732,4.6085763,3
19994500734071,0.4354937,8.676374,4.6372905,3
19994503113082,0.49292147,8.705089,4.6564326,3
19994505492092,0.5024927,8.709874,4.6564326,3
19994507871051,0.55034924,8.71466,4.6707897,3
19994510250061,0.6221339,8.705089,4.6803613,3
19994512629071,0.6652047,8.700303,4.666004,3
19994515008082,0.7513463,8.685946,4.6372905,3
19994517387092,0.81834537,8.700303,4.642076,3
19994519766103,0.89013004,8.705089,4.6468616,3
19994522145113,0.93320084,8.705089,4.613362,3
19994524524124,0.94277215,8.709874,4.584648,3
19994526903134,0.9810573,8.71466,4.546363,3
19994529282092,0.98584294,8.662018,4.5272202,3
19994531661103,0.9954142,8.676374,4.503292,3
19994534040113,0.9762716,8.671589,4.4841495,3
19994536419124,0.94755775,8.657232,4.469793,3
19994538798134,0.8662018,8.63809,4.469793,3
19994541177144,0.8422736,8.628518,4.4841495,3
19994543556155,0.7800602,8.652447,4.493721,3
19994545935165,0.7082755,8.657232,4.503292,3
19994548314176,0.66041905,8.647661,4.508078,3
19994550693134,0.60777694,8.652447,4.5128636,3
19994553072144,0.5694918,8.662018,4.508078,3
19994555451155,0.5168497,8.695518,4.4985065,3
19994557830165,0.4833502,8.690732,4.4985065,3
19994560209176,0.46899325,8.685946,4.5128636,3
19994562588186,0.46899325,8.709874,4.5272202,3
19994564967196,0.47856453,8.724232,4.5320063,3
19994567346155,0.5024927,8.743374,4.5224347,3
19994569725217,0.57906306,8.709874,4.5320063,3
19994572104176,0.6556334,8.71466,4.517649,3
19994574483186,0.71306115,8.700303,4.5320063,3
19994576862196,0.7848458,8.652447,4.5272202,3
19994579241207,0.8566305,8.666803,4.5272202,3
19994581620165,0.91884387,8.681161,4.536792,3
19994583999228,0.95712906,8.676374,4.56072,3
19994586378238,0.971486,8.676374,4.5942197,3
19994588757249,0.9954142,8.671589,4.6085763,3
19994591136259,1.0049855,8.671589,4.6229334,3
19994593515269,0.971486,8.676374,4.6564326,3
19994595894228,0.91884387,8.652447,4.6803613,3
19994598273238,0.8805587,8.628518,4.6755753,3
19994600652249,0.8709874,8.623733,4.6755753,3
19994603031259,0.8566305,8.60459,4.6755753,3
19994605410269,0.85184485,8.580662,4.6707897,3
19994607789280,0.82313097,8.585447,4.6612186,3
19994610168290,0.80877405,8.566305,4.6325045,3
19994612547301,0.79441714,8.575876,4.6325045,3
19994614926259,0.8039884,8.566305,4.627719,3
19994617305269,0.83748794,8.5423765,4.6085763,3
19994619684280,0.8853444,8.518449,4.5798626,3
19994622063290,0.9284152,8.537591,4.546363,3
19994624442301,0.9906286,8.5423765,4.5224347,3
19994626821311,1.0145568,8.566305,4.503292,3
19994629200321,1.0576276,8.60459,4.4841495,3
19994631579280,1.0815558,8.633304,4.479364,3
19994633958342,1.0719845,8.666803,4.4554358,3
19994636337301,1.052842,8.681161,4.4554358,3
19994638716311,1.0097711,8.709874,4.4315076,3
19994641095321,0.94277215,8.733803,4.402794,3
19994643474280,0.89013004,8.7673025,4.4171505,3
19994645853342,0.81834537,8.815159,4.398008,3
19994648232353,0.7322037,8.853444,4.388437,3
19994650611363,0.6939186,8.82473,4.3836513,3
19994652990374,0.60777694,8.695518,4.359723,3
19994655369384,0.5407779,8.7577305,4.331009,3
19994657748342,0.5694918,8.949157,4.1778684,3
19994660127353,0.5024927,9.040084,4.249653,3
19994662506363,0.23928227,8.882157,4.5655055,3
19994664885374,0.29192436,8.82473,4.7282176,3
19994667264384,0.6125626,9.107083,4.761717,3
19994669643342,0.9236295,8.944371,4.3118663,3
19994672022405,0.23928227,8.796016,4.618148,3
19994674401415,0.6221339,8.394022,4.359723,3
19994676780426,1.253839,8.484949,4.101298,3
19994679159384,1.2442678,8.327023,3.2350962,3
19994681538394,0.59342,8.26481,3.062813,3
19994683917405,0.4354937,8.336594,4.034299,3
19994686296415,0.89013004,8.504091,4.847859,3
19994688675426,0.6364908,9.131011,5.9246287,3
19994691054436,0.82313097,9.19801,6.0490556,3
19994693433446,0.5838487,8.896515,5.5369916,3
19994695812457,1.3112668,9.293723,4.5559344,3
19994698191415,1.5696917,9.518648,4.1108694,3
19994700570426,1.9142581,8.729017,3.9433718,3
19994702949436,1.5744773,8.7673025,5.278567,3
19994705328446,1.9190438,9.403793,6.273981,3
19994707707457,1.9716859,8.685946,5.5226345,3
19994710086467,1.4356936,8.642876,4.8909297,3
19994712465478,1.4931214,8.877372,3.493521,3
19994714844488,1.3926228,9.456435,3.507878,3
19994717223499,1.1389836,9.044869,4.1108694,3
19994719602509,0.82313097,8.7577305,4.9674997,3
19994721981467,0.8039884,8.829515,5.6757755,3
19994724360478,0.8470592,8.71466,5.5513487,3
19994726739488,0.6029913,8.618947,4.74736,3
19994729118499,0.53599226,8.71466,3.6658044,3
19994731497509,0.4211368,8.829515,3.2398818,3
19994733876519,0.27756742,8.575876,3.4983068,3
19994736255530,0.076570325,8.556734,4.4841495,3
19994738634540,-0.023928227,8.532805,5.3742795,3
19994741013551,-0.047856454,8.480164,5.6949177,3
19994743392509,0.047856454,8.484949,5.245067,3
19994745771519,0.30149564,8.738588,4.4554358,3
19994748150530,0.4977071,8.848659,3.8620157,3
19994750529540,0.75613195,8.796016,3.7088752,3
19994752908551,0.9810573,8.882157,4.1874394,3
19994755287561,1.1006985,8.886943,4.752146,3
19994757666571,1.1102697,8.752945,5.058427,3
19994760045582,1.1916257,8.738588,4.948357,3
19994762424592,1.2107682,8.968299,4.575077,3
19994764803551,1.1006985,8.9826565,4.1443686,3
19994767182561,0.94277215,8.9108715,4.048656,3
19994769561571,0.85184485,8.953942,4.3357944,3
19994771940582,0.6795616,8.953942,4.7808595,3
19994774319592,0.53599226,8.891729,5.0344987,3
19994776698603,0.40677986,8.886943,4.9292145,3
19994779077613,0.3397808,8.997013,4.5224347,3
19994781456624,0.19142582,9.01137,4.0869412,3
19994783835582,0.10049855,8.944371,3.9146578,3
19994786214592,-0.023928227,8.906086,4.1347976,3
19994788593603,-0.0526421,8.800801,4.5128636,3
19994790972613,0.0,8.647661,4.8526444,3
19994793351624,0.124426775,8.56152,4.9340005,3
19994795730634,0.29192436,8.489735,4.6755753,3
19994798109644,0.4977071,8.489735,4.220939,3
19994800488655,0.5694918,8.556734,3.7328033,3
19994802867665,0.80877405,9.269794,4.0295134,3
19994805246624,0.90448695,8.63809,3.9338005,3
19994807625634,1.0671989,8.63809,4.718646,3
19994810004644,1.3064811,8.451449,4.7425747,3
19994812383655,1.6319051,8.370093,4.7425747,3
19994814762665,1.5936198,8.212168,4.790431,3
19994817141624,1.5840486,8.403593,4.599005,3
19994819520686,1.4787644,8.733803,4.551149,3
19994821899696,1.1772687,8.585447,4.7138605,3
19994824278707,0.82313097,8.504091,4.9866424,3
19994826657665,0.7704889,8.700303,4.9722853,3
19994829036676,0.7322037,8.551949,4.7377887,3
19994831415686,0.5455636,8.518449,4.6229334,3
19994833794696,0.4019942,8.580662,4.287938,3
19994836173707,0.25842485,8.872586,4.354937,3
19994838552717,0.05742774,8.681161,4.436293,3
19994840931728,-0.124426775,8.585447,4.493721,3
19994843310738,-0.2105684,8.915657,4.8047876,3
19994845689749,0.009571291,8.695518,4.426722,3
19994848068707,0.043070808,8.580662,4.402794,3
19994850447717,0.2536392,8.724232,4.4554358,3
19994852826728,0.40677986,8.724232,4.508078,3
19994855205738,0.5024927,8.633304,4.8095737,3
19994857584749,0.64606214,8.518449,4.910072,3
19994859963759,0.95712906,8.623733,4.9292145,3
19994862342769,1.2011969,8.575876,4.895715,3
19994864721728,1.4069797,8.480164,4.8526444,3
19994867100790,1.4979069,8.60459,4.9435716,3
19994869479749,1.5218352,8.700303,5.072784,3
19994871858759,1.4261223,8.618947,5.058427,3
19994874237769,1.2059826,8.695518,5.0105705,3
19994876616780,1.0911272,8.920443,4.7808595,3
19994878995790,0.89013004,8.877372,4.388437,3
19994881374801,0.6891329,8.772088,4.115655,3
19994883753811,0.4881358,8.819944,4.0773697,3
19994886132821,0.2727818,8.781659,4.1922255,3
19994888511832,0.124426775,8.60459,4.493721,3
19994890890790,-0.023928227,8.408379,4.6707897,3
19994893269801,-0.13399807,8.365308,4.7952166,3
19994895648811,-0.124426775,8.518449,4.8191447,3
19994898027821,-0.12921242,8.551949,4.5272202,3
19994900406832,-0.148355,8.595019,4.402794,3
19994902785842,-0.0047856453,8.700303,4.321438,3
19994905164853,0.24885355,8.762517,4.345366,3
19994907543863,0.55513483,8.724232,4.4171505,3
19994909922874,0.79441714,8.647661,4.412365,3
19994912301832,1.0863415,8.705089,4.345366,3
19994914680842,1.3351951,8.733803,4.139583,3
19994917059853,1.4117653,8.724232,3.9960139,3
19994919438863,1.4069797,8.729017,3.9625144,3
19994921817874,1.416551,8.7577305,4.101298,3
19994924196884,1.3495519,8.695518,4.3070807,3
19994926575894,1.18684,8.652447,4.493721,3
19994928954905,1.0097711,8.676374,4.5798626,3
19994931333915,0.79441714,8.681161,4.575077,3
19994933712874,0.57427746,8.733803,4.5272202,3
19994936091884,0.3493521,8.819944,4.508078,3
19994938470894,0.15792629,8.891729,4.5320063,3
19994940849905,0.0526421,8.930014,4.618148,3
19994943228915,-0.02871387,8.930014,4.7138605,3
19994945607926,-0.08135597,8.939586,4.776074,3
19994947986936,-0.0526421,8.939586,4.7808595,3
19994950365946,0.0047856453,8.9013,4.761717,3
19994952744957,0.11485548,8.925228,4.7856455,3
19994955123967,0.29192436,8.9013,4.800002,3
19994957502926,0.5024927,8.863015,4.8047876,3
19994959881936,0.70348984,8.829515,4.8047876,3
19994962260946,0.8997013,8.82473,4.761717,3
19994964639957,1.052842,8.82473,4.685147,3
19994967018967,1.1772687,8.819944,4.6372905,3
19994969397978,1.2490535,8.815159,4.6085763,3
19994971776988,1.2873386,8.796016,4.5942197,3
19994974155946,1.2442678,8.7673025,4.584648,3
19994976534957,1.1581261,8.729017,4.5798626,3
19994978913967,1.0576276,8.738588,4.5655055,3
19994981292978,0.8853444,8.743374,4.5415773,3
19994983671988,0.74177504,8.772088,4.493721,3
19994986050999,0.5982057,8.7673025,4.465007,3
19994988430009,0.5072784,8.776874,4.4602213,3
19994990809019,0.4211368,8.7673025,4.4602213,3
19994993188030,0.3493521,8.748159,4.4458647,3
19994995567040,0.3062813,8.7577305,4.4841495,3
19994997945999,0.29671,8.786445,4.4602213,3
19995000325009,0.33020952,8.772088,4.4602213,3
19995002704019,0.39720857,8.7673025,4.493721,3
19995005083030,0.4977071,8.762517,4.5224347,3
19995007462040,0.63170516,8.733803,4.5559344,3
19995009841051,0.75613195,8.71466,4.56072,3
19995012220061,0.9236295,8.719446,4.551149,3
19995014599071,1.038485,8.719446,4.5415773,3
19995016978082,1.1150553,8.709874,4.508078,3
19995019357040,1.1533405,8.709874,4.4889355,3
19995021736051,1.1724831,8.71466,4.465007,3
19995024115061,1.1485549,8.719446,4.4841495,3
19995026494071,1.0480564,8.700303,4.503292,3
19995028873082,0.89491564,8.671589,4.536792,3
19995031252092,0.7513463,8.657232,4.5415773,3
19995033631103,0.6269195,8.652447,4.551149,3
19995036010113,0.5168497,8.652447,4.517649,3
19995038389124,0.41156548,8.671589,4.503292,3
19995040768082,0.32542387,8.657232,4.508078,3
19995043147092,0.22492532,8.662018,4.546363,3
19995045526051,0.2009971,8.676374,4.551149,3
19995047905113,0.21535404,8.676374,4.5894337,3
19995050284124,0.26799613,8.695518,4.618148,3
19995052663134,0.36370903,8.709874,4.599005,3
19995055042144,0.47377887,8.700303,4.6037908,3
19995057421155,0.5982057,8.705089,4.5894337,3
19995059800165,0.7752745,8.724232,4.6085763,3
19995062179124,0.9523434,8.729017,4.6085763,3
19995064558134,1.1006985,8.705089,4.5655055,3
19995066937144,1.2394822,8.700303,4.551149,3
19995069316155,1.3256238,8.695518,4.503292,3
19995071695165,1.3686945,8.695518,4.4745784,3
19995074074176,1.3830515,8.700303,4.469793,3
19995076453186,1.3160524,8.695518,4.493721,3
19995078832196,1.2251252,8.662018,4.5128636,3
19995081211207,1.1294123,8.657232,4.517649,3
19995083590165,0.9906286,8.671589,4.4985065,3
19995085969176,0.83748794,8.662018,4.4745784,3
19995088348186,0.7082755,8.671589,4.4410787,3
19995090727196,0.5886344,8.671589,4.4602213,3
19995093106207,0.43070808,8.642876,4.4410787,3
19995095485217,0.32063824,8.671589,4.4410787,3
19995097864228,0.24885355,8.657232,4.426722,3
19995100243238,0.2009971,8.666803,4.388437,3
19995102622196,0.20578274,8.662018,4.3740797,3
19995105001207,0.22492532,8.685946,4.3788652,3
19995107380217,0.28235307,8.719446,4.3836513,3
19995109759176,0.37806597,8.719446,4.412365,3
19995112138238,0.47377887,8.729017,4.388437,3
19995114517249,0.5694918,8.752945,4.354937,3
19995116896259,0.65084773,8.776874,4.331009,3
19995119275269,0.74177504,8.800801,4.316652,3
19995121654280,0.7896315,8.839087,4.2831526,3
19995124033290,0.8135597,8.85823,4.278367,3
19995126412196,0.8805587,8.82473,4.278367,3
19995128791259,0.8757731,8.843872,4.2687955,3
19995131170269,0.86141616,8.867801,4.2352962,3
19995133549280,0.86141616,8.877372,4.2352962,3
19995135928290,0.79920274,8.872586,4.2448673,3
19995138307301,0.7704889,8.949157,4.2448673,3
19995140686311,0.6987042,9.006584,4.3118663,3
19995143065321,0.6795616,8.939586,4.3645086,3
19995145444280,0.6652047,8.920443,4.4315076,3
19995147823290,0.61734825,8.963513,4.4889355,3
19995150202301,0.59342,8.973084,4.5559344,3
19995152581311,0.65084773,8.992228,4.584648,3
19995154960321,0.7369894,9.025727,4.5942197,3
19995157339332,0.8279166,9.08794,4.642076,3
19995159718290,1.0001999,9.025727,4.7138605,3
19995162097353,1.2299109,8.977871,4.8095737,3
19995164476363,1.4404793,9.255438,5.0105705,3
19995166855321,1.6462619,9.250652,4.7856455,3
19995169234332,1.8233309,9.006584,4.4410787,3
19995171613342,2.0338993,8.9013,4.426722,3
19995173992353,2.0051854,8.843872,4.7952166,3
19995176371363,1.9286151,8.738588,5.1924253,3
19995178750374,1.8568304,8.41795,5.278567,3
19995181129384,1.6319051,8.3174515,5.2977095,3
19995183508394,1.2777673,8.255239,5.020142,3
19995185887405,1.0001999,8.408379,4.7808595,3
19995188266363,0.6939186,8.250452,4.5272202,3
19995190645374,0.4977071,8.250452,4.5320063,3
19995193024384,0.31585258,8.360522,4.6372905,3
19995195403394,0.30149564,8.413164,4.761717,3
19995197782405,0.38763726,8.331808,4.8191447,3
19995200161415,0.5072784,8.350951,4.761717,3
19995202540426,0.71306115,8.451449,4.709075,3
19995204919436,1.0049855,8.49452,4.651647,3
19995207298446,1.2203395,8.427522,4.6085763,3
19995209677405,1.4739788,8.456235,4.6899323,3
19995212056415,1.5936198,8.4705925,4.871787,3
19995214435426,1.5361922,8.504091,5.0440702,3
19995216814436,1.2921243,8.551949,5.015356,3
19995219193446,1.0336994,8.752945,4.910072,3
19995221572457,0.6556334,8.953942,4.7138605,3
19995223951467,0.19142582,8.977871,4.4075794,3
19995226330426,-0.23928227,9.15494,4.3070807,3
19995228709488,-0.46899325,9.317652,4.469793,3
19995231088446,-0.7848458,9.068798,4.627719,3
19995233467457,-0.9954142,8.819944,4.938786,3
19995235846467,-1.0432707,8.642876,5.5274205,3
19995238225478,-0.7369894,8.566305,5.5369916,3
19995240604488,-0.8709874,8.580662,5.1062837,3
19995242983499,-0.53599226,8.537591,4.5224347,3
19995245362509,-0.023928227,8.6141615,4.2592244,3
19995247741519,0.076570325,8.666803,4.4171505,3
19995250120478,0.33499518,8.580662,4.694718,3
19995252499488,0.6652047,8.49452,4.800002,3
19995254878499,1.0001999,8.633304,4.584648,3
19995257257509,1.105484,8.690732,4.302295,3
19995259636519,1.3543376,8.609376,4.1874394,3
19995262015530,1.5409778,8.590233,4.3118663,3
19995264394540,1.579263,8.695518,4.479364,3
19995266773551,1.6271194,8.709874,4.584648,3
19995269152561,1.5744773,8.690732,4.6372905,3
19995271531571,1.4644074,8.829515,4.56072,3
19995273910530,1.2346965,8.896515,4.359723,3
19995276289540,1.0576276,8.882157,4.1443686,3
19995278668551,0.8422736,8.863015,3.9720855,3
19995281047561,0.5838487,8.906086,3.9864426,3
19995283426571,0.43070808,8.886943,4.168297,3
19995285805582,0.3589234,8.748159,4.426722,3
19995288184592,0.38285163,8.776874,4.5655055,3
19995290563603,0.47377887,8.752945,4.412365,3
19995292942561,0.6939186,8.819944,4.130012,3
19995295321571,0.9236295,8.810373,3.8524444,3
19995297700582,1.1485549,8.800801,3.885944,3
19995300079592,1.4644074,8.690732,4.1635113,3
19995302458603,1.6941184,8.618947,4.5272202,3
19995304837613,1.861616,8.599805,4.6612186,3
19995307216624,1.9764715,8.60459,4.5320063,3
19995309595634,2.0578275,8.551949,4.23051,3
19995311974644,2.053042,8.523234,4.034299,3
19995314353603,1.9669002,8.465807,4.091727,3
19995316732613,1.8233309,8.41795,4.2975097,3
19995319111624,1.5744773,8.398808,4.584648,3
19995321490634,1.3543376,8.384451,4.7282176,3
19995323869644,1.0671989,8.480164,4.723432,3
19995326248655,0.86141616,8.685946,4.6085763,3
19995328627665,0.72741807,8.829515,4.3740797,3
19995331006676,0.6987042,9.08794,4.4171505,3
19995333385686,0.70348984,9.150154,4.6085763,3
19995335764644,0.8039884,9.145369,4.627719,3
19995338143655,0.8470592,9.221938,4.584648,3
19995340522665,0.94755775,9.150154,4.508078,3
19995342901676,1.1389836,8.977871,4.6803613,3
19995345280686,1.2873386,8.82473,4.843073,3
19995347659696,1.4356936,8.882157,4.8622155,3
19995350038707,1.5936198,8.796016,4.6325045,3
19995352417717,1.7467605,8.580662,4.321438,3
19995354796728,1.875973,8.571091,4.1108694,3
19995357175686,1.8520447,8.662018,4.101298,3
19995359554696,1.7802601,8.671589,4.206582,3
19995361933707,1.5888343,8.748159,4.3788652,3
19995364312717,1.2873386,8.839087,4.5272202,3
19995366691728,0.8805587,8.786445,4.584648,3
19995369070738,0.5072784,8.752945,4.570291,3
19995371449749,0.09092726,8.724232,4.493721,3
19995373828759,-0.29192436,8.681161,4.5224347,3
19995376207769,-0.5838487,8.628518,4.74736,3
19995378586728,-0.8039884,8.623733,4.9531426,3
19995380965738,-0.9667004,8.642876,4.962714,3
19995383344749,-1.038485,8.748159,4.867001,3
19995385723759,-1.0241281,8.776874,4.618148,3
19995388102717,-1.0049855,8.810373,4.4075794,3
19995390481780,-0.90448695,8.805588,4.273581,3
19995392860790,-0.7609176,8.776874,4.3357944,3
19995395239801,-0.5694918,8.79123,4.599005,3
19995397618759,-0.4211368,8.695518,4.843073,3
19995399997769,-0.2632105,8.666803,4.962714,3
19995402376728,-0.07178468,8.690732,4.800002,3
19995404755790,0.06699903,8.705089,4.4458647,3
19995407134801,0.17228323,8.700303,4.130012,3
19995409513811,0.2105684,8.700303,4.0103707,3
19995411892821,0.29192436,8.743374,4.125226,3
19995414271832,0.3062813,8.82473,4.302295,3
19995416650842,0.3062813,8.944371,4.421936,3
19995419029853,0.31585258,8.953942,4.508078,3
19995421408811,0.37806597,8.915657,4.6085763,3
19995423787821,0.41635114,8.834301,4.761717,3
19995426166832,0.4881358,8.71466,5.0105705,3
19995428545842,0.6556334,8.580662,5.2977095,3
19995430924853,0.8422736,8.532805,5.503492,3
19995433303863,1.0241281,8.480164,5.5369916,3
19995435682874,1.2107682,8.389236,5.4221363,3
19995438061884,1.4835501,8.379665,5.235496,3
19995440440894,1.7611175,8.456235,5.015356,3
19995442819853,1.9525433,8.446664,4.8526444,3
19995445198863,2.1774685,8.398808,4.776074,3
19995447577874,2.3449662,8.422736,4.7808595,3
19995449956884,2.4454648,8.422736,4.900501,3
19995452335894,2.5459633,8.30788,4.910072,3
19995454714905,2.5603201,8.360522,4.900501,3
19995457093915,2.5459633,8.480164,4.7569313,3
19995459472926,2.4311078,8.547162,4.584648,3
19995461851884,2.321038,8.623733,4.4171505,3
19995464230894,2.0817556,8.748159,4.3405805,3
19995466609905,1.8376877,8.796016,4.3645086,3
19995468988863,1.5409778,8.800801,4.4075794,3
19995471367926,1.2059826,8.882157,4.321438,3
19995473746936,0.86141616,8.973084,4.1443686,3
19995476125946,0.5407779,8.977871,3.9146578,3
19995478504957,0.27756742,9.030513,3.7471602,3
19995480883967,0.038285162,9.030513,3.7854455,3
19995483262926,-0.08135597,8.987442,3.900301,3
19995485641936,-0.14356937,8.867801,4.0103707,3
19995488020946,-0.12921242,8.829515,4.048656,3
19995490399957,-0.023928227,8.843872,3.991228,3
19995492778967,0.09092726,8.829515,3.871587,3
19995495157978,0.2440679,8.815159,3.8524444,3
19995497536988,0.4211368,8.796016,3.991228,3
19995499915999,0.5694918,8.719446,4.2448673,3
19995502295009,0.7082755,8.63809,4.479364,3
19995504673967,0.79441714,8.551949,4.6085763,3
19995507052978,0.8805587,8.523234,4.651647,3
19995509431988,0.94277215,8.52802,4.613362,3
19995511810999,0.9906286,8.595019,4.5894337,3
19995514190009,1.0624132,8.671589,4.5894337,3
19995516569019,1.1294123,8.733803,4.6325045,3
19995518948030,1.1772687,8.762517,4.6899323,3
19995521327040,1.2203395,8.800801,4.7712884,3
19995523706051,1.2442678,8.805588,4.814359,3
19995526085061,1.253839,8.762517,4.7808595,3
19995528464019,1.2394822,8.719446,4.733003,3
19995530843030,1.2107682,8.647661,4.7042894,3
19995533222040,1.18684,8.642876,4.7282176,3
19995535601051,1.1102697,8.63809,4.7712884,3
19995537980061,1.052842,8.647661,4.7856455,3
19995540359071,0.9667004,8.642876,4.7042894,3
19995542738082,0.91884387,8.681161,4.584648,3
19995545117092,0.8805587,8.71466,4.469793,3
19995547496051,0.8422736,8.71466,4.4410787,3
19995549875061,0.80877405,8.71466,4.4889355,3
19995552254071,0.7465607,8.685946,4.599005,3
19995554633082,0.67477596,8.647661,4.752146,3
19995557012092,0.61734825,8.633304,4.8526444,3
19995559391103,0.5455636,8.6141615,4.8861437,3
19995561770113,0.45942193,8.599805,4.85743,3
19995564149124,0.40677986,8.6141615,4.7712884,3
19995566528134,0.32063824,8.657232,4.666004,3
19995568907092,0.22971097,8.705089,4.5894337,3
19995571286103,0.18185452,8.7577305,4.5320063,3
19995573665113,0.09571291,8.781659,4.503292,3
19995576044124,0.047856454,8.82473,4.4889355,3
19995578423082,0.02871387,8.848659,4.4410787,3
19995580802144,0.07178468,8.848659,4.398008,3
19995583181155,0.09571291,8.85823,4.398008,3
19995585560165,0.16271193,8.85823,4.398008,3
19995587939124,0.2536392,8.882157,4.388437,3
19995590318134,0.32542387,8.9108715,4.3740797,3
19995592697092,0.44506502,8.925228,4.345366,3
19995595076155,0.53599226,8.930014,4.316652,3
19995597455165,0.6412765,8.920443,4.331009,3
19995599834176,0.7082755,8.915657,4.331009,3
19995602213186,0.7369894,8.925228,4.354937,3
19995604592196,0.7800602,8.9108715,4.436293,3
19995606971207,0.7800602,8.877372,4.4458647,3
19995609350165,0.7609176,8.882157,4.421936,3
19995611729176,0.7369894,8.85823,4.398008,3
19995614108186,0.7513463,8.82473,4.4315076,3
19995616487196,0.71306115,8.7673025,4.4841495,3
19995618866207,0.66041905,8.752945,4.5942197,3
19995621245217,0.6843473,8.71466,4.7282176,3
19995623624228,0.6843473,8.671589,4.7377887,3
19995626003238,0.63170516,8.671589,4.6372905,3
19995628382249,0.6269195,8.719446,4.551149,3
19995630761259,0.66999036,8.671589,4.517649,3
19995633140217,0.66999036,8.662018,4.551149,3
19995635519228,0.67477596,8.666803,4.6612186,3
19995637898238,0.7513463,8.628518,4.74736,3
19995640277249,0.82313097,8.595019,4.723432,3
19995642656259,0.85184485,8.657232,4.6564326,3
19995645035269,0.94755775,8.647661,4.5559344,3
19995647414280,1.052842,8.609376,4.4458647,3
19995649793238,1.0863415,8.60459,4.5128636,3
19995652172301,1.1485549,8.585447,4.694718,3
19995654551259,1.2059826,8.537591,4.85743,3
19995656930269,1.2011969,8.571091,4.8526444,3
19995659309280,1.2203395,8.652447,4.6803613,3
19995661688290,1.2251252,8.666803,4.469793,3
19995664067301,1.1820544,8.695518,4.398008,3
19995666446259,1.134198,8.705089,4.4745784,3
19995668825321,1.105484,8.671589,4.6899323,3
19995671204332,1.0624132,8.662018,4.881358,3
19995673583290,0.9954142,8.685946,4.8382874,3
19995675962301,0.9236295,8.71466,4.6468616,3
19995678341311,0.91405827,8.762517,4.421936,3
19995680720321,0.90448695,8.772088,4.3118663,3
19995683099332,0.8757731,8.776874,4.3645086,3
19995685478342,0.8805587,8.733803,4.6229334,3
19995687857353,0.91405827,8.709874,4.814359,3
19995690236363,0.94755775,8.743374,4.8239303,3
19995692615374,0.9523434,8.7673025,4.651647,3
19995694994332,0.9667004,8.79123,4.465007,3
19995697373342,1.0193424,8.772088,4.331009,3
19995699752353,1.0432707,8.7577305,4.3740797,3
19995702131363,1.052842,8.748159,4.551149,3
19995704510374,1.1150553,8.695518,4.7138605,3
19995706889384,1.119841,8.690732,4.733003,3
19995709268394,1.1150553,8.695518,4.613362,3
19995711647405,1.0863415,8.709874,4.4602213,3
19995714026415,1.0911272,8.685946,4.3501515,3
19995716405374,1.0671989,8.662018,4.3788652,3
19995718784384,1.0432707,8.647661,4.4889355,3
19995721163394,0.9906286,8.652447,4.5942197,3
19995723542353,0.9667004,8.705089,4.5798626,3
19995725921415,0.9092726,8.738588,4.4458647,3
19995728300426,0.94277215,8.748159,4.2975097,3
19995730679436,0.8805587,8.738588,4.3405805,3
19995733058446,0.8662018,8.748159,4.479364,3
19995735437405,0.8757731,8.752945,4.627719,3
19995737816415,0.89491564,8.848659,4.723432,3
19995740195426,0.86141616,8.863015,4.6037908,3
19995742574436,0.8709874,8.863015,4.278367,3
19995744953446,0.9379865,8.891729,4.1587257,3
19995747332457,0.9092726,8.762517,4.2831526,3
19995749711467,0.95712906,8.810373,4.575077,3
19995752090478,0.971486,8.748159,4.6803613,3
19995754469488,0.98584294,8.762517,4.709075,3
19995756848499,0.971486,8.690732,4.479364,3
19995759227457,1.0049855,8.800801,4.354937,3
19995761606467,1.038485,8.762517,4.23051,3
19995763985478,1.0336994,8.690732,4.316652,3
19995766364488,1.0289137,8.657232,4.4841495,3
19995768743499,1.0145568,8.705089,4.6612186,3
19995771122509,0.9954142,8.705089,4.718646,3
19995773501519,1.0049855,8.671589,4.618148,3
19995775880530,0.98584294,8.685946,4.508078,3
19995778259540,1.0145568,8.690732,4.4410787,3
19995780638499,1.0097711,8.628518,4.4985065,3
19995783017509,1.0049855,8.63809,4.599005,3
19995785396519,0.9762716,8.662018,4.651647,3
19995787775530,0.9236295,8.633304,4.7712884,3
19995790154540,0.9523434,8.575876,4.871787,3
19995792533551,0.93320084,8.662018,4.9340005,3
19995794912561,0.8757731,8.681161,4.843073,3
19995797291571,0.8566305,8.642876,4.7425747,3
19995799670582,0.85184485,8.633304,4.6707897,3
19995802049540,0.83748794,8.681161,4.7138605,3
19995804428551,0.82313097,8.551949,4.8095737,3
19995806807561,0.8135597,8.475378,4.900501,3
19995809186571,0.83748794,8.537591,4.9435716,3
19995811565582,0.8662018,8.537591,4.843073,3
19995813944592,0.94755775,8.489735,4.7377887,3
19995816323603,1.0097711,8.56152,4.685147,3
19995818702613,1.0624132,8.595019,4.6899323,3
19995821081571,1.134198,8.580662,4.733003,3
19995823460582,1.2011969,8.523234,4.723432,3
19995825839592,1.2490535,8.609376,4.752146,3
19995828218603,1.3304094,8.618947,4.6612186,3
19995830597613,1.3878372,8.60459,4.536792,3
19995832976624,1.3878372,8.618947,4.4171505,3
19995835355634,1.3734802,8.652447,4.369294,3
19995837734644,1.3447664,8.647661,4.398008,3
19995840113603,1.3495519,8.666803,4.4745784,3
19995842492613,1.3447664,8.676374,4.551149,3
19995844871624,1.2969099,8.652447,4.599005,3
19995847250634,1.253839,8.709874,4.5942197,3
19995849629644,1.1964114,8.748159,4.517649,3
19995852008655,1.1820544,8.7577305,4.412365,3
19995854387665,1.1772687,8.652447,4.3740797,3
19995856766676,1.1724831,8.46102,4.469793,3
19995859145686,1.1485549,8.595019,4.627719,3
19995861524696,1.1437693,8.82473,4.627719,3
19995863903655,1.2394822,8.810373,4.6707897,3
19995866282665,1.1437693,8.800801,4.8382874,3
19995868661676,1.1772687,8.819944,4.7138605,3
19995871040686,1.2107682,8.834301,4.436293,3
19995873419696,1.2011969,8.71466,4.101298,3
19995875798707,1.1389836,8.796016,4.182654,3
19995878177717,1.1964114,8.800801,4.5798626,3
19995880556728,1.1772687,8.63809,4.8861437,3
19995882935738,1.0863415,8.556734,4.843073,3
19995885314696,1.119841,8.63809,4.546363,3
19995887693707,1.1246266,8.60459,4.2017965,3
19995890072717,1.0863415,8.566305,4.0773697,3
19995892451728,1.0671989,8.6141615,4.426722,3
19995894830738,1.119841,8.508878,4.8765726,3
19995897209749,1.1676974,8.437093,5.015356,3
19995899588759,1.1820544,8.52802,4.6899323,3
19995901967769,1.2442678,8.690732,4.15394,3
19995904346728,1.3304094,8.700303,3.804588,3
19995906725738,1.3830515,8.7673025,3.8955152,3
19995909104749,1.4356936,8.772088,4.2592244,3
19995911483759,1.4644074,8.719446,4.618148,3
19995913862769,1.4931214,8.724232,4.7712884,3
19995916241780,1.4548361,8.786445,4.627719,3
19995918620790,1.3734802,8.810373,4.302295,3
19995920999801,1.2873386,8.82473,4.034299,3
19995923378811,1.1533405,8.872586,4.024728,3
19995925757821,0.9954142,8.839087,4.287938,3
19995928136780,0.83748794,8.748159,4.584648,3
19995930515790,0.7082755,8.709874,4.776074,3
19995932894801,0.5838487,8.724232,4.74736,3
19995935273811,0.49292147,8.719446,4.517649,3
19995937652821,0.46899325,8.719446,4.2687955,3
19995940031832,0.46899325,8.71466,4.206582,3
19995942410842,0.5168497,8.681161,4.2975097,3
19995944789853,0.5886344,8.63809,4.5272202,3
19995947168811,0.71306115,8.585447,4.6468616,3
19995949547821,0.8422736,8.595019,4.599005,3
19995951926832,1.0097711,8.642876,4.4554358,3
19995954305842,1.1533405,8.666803,4.26401,3
19995956684853,1.2634103,8.690732,4.1778684,3
19995959063863,1.3495519,8.709874,4.26401,3
19995961442874,1.3926228,8.695518,4.421936,3
19995963821884,1.4500505,8.71466,4.618148,3
19995966200894,1.4404793,8.729017,4.6707897,3
19995968579853,1.4117653,8.743374,4.599005,3
19995970958863,1.3686945,8.781659,4.4889355,3
19995973337874,1.3256238,8.819944,4.421936,3
19995975716884,1.2251252,8.815159,4.4985065,3
19995978095894,1.1437693,8.800801,4.651647,3
19995980474905,1.0671989,8.781659,4.8239303,3
19995982853915,0.9954142,8.786445,4.867001,3
19995985232926,0.98584294,8.772088,4.843073,3
19995987611936,1.0241281,8.79123,4.7377887,3
19995989990894,0.98584294,8.709874,4.642076,3
19995992369905,1.0145568,8.724232,4.6899323,3
19995994748915,1.0432707,8.657232,4.7282176,3
19995997127926,1.0767702,8.63809,4.8239303,3
19995999506936,1.0959128,8.571091,4.8239303,3
19996001885946,1.1676974,8.56152,4.761717,3
19996004264957,1.2107682,8.508878,4.6325045,3
19996006643967,1.1629118,8.518449,4.5559344,3
19996009022926,1.1581261,8.52802,4.4458647,3
19996011401936,1.1150553,8.547162,4.3932223,3
19996013780946,1.0911272,8.575876,4.359723,3
19996016159957,1.0336994,8.599805,4.2927237,3
19996018538967,0.9954142,8.628518,4.206582,3
19996020917978,0.9810573,8.733803,4.0965123,3
19996023296988,0.95712906,8.743374,4.024728,3
19996025675999,0.94755775,8.7577305,3.9768713,3
19996028055009,0.89491564,8.738588,3.9625144,3
19996030433967,0.8997013,8.719446,3.9768713,3
19996032812978,0.94277215,8.7577305,3.9625144,3
19996035191988,0.9810573,8.810373,3.9673,3
19996037570999,0.9954142,8.848659,3.9481573,3
19996039950009,1.0049855,8.920443,3.9433718,3
19996042329019,1.0097711,8.9826565,3.9960139,3
19996044708030,1.0049855,9.025727,4.1108694,3
19996047087040,0.93320084,9.059227,4.2352962,3
19996049466051,0.8757731,9.083155,4.3836513,3
19996051845009,0.8422736,8.968299,4.5128636,3
19996054224019,0.7752745,8.85823,4.6564326,3
19996056603030,0.6556334,8.829515,4.8861437,3
19996058982040,0.6412765,8.671589,5.029713,3
19996061361051,0.57427746,8.499306,5.0679984,3
19996063740061,0.49292147,8.690732,5.316852,3
19996066119071,0.46899325,8.762517,5.259424,3
19996068498082,0.4642076,8.618947,4.74736,3
19996070877040,0.42592242,8.729017,4.4171505,3
19996073256051,0.39720857,8.781659,4.3932223,3
19996075635061,0.49292147,8.872586,4.7425747,3
19996078014071,0.526421,8.79123,5.0105705,3
19996080393082,0.5838487,8.752945,5.211568,3
19996082772092,0.70348984,8.748159,5.1158547,3
19996085151103,0.86141616,8.796016,4.7425747,3
19996087530113,0.8709874,8.82473,4.369294,3
19996089909124,0.90448695,8.786445,4.2257247,3
19996092288134,0.9284152,8.781659,4.4410787,3
19996094667092,0.8470592,8.705089,4.7042894,3
19996097046103,0.72741807,8.618947,4.9052863,3
19996099425113,0.5982057,8.590233,4.8526444,3
19996101804124,0.44985065,8.681161,4.575077,3
19996104183134,0.28235307,8.729017,4.2257247,3
19996106562144,0.19142582,8.676374,4.0965123,3
19996108941155,0.1052842,8.642876,4.2831526,3
19996111320165,0.02871387,8.63809,4.536792,3
19996113699124,0.02871387,8.566305,4.733003,3
19996116078134,0.062213387,8.52802,4.752146,3
19996118457144,0.11006984,8.571091,4.56072,3
19996120836155,0.20578274,8.63809,4.2975097,3
19996123215165,0.31585258,8.666803,4.15394,3
19996125594176,0.42592242,8.733803,4.273581,3
19996127973186,0.526421,8.7673025,4.331009,3
19996130352196,0.59342,8.738588,4.575077,3
19996132731207,0.91884387,8.705089,4.761717,3
19996135110165,1.0624132,8.843872,4.790431,3
19996137489176,1.2442678,8.891729,4.508078,3
19996139868186,1.5122639,8.939586,4.168297,3
19996142247196,1.727618,8.992228,4.0151563,3
19996144626207,1.8568304,8.953942,4.0869412,3
19996147005165,1.9286151,8.9108715,4.3262234,3
19996149384228,2.0865414,8.85823,4.546363,3
19996151763238,2.0961127,8.9108715,4.666004,3
19996154142249,2.0003998,8.872586,4.536792,3
19996156521207,1.9190438,8.9013,4.4315076,3
19996158900217,1.8041883,8.882157,4.3501515,3
19996161279228,1.6510476,8.867801,4.388437,3
19996163658238,1.5170496,8.796016,4.570291,3
19996166037249,1.4261223,8.690732,4.7425747,3
19996168416259,1.282553,8.63809,4.833502,3
19996170795269,1.1676974,8.623733,4.790431,3
19996173174280,1.0719845,8.60459,4.651647,3
19996175553290,0.9667004,8.595019,4.493721,3
19996177932249,0.8422736,8.60459,4.5320063,3
19996180311259,0.8279166,8.518449,4.6803613,3
19996182690269,0.75613195,8.437093,4.8622155,3
19996185069280,0.7896315,8.441878,5.0009995,3
19996187448290,0.8327023,8.46102,4.9674997,3
19996189827301,0.8470592,8.465807,4.8526444,3
19996192206311,0.8853444,8.499306,4.694718,3
19996194585321,0.9523434,8.5423765,4.599005,3
19996196964280,1.0241281,8.49452,4.694718,3
19996199343290,1.0815558,8.513663,4.8382874,3
19996201722301,1.0863415,8.551949,4.914858,3
19996204101311,1.1102697,8.585447,4.895715,3
19996206480321,1.1102697,8.60459,4.7712884,3
19996208859332,1.0719845,8.647661,4.570291,3
19996211238342,0.9810573,8.719446,4.508078,3
19996213617353,0.89491564,8.733803,4.5224347,3
19996215996363,0.7752745,8.752945,4.6037908,3
19996218375321,0.6125626,8.810373,4.6612186,3
19996220754332,0.4977071,8.82473,4.6612186,3
19996223133342,0.3684947,8.829515,4.584648,3
19996225512353,0.23449662,8.853444,4.479364,3
19996227891363,0.16271193,8.853444,4.4410787,3
19996230270374,0.12921242,8.819944,4.4841495,3
19996232649384,0.11006984,8.79123,4.56072,3
19996235028394,0.124426775,8.79123,4.6325045,3
19996237407405,0.17706887,8.733803,4.651647,3
19996239786363,0.22492532,8.709874,4.6229334,3
19996242165374,0.33499518,8.685946,4.5415773,3
19996244544384,0.44027936,8.681161,4.508078,3
19996246923394,0.5599205,8.676374,4.503292,3
19996249302405,0.65084773,8.652447,4.5415773,3
19996251681415,0.7704889,8.652447,4.6229334,3
19996254060426,0.8709874,8.595019,4.6707897,3
19996256439436,0.9523434,8.590233,4.6803613,3
19996258818446,1.0145568,8.60459,4.6564326,3
19996261197405,1.0193424,8.628518,4.6372905,3
19996263576415,1.0193424,8.71466,4.6612186,3
19996265955426,1.0001999,8.685946,4.627719,3
19996268334436,0.94755775,8.652447,4.6372905,3
19996270713446,1.0241281,8.60459,4.709075,3
19996273092457,1.0480564,8.633304,4.776074,3
19996275471467,1.0336994,8.666803,4.7042894,3
19996277850478,1.134198,8.724232,4.613362,3
19996280229436,1.2155539,8.705089,4.5128636,3
19996282608446,1.2394822,8.705089,4.479364,3
19996284987457,1.2299109,8.676374,4.5320063,3
19996287366467,1.2586247,8.666803,4.618148,3
19996289745478,1.1916257,8.662018,4.6707897,3
19996292124488,1.105484,8.633304,4.6372905,3
19996294503446,1.0145568,8.628518,4.599005,3
19996296882457,0.91884387,8.633304,4.5272202,3
19996299261519,0.80877405,8.628518,4.465007,3
19996301640478,0.7465607,8.657232,4.4554358,3
19996304019488,0.6891329,8.652447,4.4602213,3
19996306398499,0.61734825,8.685946,4.4554358,3
19996308777509,0.55513483,8.676374,4.421936,3
19996311156519,0.5407779,8.705089,4.3740797,3
19996313535530,0.5072784,8.733803,4.302295,3
19996315914540,0.51206404,8.7577305,4.2687955,3
19996318293551,0.526421,8.772088,4.278367,3
19996320672561,0.5982057,8.7577305,4.3262234,3
19996323051519,0.67477596,8.743374,4.421936,3
19996325430530,0.7609176,8.733803,4.4745784,3
19996327809540,0.8757731,8.752945,4.465007,3
19996330188551,0.9810573,8.776874,4.4171505,3
19996332567561,1.038485,8.796016,4.354937,3
19996334946571,1.1150553,8.796016,4.369294,3
19996337325582,1.1150553,8.772088,4.4410787,3
19996339704592,1.0959128,8.772088,4.546363,3
19996342083551,1.0576276,8.738588,4.6325045,3
19996344462561,0.9906286,8.738588,4.6755753,3
19996346841571,0.89491564,8.743374,4.666004,3
19996349220582,0.79441714,8.748159,4.642076,3
19996351599592,0.6939186,8.743374,4.651647,3
19996353978603,0.61734825,8.743374,4.6899323,3
19996356357613,0.55513483,8.748159,4.723432,3
19996358736624,0.53599226,8.71466,4.7377887,3
19996361115634,0.526421,8.705089,4.733003,3
19996363494592,0.526421,8.671589,4.685147,3
19996365873551,0.5694918,8.700303,4.618148,3
19996368252613,0.67477596,8.681161,4.575077,3
19996370631624,0.72263247,8.657232,4.570291,3
19996373010634,0.7800602,8.657232,4.6037908,3
19996375389644,0.86141616,8.63809,4.599005,3
19996377768603,0.91405827,8.652447,4.5942197,3
19996380147665,0.9810573,8.662018,4.56072,3
19996382526624,1.0432707,8.633304,4.4985065,3
19996384905634,1.0671989,8.662018,4.45065,3
19996387284592,1.0767702,8.671589,4.412365,3
19996389663655,1.052842,8.676374,4.421936,3
19996392042665,1.0145568,8.695518,4.469793,3
19996394421676,0.93320084,8.700303,4.508078,3
19996396800686,0.86141616,8.705089,4.546363,3
19996399179696,0.7848458,8.71466,4.5559344,3
19996401558707,0.6652047,8.752945,4.56072,3
19996403937665,0.57427746,8.7577305,4.551149,3
19996406316676,0.4881358,8.772088,4.5559344,3
19996408695686,0.41156548,8.810373,4.6037908,3
19996411074696,0.38285163,8.819944,4.642076,3
19996413453707,0.3493521,8.839087,4.642076,3
19996415832717,0.35413775,8.829515,4.613362,3
19996418211728,0.37806597,8.834301,4.575077,3
19996420590738,0.3924229,8.853444,4.5415773,3
19996422969749,0.4354937,8.843872,4.5415773,3
19996425348707,0.52163535,8.815159,4.5320063,3
19996427727717,0.5838487,8.810373,4.546363,3
19996430106728,0.65084773,8.805588,4.5798626,3
19996432485738,0.72741807,8.79123,4.5655055,3
19996434864749,0.7848458,8.7577305,4.5415773,3
19996437243759,0.8279166,8.748159,4.5559344,3
19996439622769,0.8566305,8.729017,4.546363,3
19996442001780,0.8709874,8.695518,4.546363,3
19996444380738,0.8279166,8.676374,4.570291,3
19996446759696,0.76570326,8.666803,4.5798626,3
19996449138759,0.7178468,8.642876,4.599005,3
19996451517769,0.66041905,8.657232,4.584648,3
19996453896780,0.5838487,8.652447,4.5894337,3
19996456275790,0.52163535,8.662018,4.5894337,3
19996458654801,0.44506502,8.662018,4.613362,3
19996461033811,0.4019942,8.681161,4.6325045,3
19996463412821,0.3924229,8.700303,4.642076,3
19996465791832,0.37806597,8.729017,4.6325045,3
19996468170790,0.3924229,8.71466,4.6372905,3
19996470549801,0.4642076,8.748159,4.618148,3
19996472928811,0.5455636,8.7673025,4.5798626,3
19996475307821,0.64606214,8.772088,4.575077,3
19996477686832,0.7369894,8.776874,4.5798626,3
19996480065842,0.82313097,8.7673025,4.584648,3
19996482444853,0.91884387,8.7673025,4.5798626,3
19996484823863,0.9906286,8.7673025,4.570291,3
19996487202821,1.0193424,8.7673025,4.56072,3
19996489581832,1.0193424,8.776874,4.546363,3
19996491960842,0.9906286,8.786445,4.5655055,3
19996494339853,0.9284152,8.781659,4.5798626,3
19996496718863,0.86141616,8.79123,4.584648,3
19996499097874,0.8039884,8.781659,4.575077,3
19996501476884,0.6987042,8.810373,4.5655055,3
19996503855894,0.6029913,8.776874,4.493721,3
19996506234905,0.56470615,8.79123,4.4410787,3
19996508613863,0.53599226,8.796016,4.45065,3
19996510992874,0.5599205,8.796016,4.469793,3
19996513371884,0.57427746,8.776874,4.4841495,3
19996515750894,0.6364908,8.743374,4.503292,3
19996518129905,0.66999036,8.743374,4.4889355,3
19996520508915,0.7369894,8.7577305,4.479364,3
19996522887926,0.79441714,8.752945,4.479364,3
19996525266936,0.8566305,8.748159,4.469793,3
19996527645894,0.91884387,8.738588,4.4889355,3
19996530024905,0.9810573,8.724232,4.5224347,3
19996532403915,1.0289137,8.738588,4.5272202,3
19996534782926,1.0432707,8.724232,4.5272202,3
19996537161936,1.0624132,8.724232,4.4985065,3
19996539540946,1.0719845,8.700303,4.4841495,3
19996541919957,1.038485,8.705089,4.469793,3
19996544298967,1.0097711,8.690732,4.469793,3
19996546677978,0.9619147,8.700303,4.4602213,3
19996549056936,0.90448695,8.700303,4.4745784,3
19996551435946,0.85184485,8.690732,4.4985065,3
19996553814957,0.81834537,8.681161,4.4889355,3
19996556193967,0.79441714,8.685946,4.508078,3
19996558572978,0.7704889,8.695518,4.4841495,3
19996560951988,0.76570326,8.743374,4.4841495,3
19996563330999,0.7752745,8.748159,4.4985065,3
19996565710009,0.79441714,8.738588,4.503292,3
19996568089019,0.86141616,8.743374,4.5224347,3
19996570467978,0.8853444,8.743374,4.546363,3
19996572846988,0.90448695,8.748159,4.546363,3
19996575225999,0.90448695,8.752945,4.56072,3
19996577605009,0.94277215,8.71466,4.5559344,3
19996579984019,0.94755775,8.71466,4.584648,3
19996582363030,0.9379865,8.729017,4.6037908,3
19996584742040,0.90448695,8.700303,4.618148,3
19996587121051,0.8805587,8.690732,4.618148,3
19996589500009,0.8470592,8.690732,4.599005,3
19996591879019,0.7896315,8.685946,4.6229334,3
19996594258030,0.7513463,8.685946,4.6085763,3
19996596637040,0.7082755,8.685946,4.6037908,3
19996599016051,0.66041905,8.685946,4.599005,3
19996601395061,0.6412765,8.676374,4.6037908,3
19996603774071,0.65084773,8.695518,4.5798626,3
19996606153082,0.6652047,8.71466,4.546363,3
19996608532092,0.66999036,8.705089,4.5415773,3
19996610911051,0.6987042,8.719446,4.5320063,3
19996613290061,0.72263247,8.729017,4.536792,3
19996615669071,0.7800602,8.729017,4.5224347,3
19996618048082,0.81834537,8.743374,4.517649,3
19996620427092,0.8757731,8.738588,4.5224347,3
19996622806103,0.91884387,8.7673025,4.503292,3
19996625185113,0.9667004,8.7673025,4.4889355,3
19996627564124,0.98584294,8.781659,4.4985065,3
19996629943082,0.9810573,8.786445,4.493721,3
19996632322092,0.94755775,8.796016,4.4745784,3
19996634701103,0.9092726,8.781659,4.4841495,3
19996637080113,0.8805587,8.772088,4.508078,3
19996639459124,0.82313097,8.772088,4.5272202,3
19996641838134,0.7704889,8.800801,4.536792,3
19996644217144,0.71306115,8.781659,4.5559344,3
19996646596155,0.66999036,8.752945,4.575077,3
19996648975165,0.6364908,8.752945,4.5798626,3
19996651354124,0.5838487,8.743374,4.5798626,3
19996653733134,0.57906306,8.709874,4.584648,3
19996656112144,0.5982057,8.709874,4.570291,3
19996658491155,0.6269195,8.709874,4.5894337,3
19996660870165,0.65084773,8.700303,4.6037908,3
19996663249176,0.6843473,8.695518,4.613362,3
19996665628186,0.72263247,8.681161,4.6085763,3
19996668007196,0.7848458,8.71466,4.599005,3
19996670386155,0.8327023,8.729017,4.584648,3
19996672765165,0.86141616,8.724232,4.575077,3
19996675144176,0.8853444,8.71466,4.5655055,3
19996677523186,0.89013004,8.729017,4.5559344,3
19996679902196,0.91405827,8.748159,4.5559344,3
19996682281207,0.89013004,8.772088,4.546363,3
19996684660217,0.8566305,8.776874,4.5415773,3
19996687039228,0.8327023,8.776874,4.536792,3
19996689418186,0.7848458,8.796016,4.5320063,3
19996691797196,0.74177504,8.79123,4.5272202,3
19996694176207,0.6939186,8.79123,4.551149,3
19996696555165,0.66041905,8.79123,4.5559344,3
19996698934228,0.6556334,8.7673025,4.536792,3
19996701313238,0.65084773,8.762517,4.5320063,3
19996703692249,0.61734825,8.752945,4.5320063,3
19996706071259,0.6364908,8.733803,4.536792,3
19996708450269,0.66999036,8.724232,4.5272202,3
19996710829280,0.6987042,8.719446,4.517649,3
19996713208238,0.7609176,8.690732,4.5128636,3
19996715587249,0.82313097,8.657232,4.503292,3
19996717966259,0.85184485,8.690732,4.503292,3
19996720345269,0.8662018,8.662018,4.508078,3
19996722724280,0.91405827,8.685946,4.5272202,3
19996725103290,0.9284152,8.705089,4.5224347,3
19996727482301,0.9379865,8.700303,4.5224347,3
19996729861311,0.90448695,8.695518,4.5415773,3
19996732240321,0.89491564,8.700303,4.536792,3
19996734619280,0.8662018,8.681161,4.546363,3
19996736998290,0.8662018,8.690732,4.5559344,3
19996739377301,0.80877405,8.685946,4.56072,3
19996741756311,0.7704889,8.700303,4.5798626,3
19996744135269,0.7465607,8.695518,4.5798626,3
19996746514332,0.72741807,8.685946,4.5894337,3
19996748893342,0.6987042,8.709874,4.584648,3
19996751272353,0.72263247,8.705089,4.584648,3
19996753651311,0.7513463,8.705089,4.570291,3
19996756030321,0.76570326,8.685946,4.584648,3
19996758409332,0.79920274,8.681161,4.56072,3
19996760788342,0.8709874,8.685946,4.5655055,3
19996763167353,0.93320084,8.671589,4.551149,3
19996765546363,1.0001999,8.700303,4.551149,3
19996767925374,1.0576276,8.729017,4.517649,3
19996770304384,1.119841,8.695518,4.5224347,3
19996772683342,1.1389836,8.690732,4.5224347,3
19996775062353,1.1772687,8.71466,4.508078,3
19996777441363,1.1581261,8.71466,4.5224347,3
19996779820374,1.1820544,8.695518,4.517649,3
19996782199384,1.1629118,8.700303,4.5272202,3
19996784578394,1.1150553,8.71466,4.546363,3
19996786957405,1.0719845,8.733803,4.546363,3
19996789336415,0.9954142,8.7577305,4.5415773,3
19996791715426,0.9284152,8.738588,4.546363,3
19996794094384,0.8709874,8.738588,4.575077,3
19996796473394,0.8135597,8.71466,4.575077,3
19996798852405,0.7896315,8.729017,4.575077,3
19996801231415,0.7752745,8.719446,4.5655055,3
19996803610426,0.7465607,8.724232,4.584648,3
19996805989436,0.7465607,8.700303,4.575077,3
19996808368446,0.75613195,8.685946,4.5655055,3
19996810747457,0.8039884,8.685946,4.575077,3
19996813126467,0.8566305,8.690732,4.5894337,3
19996815505426,0.8709874,8.685946,4.5320063,3
19996817884436,0.9092726,8.671589,4.5320063,3
19996820263446,0.9284152,8.657232,4.5320063,3
19996822642457,0.9619147,8.681161,4.5320063,3
19996825021467,0.971486,8.685946,4.5320063,3
19996827400478,0.9762716,8.681161,4.5320063,3
19996829779488,1.0001999,8.676374,4.546363,3
19996832158499,0.971486,8.695518,4.546363,3
19996834537457,0.98584294,8.695518,4.5320063,3
19996836916467,0.9667004,8.700303,4.551149,3
19996839295478,0.95712906,8.71466,4.546363,3
19996841674488,0.9619147,8.690732,4.5798626,3
19996844053499,0.94277215,8.690732,4.5655055,3
19996846432509,0.93320084,8.700303,4.584648,3
19996848811519,0.94277215,8.690732,4.570291,3
19996851190530,0.94277215,8.705089,4.5559344,3
19996853569540,0.95712906,8.705089,4.575077,3
19996855948499,0.9523434,8.657232,4.570291,3
19996858327509,0.94755775,8.690732,4.575077,3
19996860706519,0.9379865,8.705089,4.5894337,3
19996863085530,0.94277215,8.662018,4.584648,3
19996865464540,0.93320084,8.681161,4.570291,3
19996867843551,0.9092726,8.690732,4.5559344,3
19996870222561,0.90448695,8.709874,4.551149,3
19996872601571,0.85184485,8.71466,4.536792,3
19996874980530,0.8470592,8.700303,4.5224347,3
19996877359540,0.8327023,8.700303,4.5128636,3
19996879738551,0.7896315,8.729017,4.517649,3
19996882117561,0.76570326,8.719446,4.508078,3
19996884496571,0.7465607,8.709874,4.503292,3
19996886875582,0.75613195,8.724232,4.517649,3
19996889254592,0.7704889,8.729017,4.508078,3
19996891633603,0.7752745,8.71466,4.517649,3
19996894012613,0.7704889,8.719446,4.5272202,3
19996896391571,0.79920274,8.705089,4.508078,3
19996898770582,0.79920274,8.695518,4.493721,3
19996901149592,0.8135597,8.719446,4.508078,3
19996903528603,0.8135597,8.71466,4.5128636,3
19996905907613,0.8422736,8.729017,4.546363,3
19996908286624,0.8757731,8.71466,4.551149,3
19996910665634,0.8805587,8.719446,4.5559344,3
19996913044644,0.89491564,8.695518,4.536792,3
19996915423603,0.9284152,8.690732,4.546363,3
19996917802613,0.9284152,8.709874,4.5224347,3
19996920181624,0.9092726,8.719446,4.5272202,3
19996922560634,0.9092726,8.719446,4.56072,3
19996924939644,0.91405827,8.71466,4.5798626,3
19996927318655,0.9284152,8.738588,4.5798626,3
19996929697665,0.90448695,8.729017,4.56072,3
19996932076676,0.89013004,8.729017,4.551149,3
19996934455686,0.8566305,8.743374,4.5559344,3
19996936834644,0.8279166,8.748159,4.5559344,3
19996939213655,0.79441714,8.748159,4.56072,3
19996941592665,0.79920274,8.71466,4.570291,3
19996943971676,0.8039884,8.719446,4.5798626,3
19996946350686,0.79920274,8.705089,4.5655055,3
19996948729696,0.7800602,8.705089,4.56072,3
19996951108707,0.80877405,8.700303,4.5942197,3
19996953487717,0.8135597,8.695518,4.584648,3
19996955866676,0.82313097,8.705089,4.5942197,3
19996958245686,0.8470592,8.681161,4.5894337,3
19996960624696,0.82313097,8.657232,4.5942197,3
19996963003707,0.8422736,8.681161,4.5942197,3
19996965382717,0.83748794,8.685946,4.584648,3
19996967761728,0.85184485,8.676374,4.5798626,3
19996970140738,0.85184485,8.676374,4.5894337,3
19996972519749,0.8279166,8.700303,4.56072,3
19996974898707,0.8470592,8.700303,4.546363,3
19996977277717,0.8279166,8.690732,4.551149,3
19996979656728,0.82313097,8.733803,4.56072,3
19996982035738,0.79441714,8.724232,4.5559344,3
19996984414749,0.79920274,8.729017,4.5559344,3
19996986793759,0.8039884,8.719446,4.5655055,3
19996989172769,0.8135597,8.709874,4.56072,3
19996991551780,0.8039884,8.709874,4.546363,3
19996993930790,0.8135597,8.700303,4.5415773,3
19996996309801,0.82313097,8.719446,4.536792,3
19996998688759,0.83748794,8.733803,4.517649,3
19997001067769,0.8327023,8.719446,4.5224347,3
19997003446780,0.8470592,8.709874,4.5224347,3
19997005825790,0.8853444,8.705089,4.4985065,3
19997008204801,0.90448695,8.719446,4.4889355,3
19997010583811,0.89491564,8.71466,4.493721,3
19997012962821,0.8853444,8.719446,4.503292,3
19997015341832,0.8853444,8.724232,4.508078,3
19997017720790,0.91405827,8.71466,4.508078,3
19997020099801,0.93320084,8.71466,4.503292,3
19997022478811,0.94755775,8.729017,4.508078,3
19997024857821,0.91884387,8.724232,4.508078,3
19997027236832,0.91405827,8.733803,4.517649,3
19997029615842,0.8997013,8.709874,4.536792,3
19997031994853,0.89491564,8.71466,4.5559344,3
19997034373863,0.8709874,8.705089,4.5894337,3
19997036752874,0.8470592,8.705089,4.5798626,3
19997039131832,0.80877405,8.681161,4.5798626,3
19997041510842,0.82313097,8.671589,4.6037908,3
19997043889853,0.79441714,8.676374,4.6037908,3
19997046268863,0.7465607,8.685946,4.6037908,3
19997048647874,0.72741807,8.695518,4.627719,3
19997051026884,0.71306115,8.676374,4.6325045,3
19997053405894,0.6939186,8.681161,4.6037908,3
19997055784905,0.6795616,8.671589,4.6037908,3
19997058163863,0.6652047,8.700303,4.5798626,3
19997060542874,0.6412765,8.729017,4.5798626,3
19997062921832,0.66999036,8.71466,4.5798626,3
19997065300894,0.66041905,8.724232,4.5798626,3
19997067679905,0.6556334,8.733803,4.575077,3
19997070058915,0.6843473,8.733803,4.570291,3
19997072437926,0.7178468,8.738588,4.56072,3
19997074816884,0.7369894,8.738588,4.56072,3
19997077195894,0.75613195,8.724232,4.5559344,3
19997079574905,0.7800602,8.719446,4.551149,3
19997081953915,0.79920274,8.733803,4.551149,3
19997084332926,0.81834537,8.71466,4.551149,3
19997086711936,0.8279166,8.71466,4.5415773,3
19997089090946,0.85184485,8.71466,4.5272202,3
19997091469957,0.85184485,8.709874,4.5128636,3
19997093848967,0.8470592,8.719446,4.503292,3
19997096227926,0.8470592,8.724232,4.5128636,3
19997098606936,0.8327023,8.705089,4.5128636,3
19997100985946,0.8279166,8.724232,4.5272202,3
19997103364957,0.81834537,8.724232,4.503292,3
19997105743967,0.82313097,8.71466,4.503292,3
19997108122978,0.8135597,8.738588,4.4985065,3
19997110501988,0.81834537,8.752945,4.4985065,3
19997112880999,0.8327023,8.738588,4.4889355,3
19997115260009,0.83748794,8.724232,4.493721,3
19997117638967,0.85184485,8.729017,4.493721,3
19997120017926,0.8327023,8.743374,4.517649,3
19997122396988,0.8422736,8.7577305,4.5128636,3
19997124775999,0.85184485,8.752945,4.503292,3
19997127155009,0.8566305,8.743374,4.5128636,3
19997129534019,0.8422736,8.748159,4.503292,3
19997131913030,0.8327023,8.733803,4.503292,3
19997134292040,0.8422736,8.748159,4.536792,3
19997136670999,0.86141616,8.752945,4.5415773,3
19997139050009,0.83748794,8.752945,4.570291,3
19997141429019,0.82313097,8.762517,4.5559344,3
19997143808030,0.8327023,8.752945,4.5415773,3
19997146187040,0.80877405,8.7673025,4.5559344,3
19997148566051,0.81834537,8.772088,4.570291,3
19997150945061,0.82313097,8.748159,4.5798626,3
19997153324071,0.82313097,8.743374,4.5942197,3
19997155703082,0.79920274,8.729017,4.584648,3
19997158082040,0.8039884,8.733803,4.599005,3
19997160461051,0.79441714,8.719446,4.5894337,3
19997162840061,0.7896315,8.71466,4.575077,3
19997165219071,0.79920274,8.729017,4.56072,3
19997167598082,0.79920274,8.729017,4.56072,3
19997169977092,0.8135597,8.729017,4.546363,3
19997172356103,0.81834537,8.752945,4.546363,3
19997174735113,0.80877405,8.733803,4.5415773,3
19997177114071,0.80877405,8.733803,4.56072,3
19997179493082,0.8135597,8.733803,4.551149,3
19997181872092,0.81834537,8.71466,4.5559344,3
19997184251103,0.8279166,8.709874,4.5320063,3
19997186630113,0.8279166,8.719446,4.5320063,3
19997189009124,0.8279166,8.724232,4.536792,3
19997191388134,0.82313097,8.71466,4.5320063,3
19997193767144,0.80877405,8.719446,4.536792,3
19997196146103,0.80877405,8.719446,4.5224347,3
19997198525113,0.7848458,8.748159,4.5224347,3
19997200904124,0.76570326,8.724232,4.5320063,3
19997203283134,0.76570326,8.709874,4.5128636,3
19997205662144,0.7800602,8.724232,4.5128636,3
19997208041155,0.7704889,8.71466,4.5320063,3
19997210420165,0.7800602,8.738588,4.5320063,3
19997212799176,0.7752745,8.733803,4.5224347,3
19997215178186,0.76570326,8.71466,4.5415773,3
19997217557144,0.7752745,8.738588,4.5320063,3
19997219936155,0.7752745,8.733803,4.5272202,3
19997222315165,0.7896315,8.733803,4.551149,3
19997224694176,0.80877405,8.738588,4.56072,3
19997227073186,0.79441714,8.724232,4.575077,3
19997229452196,0.8135597,8.719446,4.575077,3
19997231831207,0.8135597,8.71466,4.5894337,3
19997234210217,0.80877405,8.729017,4.6085763,3
19997236589176,0.8039884,8.709874,4.627719,3
19997238968186,0.80877405,8.705089,4.6085763,3
19997241347196,0.79920274,8.71466,4.6229334,3
19997243726207,0.79441714,8.690732,4.6229334,3
19997246105217,0.7848458,8.671589,4.618148,3
19997248484228,0.7513463,8.685946,4.6325045,3
19997250863238,0.7322037,8.705089,4.627719,3
19997253242249,0.7178468,8.695518,4.627719,3
19997255621259,0.6843473,8.695518,4.618148,3
19997258000269,0.6795616,8.690732,4.6037908,3
19997260379228,0.71306115,8.705089,4.5798626,3
19997262758238,0.74177504,8.700303,4.575077,3
19997265137249,0.7369894,8.695518,4.551149,3
19997267516259,0.7513463,8.690732,4.5415773,3
19997269895269,0.7752745,8.71466,4.536792,3
19997272274280,0.79920274,8.700303,4.5272202,3
19997274653290,0.86141616,8.700303,4.5224347,3
19997277032301,0.8853444,8.681161,4.493721,3
19997279411259,0.90448695,8.709874,4.493721,3
19997281790269,0.9523434,8.719446,4.493721,3
19997284169280,0.94755775,8.71466,4.479364,3
19997286548290,0.9667004,8.738588,4.45065,3
19997288927301,0.9954142,8.748159,4.4410787,3
19997291306311,0.9954142,8.781659,4.4410787,3
19997293685321,1.0097711,8.748159,4.45065,3
19997296064332,1.0145568,8.7577305,4.4841495,3
19997298443290,1.0145568,8.7673025,4.503292,3
19997300822301,0.9906286,8.7673025,4.4889355,3
19997303201311,0.95712906,8.748159,4.5128636,3
19997305580321,0.9379865,8.738588,4.5320063,3
19997307959332,0.8997013,8.733803,4.546363,3
19997310338342,0.8662018,8.743374,4.584648,3
19997312717353,0.82313097,8.738588,4.6037908,3
19997315096363,0.8039884,8.729017,4.613362,3
19997317475374,0.7752745,8.700303,4.6229334,3
19997319854332,0.7513463,8.685946,4.6372905,3
19997322233342,0.7369894,8.695518,4.6564326,3
19997324612353,0.71306115,8.719446,4.651647,3
19997326991363,0.72263247,8.71466,4.651647,3
19997329370374,0.72263247,8.709874,4.651647,3
19997331749384,0.71306115,8.705089,4.627719,3
19997334128394,0.72263247,8.71466,4.618148,3
19997336507405,0.74177504,8.700303,4.599005,3
19997338886363,0.7369894,8.71466,4.584648,3
19997341265374,0.7369894,8.71466,4.5798626,3
19997343644384,0.72741807,8.71466,4.5798626,3
19997346023394,0.74177504,8.71466,4.546363,3
19997348402405,0.74177504,8.733803,4.5272202,3
19997350781415,0.7369894,8.709874,4.5224347,3
19997353160426,0.7369894,8.719446,4.517649,3
19997355539436,0.72263247,8.71466,4.4985065,3
19997357918394,0.71306115,8.705089,4.4841495,3
19997360297405,0.72741807,8.743374,4.469793,3
19997362676415,0.6891329,8.748159,4.4554358,3
19997365055426,0.6843473,8.738588,4.469793,3
19997367434436,0.6939186,8.748159,4.4841495,3
19997369813446,0.70348984,8.752945,4.469793,3
19997372192457,0.7178468,8.752945,4.465007,3
19997374571467,0.74177504,8.786445,4.469793,3
19997376950426,0.7800602,8.800801,4.4889355,3
19997379329436,0.80877405,8.800801,4.4745784,3
19997381708446,0.8135597,8.762517,4.469793,3
19997384087457,0.81834537,8.743374,4.4985065,3
19997386466467,0.82313097,8.7673025,4.5224347,3
19997388845478,0.86141616,8.738588,4.536792,3
19997391224488,0.8662018,8.71466,4.551149,3
19997393603499,0.8327023,8.709874,4.570291,3
19997395982509,0.79920274,8.71466,4.5798626,3
19997398361467,0.7848458,8.709874,4.5894337,3
19997400740478,0.7896315,8.671589,4.6085763,3
19997403119488,0.76570326,8.657232,4.627719,3
19997405498499,0.7465607,8.647661,4.6325045,3
19997407877509,0.7465607,8.652447,4.6372905,3
19997410256519,0.7609176,8.647661,4.613362,3
19997412635530,0.7609176,8.671589,4.618148,3
19997415014540,0.7704889,8.676374,4.613362,3
19997417393499,0.7848458,8.662018,4.618148,3
19997419772509,0.7752745,8.666803,4.6037908,3
19997422151519,0.7896315,8.671589,4.6085763,3
19997424530530,0.8039884,8.666803,4.5942197,3
19997426909540,0.79441714,8.685946,4.5894337,3
19997429288551,0.79441714,8.700303,4.570291,3
19997431667561,0.7800602,8.690732,4.546363,3
19997434046571,0.7704889,8.700303,4.5224347,3
19997436425530,0.74177504,8.71466,4.517649,3
19997438804540,0.7513463,8.733803,4.5320063,3
19997441183551,0.71306115,8.738588,4.5320063,3
19997443562561,0.6891329,8.762517,4.5272202,3
19997445941571,0.66999036,8.776874,4.517649,3
19997448320582,0.6556334,8.796016,4.508078,3
19997450699592,0.6412765,8.786445,4.508078,3
19997453078603,0.64606214,8.776874,4.517649,3
19997455457561,0.6412765,8.781659,4.5272202,3
19997457836571,0.6652047,8.805588,4.536792,3
19997460215582,0.6843473,8.762517,4.5224347,3
19997462594592,0.6939186,8.786445,4.5320063,3
19997464973603,0.70348984,8.7673025,4.5224347,3
19997467352613,0.74177504,8.7577305,4.5128636,3
19997469731624,0.7704889,8.729017,4.517649,3
19997472110634,0.7513463,8.738588,4.5320063,3
19997474489644,0.76570326,8.743374,4.536792,3
19997476868603,0.7800602,8.724232,4.551149,3
19997479247613,0.7800602,8.724232,4.5655055,3
19997481626624,0.79920274,8.724232,4.5894337,3
19997484005634,0.79920274,8.729017,4.570291,3
19997486384644,0.80877405,8.719446,4.5559344,3
19997488763655,0.8135597,8.719446,4.56072,3
19997491142665,0.8135597,8.709874,4.546363,3
19997493521676,0.8422736,8.724232,4.546363,3
19997495900634,0.8709874,8.743374,4.546363,3
19997498279644,0.90448695,8.748159,4.56072,3
19997500658655,0.94755775,8.748159,4.5559344,3
19997503037665,0.9619147,8.7673025,4.551149,3
19997505416676,1.0145568,8.772088,4.5559344,3
19997507795686,1.0336994,8.743374,4.56072,3
19997510174696,1.0480564,8.748159,4.5415773,3
19997512553707,1.0624132,8.7577305,4.546363,3
19997514932665,1.0671989,8.729017,4.5655055,3
19997517311676,1.0480564,8.71466,4.5798626,3
19997519690686,1.0480564,8.705089,4.570291,3
19997522069696,1.038485,8.700303,4.5655055,3
19997524448707,1.0049855,8.705089,4.551149,3
19997526827717,1.0001999,8.671589,4.5559344,3
19997529206728,0.95712906,8.681161,4.5798626,3
19997531585738,0.9092726,8.695518,4.6085763,3
19997533964696,0.8757731,8.681161,4.6085763,3
19997536343707,0.83748794,8.676374,4.6085763,3
19997538722717,0.79920274,8.700303,4.6085763,3
19997541101728,0.74177504,8.690732,4.599005,3
19997543480738,0.6939186,8.695518,4.6085763,3
19997545859749,0.67477596,8.700303,4.6325045,3
19997548238759,0.66041905,8.709874,4.6372905,3
19997550617769,0.6221339,8.705089,4.613362,3
19997552996780,0.63170516,8.719446,4.5942197,3
19997555375686,0.64606214,8.738588,4.5415773,3
19997557754749,0.65084773,8.733803,4.508078,3
19997560133759,0.6843473,8.762517,4.4985065,3
19997562512769,0.66999036,8.733803,4.5128636,3
19997564891780,0.66999036,8.729017,4.5415773,3
19997567270790,0.67477596,8.733803,4.56072,3
19997569649749,0.6795616,8.781659,4.575077,3
19997572028811,0.65084773,8.762517,4.5272202,3
19997574407769,0.66041905,8.7673025,4.503292,3
19997576786780,0.67477596,8.776874,4.4841495,3
19997579165790,0.70348984,8.776874,4.4745784,3
19997581544801,0.70348984,8.772088,4.503292,3
19997583923811,0.7369894,8.752945,4.5320063,3
19997586302821,0.7704889,8.738588,4.5272202,3
19997588681832,0.7800602,8.724232,4.517649,3
19997591060790,0.80877405,8.729017,4.517649,3
19997593439853,0.85184485,8.738588,4.5272202,3
19997595818811,0.90448695,8.690732,4.5655055,3
19997598197821,0.86141616,8.671589,4.5894337,3
19997600576832,0.8757731,8.647661,4.613362,3
19997602955842,0.8566305,8.647661,4.613362,3
19997605334853,0.83748794,8.662018,4.6037908,3
19997607713811,0.8135597,8.63809,4.5894337,3
19997610092874,0.7752745,8.642876,4.570291,3
19997612471884,0.7322037,8.642876,4.5798626,3
19997614850842,0.66999036,8.657232,4.6037908,3
19997617229853,0.6412765,8.657232,4.613362,3
19997619608863,0.55513483,8.642876,4.6229334,3
19997621987874,0.55513483,8.676374,4.6372905,3
19997624366884,0.55034924,8.671589,4.618148,3
19997626745842,0.5312066,8.676374,4.618148,3
19997629124905,0.5312066,8.676374,4.618148,3
19997631503915,0.56470615,8.700303,4.613362,3
19997633882874,0.60777694,8.709874,4.5942197,3
19997636261884,0.6412765,8.709874,4.613362,3
19997638640894,0.6939186,8.743374,4.5894337,3
19997641019905,0.7513463,8.724232,4.5655055,3
19997643398915,0.82313097,8.738588,4.536792,3
19997645777926,0.89013004,8.762517,4.5224347,3
19997648156936,0.9236295,8.733803,4.4985065,3
19997650535946,0.9523434,8.733803,4.4889355,3
19997652914905,0.9762716,8.733803,4.4889355,3
19997655293915,0.9906286,8.724232,4.4841495,3
19997657672926,1.0049855,8.719446,4.4554358,3
19997660051936,1.0097711,8.71466,4.4458647,3
19997662430946,1.0001999,8.71466,4.4315076,3
19997664809957,1.0001999,8.681161,4.4075794,3
19997667188967,0.9810573,8.685946,4.412365,3
19997669567978,0.971486,8.709874,4.436293,3
19997671946936,0.95712906,8.71466,4.4410787,3
19997674325946,0.9379865,8.71466,4.4315076,3
19997676704957,0.8997013,8.700303,4.4315076,3
19997679083967,0.85184485,8.733803,4.436293,3
19997681462978,0.8470592,8.772088,4.469793,3
19997683841988,0.8279166,8.781659,4.479364,3
19997686220999,0.8279166,8.752945,4.5128636,3
19997688600009,0.8279166,8.7673025,4.517649,3
19997690978967,0.79441714,8.7673025,4.5655055,3
19997693357978,0.7513463,8.772088,4.5894337,3
19997695736988,0.7465607,8.776874,4.6037908,3
19997698115999,0.7082755,8.776874,4.6085763,3
19997700495009,0.6939186,8.772088,4.618148,3
19997702874019,0.6556334,8.743374,4.6372905,3
19997705253030,0.6412765,8.752945,4.642076,3
19997707632040,0.6221339,8.724232,4.6372905,3
19997710010999,0.60777694,8.709874,4.6325045,3
19997712390009,0.6364908,8.705089,4.6372905,3
19997714769019,0.6891329,8.700303,4.6372905,3
19997717148030,0.72263247,8.705089,4.627719,3
19997719527040,0.72741807,8.676374,4.6229334,3
19997721906051,0.7704889,8.657232,4.6325045,3
19997724285061,0.79920274,8.685946,4.6564326,3
19997726664071,0.83748794,8.685946,4.6372905,3
19997729043030,0.8422736,8.681161,4.6085763,3
19997731422040,0.85184485,8.671589,4.5942197,3
19997733801051,0.8566305,8.671589,4.5655055,3
19997736180061,0.83748794,8.690732,4.5942197,3
19997738559071,0.82313097,8.700303,4.5798626,3
19997740938082,0.7848458,8.690732,4.570291,3
19997743317092,0.7704889,8.695518,4.5655055,3
19997745696103,0.74177504,8.705089,4.551149,3
