t_ns,ax,ay,az,accuracy
18826447410027,-2.5507488,8.3174515,-0.21535404,3
18826449789611,-0.34456646,8.925228,0.6843473,3
18826452168881,1.4261223,10.145568,4.2017965,3
18826454548100,-1.3304094,9.753145,4.8765726,3
18826456927371,-4.0773697,7.800602,4.9292145,3
18826459306590,-3.0963125,7.04447,6.101698,3
18826461685861,-0.5886344,9.169296,7.2263246,3
18826464065079,-0.4833502,10.212567,4.0151563,3
18826466444350,-1.3304094,9.016156,1.4835501,3
18826468823621,-2.3688943,7.987242,0.35413775,3
18826471202840,-1.6271194,8.709874,2.8235307,3
18826473582111,-1.430908,9.82493,5.948557,3
18826475961329,-2.2875385,8.829515,6.3744793,3
18826478340600,-3.751946,7.8053875,5.058427,3
18826480719819,-3.3212378,8.26481,4.1491547,3
18826483099090,-2.1870399,9.518648,3.8476589,3
18826485478309,-1.9477576,9.485149,3.0053852,3
18826487857579,-2.8426733,8.671589,2.4023938,3
18826490236798,-2.617748,8.398808,3.5796626,3
18826492616069,-2.1248264,8.839087,5.2833524,3
18826494995340,-1.8329022,8.963513,6.0107703,3
18826497374559,-1.8376877,8.657232,5.072784,3
18826499753829,-1.8568304,8.518449,3.8524444,3
18826502133048,-1.3256238,9.001799,3.37388,3
18826504512267,-0.65084773,9.265009,3.1489546,3
18826506891538,-0.3397808,8.973084,3.37388,3
18826509270809,-0.42592242,8.666803,3.9864426,3
18826511650027,-0.3493521,8.705089,4.7856455,3
18826514029298,0.033499517,8.877372,5.393422,3
18826516408517,0.33499518,8.79123,5.1206403,3
18826518787788,0.27756742,8.834301,4.168297,3
18826521167006,0.19621146,8.944371,3.3882368,3
18826523546277,0.22971097,9.001799,3.455236,3
18826525925548,0.062213387,8.939586,3.9816568,3
18826528304767,-0.4546363,8.805588,4.465007,3
18826530684038,-1.0001999,8.695518,4.8095737,3
18826533063256,-1.2346965,8.690732,4.8909297,3
18826535442527,-1.416551,8.796016,4.5320063,3
18826537821746,-1.6749759,8.896515,3.885944,3
18826540201017,-2.0195422,8.906086,3.455236,3
18826542580236,-2.2061825,8.82473,3.574877,3
18826544959506,-2.3928227,8.829515,4.130012,3
18826547338777,-2.5698915,8.819944,4.570291,3
18826549717996,-2.7038896,8.752945,4.6803613,3
18826552097267,-2.6129622,8.724232,4.4458647,3
18826554476486,-2.4071796,8.853444,4.082155,3
18826556855756,-2.1631117,8.963513,3.723232,3
18826559234975,-1.9764715,8.930014,3.6323047,3
18826561614246,-1.7611175,8.85823,3.8285162,3
18826563993465,-1.5553347,8.867801,4.23051,3
18826566372736,-1.3016955,8.853444,4.5224347,3
18826568752006,-1.0911272,8.843872,4.5272202,3
18826571131225,-0.83748794,8.839087,4.23051,3
18826573510444,-0.6125626,8.930014,3.9242291,3
18826575889715,-0.4211368,8.968299,3.7758741,3
18826578268986,-0.37806597,8.973084,3.8333018,3
18826580648204,-0.4211368,8.896515,4.063013,3
18826583027475,-0.526421,8.882157,4.316652,3
18826585406694,-0.59342,8.886943,4.45065,3
18826587785965,-0.74177504,8.939586,4.3405805,3
18826590165184,-0.8997013,8.944371,4.034299,3
18826592544454,-1.0863415,8.973084,3.8093736,3
18826594923673,-1.268196,9.001799,3.7567315,3
18826597302944,-1.5266209,8.992228,3.9290147,3
18826599682163,-1.7371893,8.944371,4.125226,3
18826602061434,-1.9334008,8.920443,4.2592244,3
18826604440704,-2.024328,8.886943,4.240082,3
18826606819923,-2.0578275,8.930014,4.101298,3
18826609199194,-2.0338993,8.949157,3.885944,3
18826611578413,-2.0195422,8.925228,3.7710886,3
18826613957684,-1.9477576,8.915657,3.8093736,3
18826616336902,-1.8376877,8.891729,3.9960139,3
18826618716173,-1.7180467,8.867801,4.182654,3
18826621095392,-1.5840486,8.843872,4.240082,3
18826623474663,-1.3926228,8.867801,4.139583,3
18826625853881,-1.1820544,8.891729,4.024728,3
18826628233152,-0.9954142,8.9013,3.938586,3
18826630612423,-0.8566305,8.906086,3.9146578,3
18826632991642,-0.7513463,8.867801,4.0007997,3
18826635370913,-0.6795616,8.85823,4.168297,3
18826637750131,-0.6364908,8.863015,4.2927237,3
18826640129402,-0.61734825,8.863015,4.302295,3
18826642508621,-0.6556334,8.877372,4.206582,3
18826644887892,-0.72741807,8.872586,4.0869412,3
18826647267111,-0.81834537,8.9108715,4.048656,3
18826649646381,-0.9619147,8.9013,4.0677986,3
18826652025600,-1.134198,8.863015,4.1587257,3
18826654404871,-1.3112668,8.853444,4.254439,3
18826656784142,-1.4644074,8.848659,4.278367,3
18826659163361,-1.6031911,8.863015,4.2257247,3
18826661542631,-1.7036897,8.863015,4.1204405,3
18826663921850,-1.8137596,8.848659,4.034299,3
18826666301121,-1.8999012,8.839087,4.0295134,3
18826668680340,-1.9334008,8.82473,4.0773697,3
18826671059611,-1.9286151,8.815159,4.182654,3
18826673438829,-1.9238294,8.781659,4.2352962,3
18826675818100,-1.847259,8.796016,4.2017965,3
18826678197319,-1.7324036,8.800801,4.168297,3
18826680576590,-1.6223338,8.819944,4.106084,3
18826682955809,-1.4835501,8.82473,4.072584,3
18826685335079,-1.3351951,8.848659,4.115655,3
18826687714350,-1.2107682,8.848659,4.197011,3
18826690093569,-1.119841,8.82473,4.254439,3
18826692472840,-1.0289137,8.829515,4.2927237,3
18826694852059,-0.93320084,8.819944,4.278367,3
18826697231329,-0.8757731,8.843872,4.2161536,3
18826699610548,-0.80877405,8.863015,4.173083,3
18826701989819,-0.8039884,8.85823,4.168297,3
18826704369038,-0.83748794,8.848659,4.197011,3
18826706748309,-0.9092726,8.834301,4.249653,3
18826709127527,-0.9810573,8.839087,4.273581,3
18826711506798,-1.0815558,8.834301,4.278367,3
18826713886017,-1.1772687,8.829515,4.211368,3
18826716265288,-1.268196,8.805588,4.1587257,3
18826718644506,-1.3495519,8.82473,4.1108694,3
18826721023777,-1.4548361,8.805588,4.1204405,3
18826723403048,-1.5122639,8.82473,4.1587257,3
18826725782267,-1.5696917,8.800801,4.1778684,3
18826728161538,-1.5840486,8.810373,4.1922255,3
18826730540756,-1.5840486,8.800801,4.168297,3
18826732920027,-1.5457634,8.819944,4.1491547,3
18826735299246,-1.4739788,8.834301,4.130012,3
18826737678517,-1.4356936,8.85823,4.125226,3
18826740057736,-1.3686945,8.848659,4.130012,3
18826742437006,-1.2729816,8.85823,4.15394,3
18826744816225,-1.1724831,8.853444,4.1922255,3
18826747195496,-1.1006985,8.853444,4.173083,3
18826749574715,-1.0289137,8.863015,4.1491547,3
18826751953986,-0.9906286,8.882157,4.115655,3
18826754333256,-0.9762716,8.896515,4.1108694,3
18826756712475,-0.98584294,8.882157,4.106084,3
18826759091746,-1.0289137,8.891729,4.130012,3
18826761470965,-1.0767702,8.877372,4.130012,3
18826763850236,-1.1246266,8.915657,4.106084,3
18826766229454,-1.2011969,8.915657,4.1108694,3
18826768608725,-1.2969099,8.9013,4.0773697,3
18826770987944,-1.3639089,8.896515,4.0534415,3
18826773367215,-1.4500505,8.915657,4.024728,3
18826775746434,-1.564906,8.930014,4.0295134,3
18826778125704,-1.6223338,8.9348,4.0390844,3
18826780504923,-1.6893328,8.9348,4.048656,3
18826782884194,-1.7324036,8.939586,4.019942,3
18826785263465,-1.7563318,8.953942,4.0007997,3
18826787642684,-1.7563318,8.968299,4.005585,3
18826790021954,-1.7228323,8.973084,4.0007997,3
18826792401173,-1.6845472,8.9826565,3.9960139,3
18826794780444,-1.6366907,8.973084,4.019942,3
18826797159663,-1.5936198,8.9826565,4.024728,3
18826799538934,-1.5170496,8.963513,4.034299,3
18826801918152,-1.4548361,8.949157,4.024728,3
18826804297423,-1.3591232,8.944371,4.024728,3
18826806676642,-1.2777673,8.930014,4.0295134,3
18826809055913,-1.2011969,8.939586,4.0295134,3
18826811435131,-1.1294123,8.949157,4.024728,3
18826813814402,-1.1102697,8.973084,4.0390844,3
18826816193621,-1.0671989,8.968299,4.0534415,3
18826818572892,-1.0432707,8.9348,4.0773697,3
18826820952163,-1.0576276,8.944371,4.0773697,3
18826823331381,-1.0576276,8.958728,4.063013,3
18826825710600,-1.0815558,8.944371,4.058227,3
18826828089871,-1.0863415,8.949157,4.072584,3
18826830469142,-1.1294123,8.930014,4.063013,3
18826832848361,-1.1820544,8.944371,4.0677986,3
18826835227631,-1.2107682,8.915657,4.0677986,3
18826837606850,-1.2586247,8.925228,4.058227,3
18826839986121,-1.2873386,8.930014,4.072584,3
18826842365340,-1.3399807,8.930014,4.058227,3
18826844744611,-1.3304094,8.930014,4.0438704,3
18826847123829,-1.3639089,8.920443,4.0438704,3
18826849503100,-1.402194,8.920443,4.034299,3
18826851882371,-1.4261223,8.9108715,4.0390844,3
18826854261590,-1.4117653,8.920443,4.034299,3
18826856640861,-1.4069797,8.920443,4.0103707,3
18826859020079,-1.416551,8.925228,4.0103707,3
18826861399350,-1.4069797,8.930014,4.019942,3
18826863778569,-1.3974084,8.920443,4.034299,3
18826866157840,-1.3830515,8.915657,4.034299,3
18826868537059,-1.3543376,8.953942,4.0295134,3
18826870916329,-1.3160524,8.925228,4.019942,3
18826873295548,-1.282553,8.886943,4.019942,3
18826875674819,-1.282553,8.9108715,4.005585,3
18826878054038,-1.282553,8.906086,4.0151563,3
18826880433309,-1.253839,8.896515,4.0295134,3
18826882812527,-1.2490535,8.906086,4.0438704,3
18826885191798,-1.2586247,8.906086,4.0677986,3
18826887571017,-1.2634103,8.886943,4.0677986,3
18826889950288,-1.2729816,8.867801,4.0677986,3
18826892329559,-1.2921243,8.872586,4.058227,3
18826894708777,-1.2729816,8.886943,4.048656,3
18826897088048,-1.3016955,8.872586,4.0773697,3
18826899467267,-1.3064811,8.872586,4.091727,3
18826901846538,-1.3064811,8.863015,4.0965123,3
18826904225756,-1.3064811,8.886943,4.106084,3
18826906605027,-1.2921243,8.85823,4.1204405,3
18826908984246,-1.2634103,8.85823,4.1108694,3
18826911363517,-1.253839,8.882157,4.130012,3
18826913742736,-1.2251252,8.882157,4.1347976,3
18826916122006,-1.1676974,8.843872,4.139583,3
18826918501225,-1.1294123,8.819944,4.15394,3
18826920880496,-1.0863415,8.839087,4.168297,3
18826923259715,-1.052842,8.796016,4.197011,3
18826925638986,-1.0145568,8.819944,4.1874394,3
18826928018204,-1.0049855,8.805588,4.1778684,3
18826930397475,-0.9810573,8.800801,4.182654,3
18826932776694,-0.971486,8.805588,4.1587257,3
18826935155965,-0.9762716,8.819944,4.1778684,3
18826937535236,-0.95712906,8.82473,4.182654,3
18826939914454,-0.971486,8.834301,4.168297,3
18826942293725,-0.9810573,8.853444,4.182654,3
18826944672944,-0.9954142,8.872586,4.2161536,3
18826947052215,-1.0241281,8.886943,4.2257247,3
18826949431434,-1.052842,8.896515,4.211368,3
18826951810704,-1.0671989,8.896515,4.211368,3
18826954189923,-1.0959128,8.906086,4.2161536,3
18826956569194,-1.1102697,8.939586,4.2448673,3
18826958948413,-1.1485549,8.963513,4.23051,3
18826961327684,-1.18684,8.963513,4.211368,3
18826963706902,-1.2346965,8.944371,4.211368,3
18826966086173,-1.2873386,8.920443,4.2161536,3
18826968465392,-1.2969099,8.977871,4.197011,3
18826970844663,-1.3016955,8.949157,4.1922255,3
18826973223881,-1.3447664,8.9348,4.182654,3
18826975603152,-1.3591232,8.930014,4.15394,3
18826977982423,-1.3686945,8.915657,4.1491547,3
18826980361642,-1.3639089,8.891729,4.139583,3
18826982740913,-1.3495519,8.896515,4.139583,3
18826985120131,-1.3543376,8.891729,4.125226,3
18826987499402,-1.3351951,8.891729,4.1204405,3
18826989878621,-1.3160524,8.896515,4.1204405,3
18826992257892,-1.3256238,8.891729,4.1204405,3
18826994637111,-1.2969099,8.877372,4.115655,3
18826997016381,-1.2969099,8.896515,4.1204405,3
18826999395600,-1.3016955,8.915657,4.1347976,3
18827001774871,-1.282553,8.925228,4.1347976,3
18827004154090,-1.2586247,8.925228,4.139583,3
18827006533361,-1.2346965,8.944371,4.1587257,3
18827008912579,-1.2203395,8.973084,4.182654,3
18827011291850,-1.18684,8.953942,4.1778684,3
18827013671069,-1.134198,8.963513,4.1778684,3
18827016050340,-1.119841,8.949157,4.168297,3
18827018429559,-1.1102697,8.920443,4.15394,3
18827020808829,-1.0719845,8.915657,4.1443686,3
18827023188100,-1.0624132,8.896515,4.130012,3
18827025567319,-1.0480564,8.891729,4.130012,3
18827027946590,-0.9906286,8.877372,4.1204405,3
18827030325809,-0.9523434,8.867801,4.125226,3
18827032705079,-0.94277215,8.872586,4.130012,3
18827035084298,-0.93320084,8.872586,4.1204405,3
18827037463569,-0.93320084,8.886943,4.106084,3
18827039842788,-0.9284152,8.877372,4.0773697,3
18827042222059,-0.9284152,8.867801,4.063013,3
18827044601277,-0.94277215,8.853444,4.0677986,3
18827046980548,-0.9667004,8.872586,4.063013,3
18827049359767,-0.9954142,8.863015,4.082155,3
18827051739038,-1.0576276,8.863015,4.101298,3
18827054118256,-1.1150553,8.848659,4.106084,3
18827056497527,-1.1724831,8.853444,4.1108694,3
18827058876746,-1.2586247,8.85823,4.0869412,3
18827061256017,-1.3112668,8.872586,4.082155,3
18827063635236,-1.3639089,8.863015,4.101298,3
18827066014506,-1.4356936,8.867801,4.130012,3
18827068393777,-1.4739788,8.848659,4.139583,3
18827070772996,-1.4835501,8.863015,4.15394,3
18827073152267,-1.4979069,8.85823,4.1587257,3
18827075531486,-1.4883357,8.839087,4.168297,3
18827077910756,-1.4739788,8.834301,4.168297,3
18827080289975,-1.4117653,8.834301,4.182654,3
18827082669246,-1.3495519,8.834301,4.197011,3
18827085048465,-1.2969099,8.829515,4.240082,3
18827087427736,-1.2442678,8.805588,4.254439,3
18827089806954,-1.1772687,8.805588,4.2687955,3
18827092186225,-1.0959128,8.786445,4.278367,3
18827094565444,-1.0624132,8.762517,4.302295,3
18827096944715,-1.0289137,8.743374,4.2975097,3
18827099323934,-1.0145568,8.7577305,4.316652,3
18827101703204,-0.98584294,8.743374,4.3357944,3
18827104082423,-0.9810573,8.729017,4.331009,3
18827106461694,-0.94755775,8.71466,4.331009,3
18827108840913,-0.94755775,8.719446,4.3501515,3
18827111220184,-0.971486,8.709874,4.3645086,3
18827113599454,-0.98584294,8.695518,4.354937,3
18827115978673,-1.0145568,8.685946,4.3788652,3
18827118357944,-1.052842,8.700303,4.3645086,3
18827120737163,-1.0719845,8.709874,4.354937,3
18827123116434,-1.0719845,8.719446,4.345366,3
18827125495652,-1.0911272,8.71466,4.331009,3
18827127874923,-1.0815558,8.719446,4.3501515,3
18827130254142,-1.0576276,8.738588,4.369294,3
18827132633413,-1.052842,8.772088,4.369294,3
18827135012631,-1.0480564,8.781659,4.3645086,3
18827137391902,-1.0336994,8.834301,4.354937,3
18827139771121,-0.9906286,8.853444,4.331009,3
18827142150392,-0.98584294,8.85823,4.3262234,3
18827144529611,-0.9667004,8.863015,4.302295,3
18827146908881,-0.9954142,8.882157,4.273581,3
18827149288100,-1.0576276,8.987442,4.345366,3
18827151667371,-1.0767702,9.016156,4.398008,3
18827154046590,-1.0959128,9.001799,4.2975097,3
18827156425861,-1.119841,9.040084,4.106084,3
18827158805079,-1.0815558,9.12144,3.9146578,3
18827161184350,-1.052842,9.140582,3.885944,3
18827163563569,-1.0576276,9.08794,3.9673,3
18827165942840,-1.1533405,9.068798,4.0390844,3
18827168322059,-1.2107682,9.073584,4.0677986,3
18827170701329,-1.1724831,9.08794,3.9625144,3
18827173080600,-1.1724831,9.097511,3.7423747,3
18827175459819,-1.2155539,9.135797,3.6083765,3
18827177839038,-1.253839,9.116654,3.6466618,3
18827180218309,-1.2442678,9.083155,3.7998023,3
18827182597579,-1.2346965,9.035298,3.9050865,3
18827184976798,-1.2011969,9.064013,3.9098723,3
18827187356069,-1.1294123,9.073584,3.8237305,3
18827189735288,-1.0671989,9.059227,3.7280176,3
18827192114559,-1.0241281,9.073584,3.7136607,3
18827194493777,-1.0097711,9.049655,3.7471602,3
18827196873048,-0.9906286,8.9826565,3.8237305,3
18827199252267,-0.9954142,8.992228,3.9050865,3
18827201631538,-1.0001999,8.977871,3.9338005,3
18827204010756,-1.0145568,8.973084,3.9481573,3
18827206390027,-1.0432707,8.963513,3.952943,3
18827208769246,-1.0863415,8.953942,3.9338005,3
18827211148517,-1.0767702,9.001799,3.9242291,3
18827213527684,-1.0863415,8.992228,3.9433718,3
18827215907006,-1.1294123,8.987442,3.9864426,3
18827218286225,-1.1676974,8.9826565,4.0390844,3
18827220665496,-1.18684,8.958728,4.0677986,3
18827223044715,-1.18684,8.958728,4.072584,3
18827225423986,-1.1964114,8.944371,4.0773697,3
18827227803204,-1.2251252,8.915657,4.048656,3
18827230182475,-1.2442678,8.915657,4.063013,3
18827232561746,-1.253839,8.906086,4.1108694,3
18827234940965,-1.3304094,8.882157,4.168297,3
18827237320236,-1.3447664,8.843872,4.211368,3
18827239699454,-1.3543376,8.786445,4.1874394,3
18827242078725,-1.3160524,8.662018,4.0438704,3
18827244457944,-1.3016955,8.52802,3.7567315,3
18827246837215,-1.3734802,8.690732,3.3403804,3
18827249216434,-1.3256238,9.006584,3.1202407,3
18827251595704,-1.2490535,9.044869,3.3882368,3
18827253974923,-1.3974084,8.863015,3.8620157,3
18827256354194,-1.579263,8.719446,4.168297,3
18827258733413,-1.6414764,8.872586,4.359723,3
18827261112684,-1.5266209,9.097511,4.436293,3
18827263491902,-1.5026926,9.212367,4.331009,3
18827265871173,-1.6271194,9.2793665,4.197011,3
18827268250392,-1.6941184,9.303294,4.354937,3
18827270629663,-1.6319051,9.19801,4.7377887,3
18827273008881,-1.5696917,9.126225,4.9340005,3
18827275388152,-1.5744773,9.140582,4.7377887,3
18827277767371,-1.3974084,9.111869,4.354937,3
18827280146642,-1.0671989,8.9826565,4.082155,3
18827282525861,-0.8135597,8.906086,3.9290147,3
18827284905131,-0.6652047,8.786445,3.9720855,3
18827287284350,-0.49292147,8.628518,4.23051,3
18827289663621,-0.28713873,8.489735,4.5224347,3
18827292042840,-0.10049855,8.456235,4.6229334,3
18827294422111,0.014356935,8.456235,4.469793,3
18827296801329,0.08135597,8.4705925,4.2352962,3
18827299180600,0.11006984,8.499306,4.048656,3
18827301559871,0.023928227,8.580662,4.0677986,3
18827303939090,-0.11964113,8.63809,4.2687955,3
18827306318309,-0.38763726,8.63809,4.4985065,3
18827308697579,-0.7082755,8.671589,4.6085763,3
18827311076850,-0.9667004,8.796016,4.5224347,3
18827313456069,-1.1246266,8.896515,4.3405805,3
18827315835340,-1.3351951,8.968299,4.139583,3
18827318214559,-1.5840486,8.9826565,3.9864426,3
18827320593829,-1.8281165,8.968299,3.9577286,3
18827322973048,-1.9764715,8.915657,4.091727,3
18827325352319,-2.0865414,8.863015,4.254439,3
18827327731538,-2.2301106,8.834301,4.249653,3
18827330110809,-2.2971098,8.829515,4.072584,3
18827332490027,-2.2492533,8.829515,3.8572302,3
18827334869298,-2.1008983,8.867801,3.737589,3
18827337248517,-1.9525433,8.9108715,3.7328033,3
18827339627788,-1.8281165,8.944371,3.842873,3
18827342007006,-1.6319051,8.9108715,4.019942,3
18827344386277,-1.3543376,8.973084,4.2017965,3
18827346765496,-1.052842,9.020942,4.2592244,3
18827349144767,-0.80877405,9.097511,4.1922255,3
18827351523986,-0.5694918,9.135797,4.0438704,3
18827353903256,-0.39720857,9.226724,4.0103707,3
18827356282475,-0.2440679,9.255438,4.1635113,3
18827358661746,-0.2105684,9.226724,4.345366,3
18827361040965,-0.27756742,9.164511,4.4410787,3
18827363420236,-0.36370903,9.145369,4.402794,3
18827365799454,-0.4546363,9.107083,4.2831526,3
18827368178725,-0.6221339,9.102298,4.101298,3
18827370557944,-0.8757731,9.044869,4.0007997,3
18827372937215,-1.1772687,8.925228,3.991228,3
18827375316434,-1.4356936,8.834301,4.072584,3
18827377695704,-1.6558332,8.786445,4.15394,3
18827380074923,-1.8376877,8.738588,4.130012,3
18827382454194,-1.9908284,8.685946,4.091727,3
18827384833413,-2.0865414,8.6141615,4.0295134,3
18827387212684,-2.105684,8.63809,4.0295134,3
18827389591902,-2.0051854,8.63809,4.1108694,3
18827391971173,-1.8951155,8.647661,4.1874394,3
18827394350392,-1.7419748,8.623733,4.206582,3
18827396729663,-1.5218352,8.647661,4.273581,3
18827399108881,-1.2442678,8.671589,4.316652,3
18827401488152,-1.0097711,8.700303,4.3788652,3
18827403867423,-0.80877405,8.671589,4.3932223,3
18827406246642,-0.6029913,8.690732,4.3405805,3
18827408625861,-0.36370903,8.748159,4.316652,3
18827411005131,-0.20578274,8.819944,4.3645086,3
18827413384402,-0.09092726,8.819944,4.4075794,3
18827415763621,-0.05742774,8.781659,4.4889355,3
18827418142892,-0.05742774,8.762517,4.517649,3
18827420522111,-0.014356935,8.800801,4.493721,3
18827422901329,-0.043070808,8.82473,4.4075794,3
18827425280600,-0.2105684,8.925228,4.273581,3
18827427659871,-0.4642076,9.355937,4.321438,3
18827430039090,-0.32542387,9.236296,4.168297,3
18827432418361,-0.22013968,8.413164,3.8380876,3
18827434797579,-1.0049855,8.738588,3.751946,3
18827437176850,-1.1006985,9.413364,3.5892339,3
18827439556069,-0.46899325,9.059227,3.871587,3
18827441935340,-0.72741807,8.489735,4.106084,3
18827444314559,-1.3926228,8.537591,3.7854455,3
18827446693829,-1.3160524,9.250652,3.9242291,3
18827449073048,-0.70348984,9.298509,4.5894337,3
18827451452319,-0.47377887,8.863015,4.321438,3
18827453831538,-0.8279166,8.992228,3.2590244,3
18827456210809,-0.5168497,9.303294,2.656033,3
18827458590027,0.24885355,9.212367,3.2877383,3
18827460969298,0.4977071,9.035298,4.1922255,3
18827463348517,0.023928227,9.049655,4.85743,3
18827465727788,0.02871387,8.781659,5.1206403,3
18827468107006,0.51206404,8.652447,4.9579287,3
18827470486277,0.7082755,9.193225,4.2831526,3
18827472865496,0.52163535,9.480363,3.694518,3
18827475244767,0.34456646,9.049655,3.751946,3
18827477623986,0.076570325,8.695518,4.4745784,3
18827480003256,-0.22971097,8.939586,5.2642097,3
18827482382475,-0.43070808,9.016156,5.5704913,3
18827484761746,-0.5838487,8.729017,5.211568,3
18827487140965,-0.8327023,8.575876,4.3357944,3
18827489520236,-1.038485,8.815159,3.6801612,3
18827491899454,-1.1102697,8.834301,3.6323047,3
18827494278725,-1.3495519,8.63809,4.058227,3
18827496657944,-1.8329022,8.451449,4.4171505,3
18827499037215,-2.2731814,8.451449,4.6899323,3
18827501416434,-2.3018954,8.403593,4.6899323,3
18827503795704,-2.2636101,8.480164,4.402794,3
18827506174923,-2.349752,8.537591,3.8141594,3
18827508554194,-2.498107,8.652447,3.4504502,3
18827510933413,-2.37368,8.6141615,3.641876,3
18827513312631,-2.105684,8.618947,4.1443686,3
18827515691902,-1.8903298,8.695518,4.536792,3
18827518071173,-1.6558332,8.71466,4.651647,3
18827520450392,-1.2586247,8.695518,4.493721,3
18827522829663,-0.7322037,8.843872,4.1635113,3
18827525208881,-0.26799613,9.068798,3.9673,3
18827527588152,0.0526421,9.068798,3.991228,3
18827529967371,0.2440679,8.920443,4.220939,3
18827532346642,0.4211368,8.977871,4.584648,3
18827534725861,0.64606214,9.159725,4.900501,3
18827537105131,0.83748794,9.23151,4.9579287,3
18827539484350,0.8662018,9.202796,4.5655055,3
18827541863621,0.75613195,9.298509,4.1204405,3
18827544242840,0.7322037,9.38465,3.9290147,3
18827546622111,0.6269195,9.327223,4.0295134,3
18827549001329,0.17228323,9.131011,4.211368,3
18827551380600,-0.4546363,9.08794,4.388437,3
18827553759819,-0.8853444,9.020942,4.5320063,3
18827556139090,-1.2346965,9.040084,4.536792,3
18827558518309,-1.6797615,9.044869,4.2448673,3
18827560897579,-2.2205393,9.078369,3.7950168,3
18827563276798,-2.6416762,9.221938,3.5988052,3
18827565656069,-2.8426733,9.265009,3.8093736,3
18827568035288,-2.9958138,9.035298,4.139583,3
18827570414506,-3.3260236,8.930014,4.254439,3
18827572793777,-3.4360933,9.044869,4.2017965,3
18827575173048,-3.2063823,9.025727,4.1491547,3
18827577552267,-2.9192436,8.915657,3.9338005,3
18827579931538,-2.766103,8.944371,3.6514473,3
18827582310756,-2.5172493,8.9348,3.603591,3
18827584690027,-2.1008983,8.786445,3.871587,3
18827587069246,-1.6893328,8.676374,4.101298,3
18827589448465,-1.3495519,8.738588,4.1491547,3
18827591827684,-0.9379865,8.752945,4.048656,3
18827594207006,-0.4546363,8.676374,3.900301,3
18827596586225,-0.038285162,8.709874,3.6610186,3
18827598965496,0.29192436,8.853444,3.5030923,3
18827601344767,0.5886344,8.863015,3.5270207,3
18827603723986,0.8662018,8.781659,3.6131623,3
18827606103204,0.98584294,8.834301,3.6466618,3
18827608482475,1.0767702,8.9348,3.5892339,3
18827610861694,1.1389836,8.920443,3.4743786,3
18827613240965,1.0671989,8.9108715,3.3499517,3
18827615620184,0.85184485,9.044869,3.249453,3
18827617999454,0.6029913,9.145369,3.3212378,3
18827620378725,0.33020952,9.217153,3.5365918,3
18827622757944,-0.05742774,9.365508,3.6658044,3
18827625137215,-0.45942193,9.52822,3.641876,3
18827627516434,-0.8327023,9.68136,3.5892339,3
18827629895652,-1.1485549,9.772287,3.5126636,3
18827632274923,-1.5074782,9.9015,3.4504502,3
18827634654194,-1.9142581,9.987641,3.426522,3
18827637033413,-2.2492533,9.934999,3.5126636,3
18827639412631,-2.5124638,9.858429,3.641876,3
18827641791902,-2.7278178,9.834501,3.751946,3
18827644171121,-2.833102,9.74836,3.7471602,3
18827646550392,-2.833102,9.590433,3.7471602,3
18827648929611,-2.684747,9.336794,3.6514473,3
18827651308881,-2.5555346,9.174082,3.6227336,3
18827653688100,-2.3641088,9.030513,3.6849468,3
18827656067371,-2.009971,8.781659,3.804588,3
18827658446642,-1.698904,8.585447,3.9290147,3
18827660825861,-1.3926228,8.484949,4.0390844,3
18827663205079,-0.9762716,8.374879,4.125226,3
18827665584350,-0.5407779,8.331808,4.240082,3
18827667963569,-0.148355,8.240881,4.359723,3
18827670342840,0.20578274,8.212168,4.479364,3
18827672722059,0.60777694,8.183454,4.627719,3
18827675101329,0.9619147,8.30788,4.948357,3
18827677480548,1.2969099,8.226524,5.2307105,3
18827679859767,1.3782659,8.260024,5.2833524,3
18827682239038,1.3878372,8.350951,5.1158547,3
18827684618309,1.4213367,8.427522,5.0440702,3
18827686997527,1.3686945,8.499306,5.0536413,3
18827689376798,1.038485,8.666803,5.0919266,3
18827691756017,0.6412765,8.719446,5.096712,3
18827694135288,0.22492532,8.705089,5.1493545,3
18827696514506,-0.17706887,8.776874,5.130212,3
18827698893777,-0.6221339,8.949157,5.015356,3
18827701272996,-1.0049855,8.968299,4.790431,3
18827703652267,-1.3686945,9.01137,4.651647,3
18827706031486,-1.6654046,9.068798,4.551149,3
18827708410756,-1.9477576,9.188439,4.5798626,3
18827710789975,-2.1296122,9.126225,4.618148,3
18827713169246,-2.2971098,9.08794,4.599005,3
18827715548465,-2.306681,9.0544405,4.45065,3
18827717927736,-2.2588246,9.059227,4.321438,3
18827720306954,-2.1248264,9.020942,4.1778684,3
18827722686225,-1.9573289,8.963513,4.0869412,3
18827725065444,-1.7324036,8.9348,4.0438704,3
18827727444715,-1.5170496,8.953942,4.1204405,3
18827729823934,-1.2299109,8.949157,4.197011,3
18827732203204,-0.94277215,8.963513,4.23051,3
18827734582423,-0.67477596,8.9826565,4.1587257,3
18827736961694,-0.45942193,8.958728,4.1443686,3
18827739340913,-0.25842485,8.834301,4.1922255,3
18827741720184,-0.2009971,8.724232,4.0869412,3
18827744099402,-0.29192436,9.016156,4.0103707,3
18827746478673,-0.20578274,9.221938,4.072584,3
18827748857892,-0.35413775,9.346365,4.354937,3
18827751237163,-0.55034924,9.078369,4.26401,3
18827753616381,-0.94755775,9.068798,4.063013,3
18827755995600,-1.1916257,9.174082,3.9146578,3
18827758374871,-1.402194,9.312865,3.9577286,3
18827760754142,-1.727618,9.394221,4.005585,3
18827763133361,-2.0817556,9.379865,3.938586,3
18827765512631,-2.3832514,9.30808,3.8380876,3
18827767891850,-2.4454648,9.317652,3.7710886,3
18827770271121,-2.4789643,9.379865,3.7328033,3
18827772650340,-2.5268207,9.30808,3.7088752,3
18827775029611,-2.5220351,9.131011,3.8380876,3
18827777408829,-2.3928227,9.01137,4.058227,3
18827779788100,-2.1008983,9.016156,4.1587257,3
18827782167319,-1.7180467,8.9826565,4.005585,3
18827784546590,-1.3686945,8.9013,3.7423747,3
18827786925809,-0.9954142,8.776874,3.6275191,3
18827789305079,-0.57427746,8.695518,3.7806597,3
18827791684298,-0.19621146,8.585447,4.0390844,3
18827794063569,0.11485548,8.365308,4.1491547,3
18827796442788,0.28235307,8.298309,4.15394,3
18827798822059,0.5312066,8.389236,4.211368,3
18827801201277,0.7322037,8.346166,4.493721,3
18827803580548,0.70348984,8.298309,4.699504,3
18827805959767,0.5455636,8.260024,4.5655055,3
18827808339038,0.4642076,8.202596,4.197011,3
18827810718256,0.29671,8.288737,3.9625144,3
18827813097527,-0.023928227,8.408379,3.9194436,3
18827815476746,-0.49292147,8.441878,4.1347976,3
18827817856017,-0.94277215,8.255239,4.3357944,3
18827820235236,-1.4213367,8.202596,4.3501515,3
18827822614506,-1.8520447,8.398808,4.101298,3
18827824993725,-2.225325,8.609376,3.751946,3
18827827372996,-2.498107,8.566305,3.4600215,3
18827829752215,-2.7948167,8.513663,3.4504502,3
18827832131486,-3.158526,8.60459,3.8285162,3
18827834510704,-3.2733815,8.537591,4.278367,3
18827836889975,-3.2685957,8.441878,4.469793,3
18827839269194,-3.2303107,8.389236,4.106084,3
18827841648465,-3.2446675,8.939586,3.9673,3
18827844027684,-2.6368906,9.111869,3.8476589,3
18827846406902,-2.1870399,9.193225,4.0869412,3
18827848786173,-1.727618,9.2075815,4.1778684,3
18827851165444,-1.2346965,9.38465,4.345366,3
18827853544663,-0.44985065,9.413364,4.5655055,3
18827855923934,0.22492532,9.3511505,4.699504,3
18827858303152,0.7752745,9.265009,4.479364,3
18827860682371,1.2011969,9.379865,4.249653,3
18827863061642,1.7754744,9.41815,4.1635113,3
18827865440861,2.0817556,9.38465,4.2017965,3
18827867820131,2.0003998,9.2793665,4.254439,3
18827870199350,1.7659031,9.145369,4.402794,3
18827872578621,1.5984055,9.016156,4.6372905,3
18827874957840,1.402194,9.006584,4.7377887,3
18827877337111,1.0241281,9.0544405,4.508078,3
18827879716329,0.52163535,9.006584,4.1778684,3
18827882095600,0.11485548,8.930014,4.019942,3
18827884474819,-0.29192436,8.872586,4.072584,3
18827886854090,-0.75613195,8.839087,4.287938,3
18827889233309,-1.2251252,8.700303,4.4745784,3
18827891612579,-1.6462619,8.609376,4.5559344,3
18827893991798,-1.9764715,8.685946,4.546363,3
18827896371069,-2.105684,8.772088,4.4410787,3
18827898750184,-2.239682,8.843872,4.287938,3
18827901129559,-2.3641088,8.867801,4.0965123,3
18827903508777,-2.3401806,8.9108715,4.0534415,3
18827905888048,-2.1343977,8.939586,4.2352962,3
18827908267267,-1.8520447,8.915657,4.4602213,3
18827910646538,-1.5409778,8.853444,4.503292,3
18827913025756,-1.1916257,8.867801,4.4075794,3
18827915405027,-0.72741807,8.944371,4.26401,3
18827917784246,-0.29671,8.949157,4.1587257,3
18827920163517,0.014356935,8.977871,4.125226,3
18827922542736,0.2105684,8.9826565,4.130012,3
18827924922006,0.38285163,8.9348,4.2161536,3
18827927301225,0.57906306,8.896515,4.287938,3
18827929680496,0.6221339,8.891729,4.3118663,3
18827932059715,0.56470615,8.819944,4.23051,3
18827934438986,0.36370903,8.82473,4.1874394,3
18827936818204,0.086141616,8.819944,4.168297,3
18827939197423,-0.20578274,8.848659,4.1347976,3
18827941576694,-0.59342,8.867801,4.101298,3
18827943955913,-0.9906286,8.843872,4.115655,3
18827946335184,-1.3447664,8.805588,4.1204405,3
18827948714454,-1.6654046,8.79123,4.1635113,3
18827951093673,-1.9190438,8.762517,4.2592244,3
18827953472892,-2.1774685,8.729017,4.273581,3
18827955852163,-2.3928227,8.700303,4.2592244,3
18827958231381,-2.5316064,8.762517,4.2017965,3
18827960610652,-2.4741786,8.781659,4.125226,3
18827962989871,-2.416751,8.834301,4.130012,3
18827965369142,-2.2827528,8.829515,4.130012,3
18827967748361,-2.062613,8.805588,4.1874394,3
18827970127631,-1.8041883,8.781659,4.249653,3
18827972506850,-1.5122639,8.829515,4.3405805,3
18827974886121,-1.2155539,8.815159,4.3788652,3
18827977265340,-0.94277215,8.843872,4.3932223,3
18827979644611,-0.6412765,8.834301,4.3645086,3
18827982023829,-0.35413775,8.819944,4.278367,3
18827984403100,-0.1052842,8.853444,4.211368,3
18827986782319,0.0526421,8.839087,4.2448673,3
18827989161590,0.13399807,8.800801,4.3501515,3
18827991540809,0.18664017,8.79123,4.465007,3
18827993920079,0.16271193,8.7673025,4.479364,3
18827996299298,0.086141616,8.752945,4.3740797,3
18827998678569,-0.07178468,8.79123,4.2352962,3
18828001057788,-0.28713873,8.872586,4.1778684,3
18828003437059,-0.46899325,8.85823,4.2017965,3
18828005816277,-0.6891329,8.829515,4.287938,3
18828008195548,-0.9619147,8.853444,4.359723,3
18828010574767,-1.1150553,8.85823,4.359723,3
18828012954038,-1.2155539,8.872586,4.3262234,3
18828015333256,-1.3160524,8.843872,4.273581,3
18828017712527,-1.3639089,8.848659,4.206582,3
18828020091746,-1.3256238,8.863015,4.1635113,3
18828022470965,-1.2921243,8.915657,4.211368,3
18828024850236,-1.1724831,8.9108715,4.2831526,3
18828027229506,-1.0241281,8.906086,4.302295,3
18828029608725,-0.8566305,8.906086,4.2687955,3
18828031987944,-0.63170516,8.891729,4.211368,3
18828034367215,-0.40677986,8.930014,4.139583,3
18828036746434,-0.15792629,8.9108715,4.1108694,3
18828039125704,0.0047856453,8.896515,4.1491547,3
18828041504923,0.148355,8.85823,4.2352962,3
18828043884194,0.26799613,8.867801,4.321438,3
18828046263413,0.36370903,8.886943,4.2831526,3
18828048642684,0.38285163,8.891729,4.206582,3
18828051021902,0.3684947,8.953942,4.1204405,3
18828053401173,0.32063824,8.953942,4.0295134,3
18828055780392,0.21535404,8.968299,4.0103707,3
18828058159663,0.06699903,8.9826565,4.048656,3
18828060538881,-0.12921242,8.992228,4.139583,3
18828062918152,-0.32063824,8.992228,4.197011,3
18828065297371,-0.5407779,8.9826565,4.2017965,3
18828067676642,-0.7178468,8.992228,4.168297,3
18828070055861,-0.8566305,9.025727,4.1204405,3
18828072435131,-0.9762716,9.025727,4.091727,3
18828074814350,-1.0624132,9.0544405,4.082155,3
18828077193621,-1.1724831,9.049655,4.106084,3
18828079572840,-1.2059826,9.059227,4.168297,3
18828081952111,-1.2107682,9.073584,4.2017965,3
18828084331329,-1.1772687,9.040084,4.206582,3
18828086710548,-1.0959128,9.049655,4.1491547,3
18828089089819,-1.0049855,9.068798,4.0965123,3
18828091469038,-0.8566305,9.064013,4.072584,3
18828093848309,-0.72263247,9.0544405,4.072584,3
18828096227527,-0.6364908,9.049655,4.0773697,3
18828098606798,-0.5407779,9.049655,4.0773697,3
18828100986017,-0.47856453,9.068798,4.0773697,3
18828103365288,-0.41635114,9.049655,4.034299,3
18828105744506,-0.4354937,9.064013,4.0390844,3
18828108123777,-0.4211368,9.049655,4.019942,3
18828110502996,-0.47856453,9.040084,4.024728,3
18828112882267,-0.5455636,9.044869,4.0390844,3
18828115261486,-0.6125626,9.044869,4.082155,3
18828117640756,-0.7082755,9.020942,4.082155,3
18828120019975,-0.80877405,9.006584,4.082155,3
18828122399246,-0.85184485,8.997013,4.106084,3
18828124778413,-0.9284152,8.987442,4.125226,3
18828127157736,-0.9954142,8.9108715,4.15394,3
18828129536954,-1.0624132,8.896515,4.1922255,3
18828131916225,-1.0719845,8.877372,4.2257247,3
18828134295444,-1.038485,8.839087,4.26401,3
18828136674663,-1.0097711,8.810373,4.2831526,3
18828139053934,-0.9619147,8.786445,4.2831526,3
18828141433152,-0.89013004,8.7577305,4.2927237,3
18828143812423,-0.76570326,8.7577305,4.331009,3
18828146191642,-0.64606214,8.729017,4.3836513,3
18828148570913,-0.5455636,8.724232,4.369294,3
18828150950131,-0.4546363,8.748159,4.345366,3
18828153329402,-0.3589234,8.729017,4.3405805,3
18828155708621,-0.29671,8.7577305,4.3262234,3
18828158087892,-0.25842485,8.772088,4.316652,3
18828160467111,-0.2440679,8.762517,4.321438,3
18828162846381,-0.25842485,8.815159,4.3118663,3
18828165225600,-0.29671,8.843872,4.249653,3
18828167604871,-0.35413775,8.867801,4.1635113,3
18828169984090,-0.44506502,8.882157,4.1587257,3
18828172363361,-0.52163535,8.872586,4.1778684,3
18828174742579,-0.6221339,8.85823,4.173083,3
18828177121850,-0.7178468,8.882157,4.168297,3
18828179501069,-0.7896315,8.882157,4.125226,3
18828181880340,-0.8757731,8.9013,4.082155,3
18828184259559,-0.9236295,8.9013,4.0295134,3
18828186638829,-0.9810573,8.930014,4.019942,3
18828189018048,-0.98584294,8.9108715,4.0151563,3
18828191397319,-1.0145568,8.930014,4.0151563,3
18828193776538,-1.0432707,8.9013,4.0151563,3
18828196155756,-1.038485,8.939586,3.9960139,3
18828198535027,-1.0145568,8.963513,3.9481573,3
18828200914246,-0.9810573,8.963513,3.9577286,3
18828203293517,-0.91405827,8.944371,3.9768713,3
18828205672736,-0.8997013,8.9348,4.024728,3
18828208052006,-0.86141616,8.9013,4.0534415,3
18828210431225,-0.8135597,8.877372,4.063013,3
18828212810496,-0.79441714,8.906086,4.072584,3
18828215189715,-0.7896315,8.9108715,4.0773697,3
18828217568986,-0.79441714,8.896515,4.0869412,3
18828219948204,-0.82313097,8.9013,4.101298,3
18828222327423,-0.8566305,8.867801,4.1443686,3
18828224706694,-0.8853444,8.867801,4.173083,3
18828227085965,-0.9236295,8.85823,4.206582,3
18828229465184,-0.98584294,8.82473,4.2257247,3
18828231844454,-1.0001999,8.839087,4.23051,3
18828234223673,-1.0289137,8.819944,4.2161536,3
18828236602892,-1.0719845,8.829515,4.240082,3
18828238982163,-1.1102697,8.815159,4.2161536,3
18828241361434,-1.1389836,8.82473,4.278367,3
18828243740652,-1.134198,8.815159,4.369294,3
18828246119871,-1.119841,8.810373,4.345366,3
18828248499142,-1.0863415,8.796016,4.3357944,3
18828250878361,-0.9619147,8.79123,4.3788652,3
18828253257631,-0.80877405,8.796016,4.398008,3
18828255636850,-0.63170516,8.772088,4.331009,3
18828258016121,-0.47377887,8.82473,4.316652,3
18828260395340,-0.31106696,8.834301,4.3405805,3
18828262774611,-0.2009971,8.848659,4.369294,3
18828265153829,-0.18664017,8.85823,4.3070807,3
18828267533048,-0.23449662,8.906086,4.249653,3
18828269912319,-0.25842485,8.886943,4.220939,3
18828272291590,-0.3684947,8.896515,4.1874394,3
18828274670809,-0.49292147,8.9348,4.1443686,3
18828277050027,-0.6412765,8.968299,4.1204405,3
18828279429298,-0.6987042,8.953942,4.0534415,3
18828281808517,-0.83748794,9.025727,4.048656,3
18828284187788,-0.8662018,9.030513,4.0390844,3
18828286567006,-0.9379865,9.08794,4.0773697,3
18828288946277,-0.9619147,9.0544405,4.072584,3
18828291325496,-1.0193424,9.097511,4.0869412,3
18828293704767,-1.038485,9.12144,4.072584,3
18828296083986,-1.0336994,9.15494,4.0869412,3
18828298463256,-1.0001999,9.08794,4.0965123,3
18828300842475,-0.9667004,9.059227,4.1347976,3
18828303221746,-0.8757731,9.092726,4.182654,3
18828305600965,-0.7322037,9.083155,4.2161536,3
18828307980236,-0.66041905,9.035298,4.23051,3
18828310359454,-0.526421,8.987442,4.1635113,3
18828312738673,-0.37328035,9.025727,4.173083,3
18828315117944,-0.21535404,9.025727,4.1874394,3
18828317497163,-0.12921242,9.01137,4.182654,3
18828319876381,-0.09092726,9.001799,4.1778684,3
18828322255652,-0.06699903,8.953942,4.2161536,3
18828324634923,-0.11964113,8.977871,4.2592244,3
18828327014142,-0.19142582,8.963513,4.273581,3
18828329393413,-0.3062813,8.963513,4.2831526,3
18828331772631,-0.44985065,8.915657,4.2831526,3
18828334151902,-0.5982057,8.9348,4.287938,3
18828336531121,-0.76570326,8.949157,4.3070807,3
18828338910392,-0.971486,8.915657,4.302295,3
18828341289611,-1.1676974,8.9013,4.2975097,3
18828343668829,-1.3639089,8.9108715,4.278367,3
18828346048100,-1.5026926,8.9108715,4.249653,3
18828348427371,-1.6510476,8.906086,4.220939,3
18828350806590,-1.713261,8.886943,4.1778684,3
18828353185861,-1.7563318,8.877372,4.1491547,3
18828355565079,-1.7371893,8.839087,4.168297,3
18828357944298,-1.7563318,8.829515,4.182654,3
18828360323569,-1.7706888,8.834301,4.139583,3
18828362702788,-1.7946169,8.872586,4.130012,3
18828365082059,-1.7563318,8.843872,4.106084,3
18828367461277,-1.6941184,8.829515,4.115655,3
18828369840548,-1.5744773,8.867801,4.1108694,3
18828372219767,-1.4069797,8.9013,4.1108694,3
18828374599038,-1.2155539,8.882157,4.101298,3
18828376978256,-0.9667004,8.877372,4.0773697,3
18828379357527,-0.7178468,8.877372,4.0438704,3
18828381736746,-0.4977071,8.9108715,4.0103707,3
18828384116017,-0.29671,8.949157,4.0151563,3
18828386495236,-0.15792629,8.925228,4.0295134,3
18828388874454,-0.08135597,8.915657,4.0438704,3
18828391253725,-0.07178468,8.9108715,4.048656,3
18828393632944,-0.11964113,8.915657,4.072584,3
18828396012215,-0.22971097,8.906086,4.072584,3
18828398391434,-0.3924229,8.915657,4.0677986,3
18828400770704,-0.5312066,8.891729,4.0390844,3
18828403149923,-0.7082755,8.877372,4.0534415,3
18828405529194,-0.8566305,8.886943,4.048656,3
18828407908413,-1.0193424,8.906086,4.0390844,3
18828410287684,-1.1724831,8.882157,4.048656,3
18828412666902,-1.282553,8.867801,4.0390844,3
18828415046173,-1.3447664,8.925228,4.0438704,3
18828417425392,-1.3878372,8.920443,4.063013,3
18828419804611,-1.3734802,8.882157,4.082155,3
18828422183881,-1.3304094,8.872586,4.115655,3
18828424563100,-1.2394822,8.867801,4.1635113,3
18828426942371,-1.1676974,8.853444,4.1922255,3
18828429321590,-1.0289137,8.85823,4.211368,3
18828431700861,-0.8997013,8.85823,4.278367,3
18828434080079,-0.7322037,8.867801,4.287938,3
18828436459350,-0.5838487,8.877372,4.3262234,3
18828438838569,-0.43070808,8.867801,4.3405805,3
18828441217840,-0.28235307,8.872586,4.3788652,3
18828443597059,-0.148355,8.85823,4.402794,3
18828445976329,-0.062213387,8.853444,4.421936,3
18828448355548,0.033499517,8.867801,4.412365,3
18828450734767,0.05742774,8.867801,4.4410787,3
18828453114038,0.11006984,8.863015,4.436293,3
18828455493309,0.124426775,8.867801,4.436293,3
18828457872527,0.11006984,8.848659,4.421936,3
18828460251746,0.05742774,8.848659,4.412365,3
18828462631017,-0.0526421,8.853444,4.3836513,3
18828465010236,-0.17228323,8.853444,4.359723,3
18828467389506,-0.31106696,8.85823,4.321438,3
18828469768725,-0.47856453,8.85823,4.26401,3
18828472147996,-0.64606214,8.85823,4.211368,3
18828474527215,-0.80877405,8.896515,4.1778684,3
18828476906486,-0.9236295,8.896515,4.15394,3
18828479285704,-1.0671989,8.872586,4.106084,3
18828481664975,-1.1724831,8.891729,4.101298,3
18828484044194,-1.2394822,8.9013,4.101298,3
18828486423413,-1.2634103,8.9108715,4.0965123,3
18828488802684,-1.2921243,8.920443,4.091727,3
18828491181902,-1.2586247,8.930014,4.072584,3
18828493561173,-1.2155539,8.944371,4.091727,3
18828495940392,-1.1485549,8.944371,4.0869412,3
18828498319663,-1.0815558,8.973084,4.082155,3
18828500698881,-0.9954142,8.930014,4.0534415,3
18828503078152,-0.8709874,8.915657,4.072584,3
18828505457371,-0.74177504,8.920443,4.082155,3
18828507836642,-0.66041905,8.949157,4.0677986,3
18828510215861,-0.6125626,8.973084,4.0295134,3
18828512595131,-0.5982057,9.001799,4.0438704,3
18828514974350,-0.5838487,8.958728,4.063013,3
18828517353569,-0.60777694,8.968299,4.072584,3
18828519732840,-0.66999036,8.987442,4.1204405,3
18828522112059,-0.6843473,8.987442,4.173083,3
18828524491329,-0.70348984,8.968299,4.173083,3
18828526870548,-0.76570326,8.944371,4.1778684,3
18828529249819,-0.8135597,8.963513,4.1922255,3
18828531629038,-0.8422736,8.963513,4.211368,3
18828534008309,-0.8997013,8.930014,4.240082,3
18828536387527,-0.971486,8.9348,4.2352962,3
18828538766798,-1.052842,8.944371,4.2352962,3
18828541146017,-1.1102697,8.915657,4.249653,3
18828543525236,-1.1485549,8.886943,4.2448673,3
18828545904506,-1.2011969,8.896515,4.2257247,3
18828548283725,-1.2490535,8.9348,4.2257247,3
18828550662996,-1.2203395,8.891729,4.211368,3
18828553042163,-1.2251252,8.9013,4.182654,3
18828555421486,-1.1916257,8.9348,4.1874394,3
18828557800704,-1.119841,8.958728,4.220939,3
18828560179975,-1.038485,8.939586,4.2161536,3
18828562559194,-1.0001999,8.9348,4.211368,3
18828564938465,-0.9236295,8.968299,4.220939,3
18828567317684,-0.8422736,8.973084,4.23051,3
18828569696902,-0.7800602,8.953942,4.2352962,3
18828572076173,-0.7178468,8.963513,4.197011,3
18828574455392,-0.6795616,8.968299,4.206582,3
18828576834663,-0.65084773,8.953942,4.2257247,3
18828579213881,-0.63170516,8.925228,4.220939,3
18828581593152,-0.66041905,8.906086,4.220939,3
18828583972371,-0.66999036,8.915657,4.2161536,3
18828586351642,-0.6987042,8.891729,4.23051,3
18828588730861,-0.72741807,8.882157,4.2017965,3
18828591110131,-0.81834537,8.877372,4.182654,3
18828593489350,-0.90448695,8.882157,4.173083,3
18828595868621,-0.95712906,8.853444,4.1635113,3
18828598247840,-1.0671989,8.882157,4.1778684,3
18828600627059,-1.1485549,8.877372,4.1778684,3
18828603006329,-1.2011969,8.886943,4.1778684,3
18828605385548,-1.268196,8.891729,4.15394,3
18828607764819,-1.3160524,8.872586,4.1491547,3
18828610144038,-1.3208381,8.867801,4.1491547,3
18828612523309,-1.3208381,8.867801,4.1347976,3
18828614902527,-1.3208381,8.882157,4.106084,3
18828617281798,-1.3160524,8.882157,4.1108694,3
18828619661017,-1.2921243,8.886943,4.115655,3
18828622040236,-1.2299109,8.877372,4.0965123,3
18828624419506,-1.2107682,8.863015,4.1108694,3
18828626798725,-1.1629118,8.853444,4.1108694,3
18828629177996,-1.105484,8.891729,4.106084,3
18828631557215,-1.0576276,8.877372,4.1108694,3
18828633936486,-0.9954142,8.877372,4.1108694,3
18828636315704,-0.95712906,8.9108715,4.1108694,3
18828638694975,-0.8757731,8.906086,4.106084,3
18828641074194,-0.8470592,8.9013,4.1204405,3
18828643453465,-0.81834537,8.906086,4.115655,3
18828645832684,-0.7896315,8.9108715,4.1204405,3
18828648211902,-0.7848458,8.939586,4.1204405,3
18828650591173,-0.7513463,8.939586,4.1347976,3
18828652970392,-0.7369894,8.939586,4.125226,3
18828655349663,-0.72263247,8.963513,4.1491547,3
18828657728881,-0.71306115,8.973084,4.1635113,3
18828660108152,-0.6939186,8.963513,4.1587257,3
18828662487371,-0.6939186,8.920443,4.168297,3
18828664866642,-0.6795616,8.925228,4.1778684,3
18828667245861,-0.6652047,8.906086,4.182654,3
18828669625131,-0.67477596,8.906086,4.1922255,3
18828672004350,-0.67477596,8.915657,4.1922255,3
18828674383621,-0.67477596,8.9348,4.1635113,3
18828676762840,-0.6891329,8.915657,4.2017965,3
18828679142059,-0.7178468,8.9108715,4.197011,3
18828681521329,-0.7609176,8.906086,4.2017965,3
18828683900548,-0.7704889,8.925228,4.206582,3
18828686279819,-0.8039884,8.920443,4.1922255,3
18828688658986,-0.8470592,8.949157,4.2017965,3
18828691038309,-0.86141616,8.939586,4.2017965,3
18828693417527,-0.9236295,8.915657,4.197011,3
18828695796798,-0.9810573,8.944371,4.2017965,3
18828698176017,-1.038485,8.925228,4.182654,3
18828700555236,-1.0911272,8.920443,4.2017965,3
18828702934506,-1.119841,8.925228,4.2017965,3
18828705313725,-1.1772687,8.915657,4.173083,3
18828707692996,-1.2442678,8.9108715,4.168297,3
18828710072215,-1.2729816,8.891729,4.1587257,3
18828712451486,-1.2921243,8.9013,4.1491547,3
18828714830652,-1.3160524,8.867801,4.173083,3
18828717209975,-1.2729816,8.85823,4.1587257,3
18828719589194,-1.2490535,8.853444,4.173083,3
18828721968413,-1.2251252,8.872586,4.168297,3
18828724347684,-1.1724831,8.872586,4.15394,3
18828726726902,-1.1246266,8.877372,4.1347976,3
18828729106173,-1.0624132,8.9013,4.139583,3
18828731485392,-1.0145568,8.896515,4.1491547,3
18828733864663,-0.9810573,8.9348,4.1635113,3
18828736243881,-0.95712906,8.9348,4.168297,3
18828738623152,-0.9236295,8.930014,4.168297,3
18828741002371,-0.90448695,8.920443,4.1443686,3
18828743381590,-0.91884387,8.939586,4.139583,3
18828745760861,-0.9236295,8.930014,4.139583,3
18828748140079,-0.9284152,8.896515,4.1491547,3
18828750519350,-0.94277215,8.886943,4.1443686,3
18828752898569,-0.9954142,8.9108715,4.1443686,3
18828755277840,-1.0432707,8.886943,4.1443686,3
18828757657059,-1.1006985,8.863015,4.130012,3
18828760036329,-1.1102697,8.886943,4.130012,3
18828762415548,-1.1485549,8.896515,4.115655,3
18828764794819,-1.1772687,8.877372,4.125226,3
18828767174038,-1.2107682,8.877372,4.106084,3
18828769553256,-1.2251252,8.896515,4.125226,3
18828771932527,-1.2107682,8.9013,4.1204405,3
18828774311746,-1.1820544,8.886943,4.115655,3
18828776691017,-1.1437693,8.896515,4.1108694,3
18828779070236,-1.0911272,8.896515,4.0965123,3
18828781449506,-1.0193424,8.9108715,4.0965123,3
18828783828725,-0.9284152,8.9013,4.1108694,3
18828786207996,-0.83748794,8.9108715,4.115655,3
18828788587215,-0.7704889,8.9013,4.1204405,3
18828790966434,-0.6987042,8.9013,4.1204405,3
18828793345704,-0.6125626,8.9108715,4.125226,3
18828795724923,-0.56470615,8.9108715,4.1347976,3
18828798104194,-0.5168497,8.906086,4.168297,3
18828800483413,-0.46899325,8.896515,4.173083,3
18828802862684,-0.4642076,8.9013,4.173083,3
18828805241902,-0.47377887,8.896515,4.1635113,3
18828807621173,-0.4977071,8.886943,4.1874394,3
18828810000392,-0.5312066,8.896515,4.1778684,3
18828812379611,-0.6221339,8.891729,4.182654,3
18828814758881,-0.6891329,8.925228,4.1922255,3
18828817138100,-0.7513463,8.925228,4.2017965,3
18828819517371,-0.8327023,8.925228,4.206582,3
18828821896590,-0.94277215,8.915657,4.1922255,3
18828824275861,-0.98584294,8.925228,4.197011,3
18828826655079,-1.0336994,8.939586,4.1922255,3
18828829034350,-1.0959128,8.958728,4.1922255,3
18828831413569,-1.1629118,8.944371,4.1922255,3
18828833792840,-1.1964114,8.930014,4.197011,3
18828836172059,-1.2155539,8.920443,4.197011,3
18828838551277,-1.2011969,8.9108715,4.206582,3
18828840930548,-1.2059826,8.949157,4.2017965,3
18828843309767,-1.2059826,8.949157,4.173083,3
18828845689038,-1.1724831,8.953942,4.1587257,3
18828848068256,-1.1389836,8.973084,4.1443686,3
18828850447527,-1.0863415,8.977871,4.125226,3
18828852826746,-1.0671989,8.977871,4.125226,3
18828855206017,-1.0145568,8.963513,4.125226,3
18828857585236,-0.971486,8.9826565,4.130012,3
18828859964454,-0.9619147,8.9826565,4.101298,3
18828862343725,-0.93320084,8.973084,4.106084,3
18828864722944,-0.91884387,8.953942,4.1108694,3
18828867102215,-0.93320084,8.958728,4.0965123,3
18828869481434,-0.9379865,8.973084,4.115655,3
18828871860704,-0.95712906,8.9348,4.1347976,3
18828874239923,-1.0097711,8.939586,4.139583,3
18828876619194,-1.038485,8.925228,4.130012,3
18828878998413,-1.0767702,8.920443,4.1491547,3
18828881377631,-1.0911272,8.896515,4.15394,3
18828883756902,-1.1102697,8.891729,4.15394,3
18828886136121,-1.134198,8.906086,4.1491547,3
18828888515392,-1.1820544,8.891729,4.1443686,3
18828890894611,-1.1916257,8.891729,4.15394,3
18828893273881,-1.2107682,8.886943,4.1491547,3
18828895653100,-1.2346965,8.896515,4.15394,3
18828898032319,-1.2203395,8.891729,4.125226,3
18828900411590,-1.2107682,8.877372,4.1108694,3
18828902790809,-1.2203395,8.896515,4.1204405,3
18828905170079,-1.2011969,8.867801,4.106084,3
18828907549298,-1.2011969,8.867801,4.0869412,3
18828909928569,-1.1964114,8.872586,4.091727,3
18828912307788,-1.1964114,8.9013,4.0965123,3
18828914687006,-1.2059826,8.9013,4.0965123,3
18828917066277,-1.2346965,8.891729,4.0869412,3
18828919445496,-1.253839,8.863015,4.0773697,3
18828921824767,-1.2490535,8.872586,4.072584,3
18828924203986,-1.2777673,8.877372,4.082155,3
18828926583256,-1.2873386,8.867801,4.091727,3
18828928962475,-1.3112668,8.872586,4.0965123,3
18828931341746,-1.3351951,8.867801,4.106084,3
18828933720965,-1.3495519,8.882157,4.125226,3
18828936100236,-1.3447664,8.9013,4.1204405,3
18828938479402,-1.3351951,8.886943,4.106084,3
18828940858673,-1.3304094,8.867801,4.106084,3
18828943237944,-1.3399807,8.863015,4.101298,3
18828945617163,-1.3112668,8.872586,4.0869412,3
18828947996434,-1.268196,8.882157,4.082155,3
18828950375652,-1.2203395,8.872586,4.0773697,3
18828952754923,-1.1485549,8.891729,4.063013,3
18828955134142,-1.0815558,8.867801,4.0438704,3
18828957513361,-1.0480564,8.882157,4.0438704,3
18828959892631,-0.9810573,8.867801,4.024728,3
18828962271850,-0.9236295,8.85823,4.019942,3
18828964651121,-0.89013004,8.872586,4.0295134,3
18828967030288,-0.8422736,8.891729,4.024728,3
18828969409611,-0.8039884,8.891729,4.0295134,3
18828971788829,-0.80877405,8.877372,4.0438704,3
18828974168048,-0.8327023,8.906086,4.034299,3
18828976547319,-0.8709874,8.9013,4.0295134,3
18828978926590,-0.90448695,8.9108715,4.0390844,3
18828981305809,-0.91405827,8.906086,4.048656,3
18828983685027,-0.9906286,8.863015,4.072584,3
18828986064298,-1.038485,8.85823,4.072584,3
18828988443517,-1.0671989,8.85823,4.072584,3
18828990822788,-1.1294123,8.839087,4.0869412,3
18828993202006,-1.1581261,8.848659,4.1108694,3
18828995581225,-1.1820544,8.843872,4.1347976,3
18828997960496,-1.1772687,8.848659,4.1635113,3
18829000339715,-1.2011969,8.85823,4.173083,3
18829002718986,-1.1964114,8.867801,4.173083,3
18829005098204,-1.1820544,8.853444,4.1874394,3
18829007477475,-1.1676974,8.839087,4.2161536,3
18829009856694,-1.134198,8.867801,4.240082,3
18829012235913,-1.1246266,8.863015,4.26401,3
18829014615184,-1.0959128,8.877372,4.278367,3
18829016994402,-1.0767702,8.867801,4.2927237,3
18829019373673,-1.0480564,8.906086,4.3118663,3
18829021752892,-1.0480564,8.896515,4.3118663,3
18829024132163,-1.038485,8.9108715,4.331009,3
18829026511381,-1.0336994,8.915657,4.3357944,3
18829028890652,-1.0671989,8.896515,4.316652,3
18829031269871,-1.0815558,8.915657,4.3118663,3
18829033649090,-1.105484,8.906086,4.3070807,3
18829036028361,-1.1485549,8.9108715,4.273581,3
18829038407579,-1.1724831,8.9108715,4.249653,3
18829040786850,-1.2203395,8.9013,4.23051,3
18829043166069,-1.2729816,8.872586,4.2161536,3
18829045545340,-1.3112668,8.882157,4.15394,3
18829047924559,-1.3543376,8.896515,4.1491547,3
18829050303777,-1.402194,8.863015,4.130012,3
18829052683048,-1.4356936,8.891729,4.106084,3
18829055062267,-1.4404793,8.915657,4.0773697,3
18829057441538,-1.4500505,8.925228,4.063013,3
18829059820756,-1.4691931,8.9348,4.048656,3
18829062199975,-1.4691931,8.939586,4.0534415,3
18829064579246,-1.4500505,8.944371,4.0534415,3
18829066958465,-1.402194,8.987442,4.058227,3
18829069337736,-1.3639089,8.958728,4.063013,3
18829071716954,-1.3304094,8.968299,4.0534415,3
18829074096225,-1.3064811,8.953942,4.0534415,3
18829076475444,-1.2442678,8.973084,4.034299,3
18829078854715,-1.1772687,8.977871,4.0438704,3
18829081233934,-1.1150553,8.953942,4.048656,3
18829083613204,-1.0863415,8.958728,4.058227,3
18829085992423,-1.0336994,8.939586,4.063013,3
18829088371642,-1.0289137,8.915657,4.063013,3
18829090750913,-1.0480564,8.906086,4.0773697,3
18829093130131,-1.0241281,8.896515,4.091727,3
18829095509402,-1.0671989,8.9013,4.0869412,3
18829097888309,-1.1150553,8.896515,4.101298,3
18829100267892,-1.1533405,8.891729,4.115655,3
18829102647111,-1.2011969,8.867801,4.0965123,3
18829105026329,-1.2729816,8.848659,4.0869412,3
18829107405600,-1.2921243,8.85823,4.0773697,3
18829109784819,-1.3399807,8.863015,4.091727,3
18829112164090,-1.3734802,8.872586,4.0965123,3
18829114543309,-1.3830515,8.85823,4.091727,3
18829116922579,-1.4069797,8.843872,4.091727,3
18829119301798,-1.4213367,8.85823,4.0965123,3
18829121681017,-1.430908,8.839087,4.115655,3
18829124060288,-1.416551,8.805588,4.0965123,3
18829126439506,-1.3734802,8.819944,4.0869412,3
18829128818777,-1.3304094,8.829515,4.0965123,3
18829131197996,-1.268196,8.829515,4.106084,3
18829133577267,-1.18684,8.805588,4.0965123,3
18829135956486,-1.1150553,8.815159,4.115655,3
18829138335704,-1.0432707,8.848659,4.1204405,3
18829140714975,-1.0049855,8.85823,4.1108694,3
18829143094194,-0.9619147,8.867801,4.1347976,3
18829145473465,-0.9236295,8.843872,4.130012,3
18829147852684,-0.90448695,8.872586,4.1443686,3
18829150231954,-0.8805587,8.896515,4.1587257,3
18829152611173,-0.8805587,8.886943,4.168297,3
18829154990392,-0.91405827,8.872586,4.1874394,3
18829157369663,-0.9619147,8.882157,4.197011,3
18829159748881,-0.98584294,8.886943,4.1922255,3
18829162128152,-1.038485,8.882157,4.2017965,3
18829164507371,-1.105484,8.882157,4.211368,3
18829166886642,-1.1533405,8.877372,4.2017965,3
18829169265861,-1.1916257,8.886943,4.2017965,3
18829171645079,-1.2299109,8.882157,4.211368,3
18829174024350,-1.268196,8.886943,4.211368,3
18829176403569,-1.2729816,8.863015,4.211368,3
18829178782840,-1.3016955,8.85823,4.2017965,3
18829181162059,-1.282553,8.867801,4.1874394,3
18829183541329,-1.2969099,8.85823,4.173083,3
18829185920548,-1.2586247,8.848659,4.1778684,3
18829188299767,-1.2394822,8.877372,4.182654,3
18829190679038,-1.2059826,8.867801,4.2017965,3
18829193058256,-1.1772687,8.886943,4.2017965,3
18829195437527,-1.1389836,8.85823,4.206582,3
18829197816746,-1.1150553,8.85823,4.1922255,3
18829200196017,-1.105484,8.867801,4.1778684,3
18829202575236,-1.0863415,8.882157,4.1635113,3
18829204954454,-1.0767702,8.872586,4.1778684,3
18829207333725,-1.0719845,8.886943,4.1587257,3
18829209712892,-1.105484,8.85823,4.15394,3
18829212092215,-1.1246266,8.863015,4.115655,3
18829214471434,-1.1294123,8.891729,4.101298,3
18829216850704,-1.1581261,8.882157,4.0965123,3
18829219229923,-1.2299109,8.872586,4.0773697,3
18829221609194,-1.2442678,8.877372,4.072584,3
18829223988413,-1.2921243,8.906086,4.0677986,3
18829226367631,-1.3160524,8.915657,4.058227,3
18829228746850,-1.3734802,8.930014,4.0438704,3
18829231126121,-1.4117653,8.949157,4.0390844,3
18829233505392,-1.430908,8.939586,4.019942,3
18829235884611,-1.4452649,8.953942,4.0103707,3
18829238263829,-1.4548361,8.925228,4.0007997,3
18829240643100,-1.4596218,8.944371,4.0295134,3
18829243022319,-1.4500505,8.9348,4.019942,3
18829245401590,-1.4452649,8.886943,3.9960139,3
18829247780809,-1.4069797,8.891729,3.9960139,3
18829250160079,-1.3782659,8.925228,4.0390844,3
18829252539298,-1.3399807,8.906086,4.048656,3
18829254918517,-1.3495519,8.882157,4.0438704,3
18829257297788,-1.3399807,8.896515,4.058227,3
18829259676954,-1.3016955,8.915657,4.115655,3
18829262056277,-1.2873386,8.915657,4.0965123,3
18829264435496,-1.3304094,8.9108715,4.058227,3
18829266814715,-1.3304094,8.9108715,4.0677986,3
18829269193986,-1.3064811,8.9348,4.1204405,3
18829271573204,-1.3160524,8.915657,4.139583,3
18829273952475,-1.3208381,8.920443,4.115655,3
18829276331694,-1.3160524,8.968299,4.125226,3
18829278710965,-1.3304094,8.944371,4.1347976,3
18829281090184,-1.3304094,8.920443,4.125226,3
18829283469454,-1.3399807,8.963513,4.1204405,3
18829285848673,-1.3447664,8.949157,4.1491547,3
18829288227892,-1.3112668,8.891729,4.168297,3
18829290607163,-1.2873386,8.882157,4.173083,3
18829292986329,-1.2873386,8.925228,4.1587257,3
18829295365652,-1.2299109,8.915657,4.168297,3
18829297744871,-1.1724831,8.867801,4.182654,3
18829300124142,-1.1533405,8.867801,4.1587257,3
18829302503361,-1.1150553,8.867801,4.1778684,3
18829304882579,-1.0671989,8.853444,4.2257247,3
18829307261850,-1.0049855,8.877372,4.2257247,3
18829309641069,-0.9810573,8.886943,4.1922255,3
18829312020340,-0.9523434,8.882157,4.168297,3
18829314399559,-0.91405827,8.867801,4.182654,3
18829316778777,-0.91405827,8.886943,4.173083,3
18829319158048,-0.94277215,8.930014,4.1587257,3
18829321537267,-0.9619147,8.920443,4.1491547,3
18829323916538,-0.9954142,8.906086,4.139583,3
18829326295756,-1.038485,8.9348,4.1204405,3
18829328675027,-1.1102697,8.939586,4.101298,3
18829331054246,-1.18684,8.930014,4.115655,3
18829333433465,-1.2155539,8.925228,4.115655,3
18829335812736,-1.2873386,8.930014,4.106084,3
18829338191954,-1.3399807,8.968299,4.101298,3
18829340571225,-1.3639089,8.944371,4.101298,3
18829342950444,-1.3878372,8.9013,4.0965123,3
18829345329715,-1.4069797,8.939586,4.063013,3
18829347708934,-1.4213367,8.944371,4.072584,3
18829350088152,-1.4213367,8.915657,4.082155,3
18829352467423,-1.416551,8.930014,4.0677986,3
18829354846642,-1.416551,8.953942,4.072584,3
18829357225913,-1.402194,8.953942,4.082155,3
18829359605131,-1.3878372,8.944371,4.0965123,3
18829361984402,-1.4069797,8.939586,4.091727,3
18829364363621,-1.416551,8.925228,4.072584,3
18829366742840,-1.416551,8.915657,4.0869412,3
18829369122111,-1.4261223,8.872586,4.115655,3
18829371501329,-1.4596218,8.839087,4.1204405,3
18829373880600,-1.4787644,8.863015,4.115655,3
18829376259819,-1.4883357,8.85823,4.130012,3
18829378639038,-1.4931214,8.829515,4.130012,3
18829381018309,-1.5218352,8.834301,4.115655,3
18829383397527,-1.5026926,8.848659,4.0965123,3
18829385776798,-1.4931214,8.829515,4.115655,3
18829388156017,-1.4883357,8.843872,4.101298,3
18829390535288,-1.4835501,8.853444,4.0965123,3
18829392914506,-1.4691931,8.843872,4.106084,3
18829395293725,-1.4452649,8.863015,4.091727,3
18829397672996,-1.4261223,8.82473,4.0965123,3
18829400052215,-1.4069797,8.85823,4.082155,3
18829402431486,-1.3591232,8.867801,4.0773697,3
18829404810704,-1.3256238,8.853444,4.072584,3
18829407189923,-1.2921243,8.863015,4.058227,3
18829409569194,-1.2490535,8.9013,4.058227,3
18829411948413,-1.2155539,8.915657,4.0534415,3
18829414327684,-1.2299109,8.920443,4.0438704,3
18829416706902,-1.18684,8.9348,4.019942,3
18829419086173,-1.2107682,8.939586,4.019942,3
18829421465392,-1.253839,8.939586,4.0103707,3
18829423844611,-1.2729816,8.9348,3.991228,3
18829426223881,-1.3447664,8.925228,3.9816568,3
18829428603100,-1.3878372,8.944371,3.991228,3
18829430982371,-1.430908,8.9108715,3.9816568,3
18829433361590,-1.4979069,8.944371,3.9864426,3
18829435740809,-1.5840486,8.968299,3.9816568,3
18829438120079,-1.6319051,8.977871,4.0007997,3
18829440499298,-1.6510476,8.939586,3.9768713,3
18829442878569,-1.6654046,8.953942,3.9768713,3
18829445257788,-1.6797615,8.958728,3.9816568,3
18829447637006,-1.6749759,8.973084,4.0007997,3
18829450016277,-1.6654046,8.973084,4.005585,3
18829452395496,-1.5984055,8.977871,4.024728,3
18829454774767,-1.550549,8.977871,4.0295134,3
18829457153986,-1.5122639,8.968299,4.0390844,3
18829459533256,-1.4404793,8.963513,4.063013,3
18829461912475,-1.3639089,8.953942,4.082155,3
18829464291694,-1.2969099,8.930014,4.1347976,3
18829466670965,-1.2299109,8.925228,4.1635113,3
18829469050184,-1.1916257,8.920443,4.173083,3
18829471429454,-1.134198,8.920443,4.1922255,3
18829473808673,-1.1006985,8.891729,4.2017965,3
18829476187944,-1.0815558,8.886943,4.2257247,3
18829478567163,-1.0624132,8.882157,4.2161536,3
18829480946381,-1.0480564,8.886943,4.2017965,3
18829483325652,-1.0480564,8.882157,4.211368,3
18829485704871,-1.0289137,8.882157,4.211368,3
18829488084142,-1.0336994,8.863015,4.2161536,3
18829490463361,-1.0480564,8.867801,4.2161536,3
18829492842579,-1.0193424,8.848659,4.2161536,3
18829495221850,-1.0576276,8.82473,4.2017965,3
18829497601069,-1.0767702,8.796016,4.168297,3
18829499980340,-1.1006985,8.796016,4.168297,3
18829502359559,-1.1102697,8.805588,4.173083,3
18829504738829,-1.1724831,8.819944,4.139583,3
18829507118048,-1.1724831,8.800801,4.1108694,3
18829509497267,-1.2155539,8.800801,4.0869412,3
18829511876538,-1.2346965,8.800801,4.0677986,3
18829514255756,-1.2490535,8.805588,4.048656,3
18829516635027,-1.2490535,8.800801,4.0390844,3
18829519014246,-1.2490535,8.819944,4.0295134,3
18829521393465,-1.2394822,8.82473,4.0295134,3
18829523772736,-1.2346965,8.815159,4.0151563,3
18829526151954,-1.2490535,8.810373,4.034299,3
18829528531225,-1.2490535,8.848659,4.0438704,3
18829530910392,-1.2394822,8.886943,4.048656,3
18829533289663,-1.253839,8.9013,4.0534415,3
18829535668934,-1.268196,8.896515,4.072584,3
18829538048152,-1.282553,8.930014,4.0869412,3
18829540427423,-1.268196,8.939586,4.0677986,3
18829542806538,-1.2729816,8.939586,4.0773697,3
18829545185913,-1.2634103,8.953942,4.1108694,3
18829547565131,-1.2586247,8.944371,4.1108694,3
18829549944350,-1.2442678,8.963513,4.115655,3
18829552323621,-1.2394822,8.958728,4.130012,3
18829554702840,-1.2011969,8.9013,4.130012,3
18829557082059,-1.1676974,8.9108715,4.139583,3
18829559461329,-1.1389836,8.896515,4.1587257,3
18829561840548,-1.1102697,8.863015,4.1778684,3
18829564219819,-1.0671989,8.85823,4.1922255,3
18829566599038,-1.0336994,8.839087,4.1874394,3
18829568978309,-1.0049855,8.853444,4.1778684,3
18829571357527,-0.9810573,8.872586,4.168297,3
18829573736746,-0.94755775,8.877372,4.15394,3
18829576116017,-0.94755775,8.872586,4.1443686,3
18829578495184,-0.94755775,8.882157,4.173083,3
18829580874506,-0.9523434,8.877372,4.197011,3
18829583253725,-0.9284152,8.872586,4.211368,3
18829585632996,-0.94277215,8.906086,4.206582,3
18829588012215,-0.9523434,8.930014,4.197011,3
18829590391434,-0.95712906,8.944371,4.182654,3
18829592770704,-0.971486,8.920443,4.1922255,3
18829595149923,-0.9619147,8.906086,4.1778684,3
18829597529194,-0.9810573,8.9108715,4.182654,3
18829599908413,-1.0049855,8.896515,4.168297,3
18829602287631,-1.0097711,8.925228,4.139583,3
18829604666902,-1.0336994,8.9108715,4.1491547,3
18829607046121,-1.0576276,8.877372,4.15394,3
18829609425392,-1.0576276,8.891729,4.139583,3
18829611804611,-1.0959128,8.915657,4.130012,3
18829614183829,-1.0911272,8.915657,4.1347976,3
18829616563100,-1.1102697,8.9108715,4.130012,3
18829618942319,-1.1102697,8.925228,4.1443686,3
18829621321590,-1.1102697,8.925228,4.15394,3
18829623700809,-1.0671989,8.930014,4.1587257,3
18829626080079,-1.0097711,8.891729,4.1587257,3
18829628459298,-0.9619147,8.925228,4.168297,3
18829630838517,-0.9092726,8.930014,4.1874394,3
18829633217788,-0.8566305,8.949157,4.2161536,3
18829635597006,-0.81834537,8.958728,4.220939,3
18829637976225,-0.8039884,8.968299,4.2257247,3
18829640355496,-0.7609176,8.930014,4.197011,3
18829642734715,-0.71306115,8.930014,4.2017965,3
18829645113986,-0.6939186,8.9348,4.197011,3
18829647493204,-0.6987042,8.920443,4.1922255,3
18829649872475,-0.74177504,8.9348,4.197011,3
18829652251694,-0.79441714,8.920443,4.1778684,3
18829654630913,-0.8805587,8.906086,4.1778684,3
18829657010184,-0.9619147,8.867801,4.173083,3
18829659389402,-1.0576276,8.882157,4.168297,3
18829661768673,-1.1389836,8.886943,4.1491547,3
18829664147892,-1.2203395,8.848659,4.1491547,3
18829666527111,-1.3064811,8.85823,4.139583,3
18829668906381,-1.3926228,8.867801,4.1491547,3
18829671285600,-1.4739788,8.839087,4.139583,3
18829673664871,-1.5314065,8.85823,4.1443686,3
18829676044090,-1.564906,8.853444,4.1443686,3
18829678423309,-1.5457634,8.843872,4.168297,3
18829680802579,-1.5457634,8.843872,4.168297,3
18829683181798,-1.5026926,8.839087,4.1874394,3
18829685561069,-1.4261223,8.863015,4.1874394,3
18829687940288,-1.3447664,8.886943,4.2017965,3
18829690319559,-1.268196,8.886943,4.2161536,3
18829692698777,-1.1676974,8.85823,4.2161536,3
18829695077996,-1.0432707,8.891729,4.2352962,3
18829697457267,-0.9523434,8.9108715,4.2257247,3
18829699836486,-0.8470592,8.896515,4.211368,3
18829702215756,-0.76570326,8.915657,4.1922255,3
18829704594975,-0.7178468,8.920443,4.182654,3
18829706974194,-0.6939186,8.9348,4.1778684,3
18829709353465,-0.6556334,8.925228,4.1635113,3
18829711732684,-0.63170516,8.939586,4.1347976,3
18829714111954,-0.6364908,8.953942,4.115655,3
18829716491173,-0.67477596,8.944371,4.0773697,3
18829718870392,-0.76570326,8.939586,4.0534415,3
18829721249663,-0.8470592,8.939586,4.0390844,3
18829723628881,-0.9284152,8.930014,4.0295134,3
18829726008152,-1.0193424,8.9013,4.0295134,3
18829728387371,-1.1102697,8.906086,4.024728,3
18829730766590,-1.1629118,8.906086,4.0151563,3
18829733145861,-1.2059826,8.886943,4.005585,3
18829735525079,-1.2729816,8.877372,4.0103707,3
18829737904350,-1.3016955,8.853444,4.0151563,3
18829740283569,-1.3208381,8.848659,4.048656,3
18829742662788,-1.3495519,8.85823,4.0773697,3
18829745042059,-1.3447664,8.853444,4.115655,3
18829747421277,-1.3016955,8.863015,4.139583,3
18829749800548,-1.2346965,8.872586,4.1443686,3
18829752179767,-1.1820544,8.891729,4.168297,3
18829754558986,-1.105484,8.886943,4.1922255,3
18829756938256,-1.0193424,8.882157,4.211368,3
18829759317475,-0.95712906,8.882157,4.2352962,3
18829761696746,-0.89491564,8.906086,4.2448673,3
18829764075965,-0.8470592,8.925228,4.2592244,3
18829766455184,-0.8039884,8.920443,4.2687955,3
18829768834454,-0.7609176,8.915657,4.26401,3
18829771213673,-0.7896315,8.906086,4.249653,3
18829773592944,-0.8135597,8.9108715,4.2448673,3
18829775972163,-0.8327023,8.915657,4.23051,3
18829778351381,-0.8757731,8.915657,4.2448673,3
18829780730652,-0.9284152,8.930014,4.2161536,3
18829783109871,-0.9954142,8.925228,4.2161536,3
18829785489142,-1.0432707,8.920443,4.182654,3
18829787868361,-1.1150553,8.9108715,4.1874394,3
18829790247527,-1.1772687,8.906086,4.1874394,3
18829792626850,-1.2346965,8.906086,4.173083,3
18829795006069,-1.2586247,8.9108715,4.1587257,3
18829797385340,-1.2921243,8.920443,4.1778684,3
18829799764559,-1.3064811,8.930014,4.1491547,3
18829802143777,-1.2921243,8.915657,4.1443686,3
18829804523048,-1.2777673,8.9013,4.139583,3
18829806902267,-1.2155539,8.886943,4.0965123,3
18829809281538,-1.18684,8.896515,4.072584,3
18829811660756,-1.1102697,8.9013,4.0390844,3
18829814039975,-1.0671989,8.886943,4.0103707,3
18829816419246,-1.0241281,8.872586,4.024728,3
18829818798465,-0.98584294,8.891729,4.0534415,3
18829821177736,-0.9619147,8.877372,4.063013,3
18829823556954,-0.91405827,8.882157,4.058227,3
18829825936173,-0.8997013,8.886943,4.0677986,3
18829828315444,-0.9284152,8.877372,4.106084,3
18829830694663,-0.9379865,8.906086,4.1204405,3
18829833073934,-0.9667004,8.915657,4.1204405,3
18829835453152,-0.9954142,8.925228,4.1491547,3
18829837832371,-1.0001999,8.891729,4.168297,3
18829840211642,-1.0097711,8.915657,4.1778684,3
18829842590861,-1.0336994,8.886943,4.197011,3
18829844970131,-1.0432707,8.9108715,4.206582,3
18829847349350,-1.0624132,8.920443,4.1922255,3
18829849728569,-1.0624132,8.9108715,4.1778684,3
18829852107840,-1.0911272,8.920443,4.197011,3
18829854487059,-1.1006985,8.9013,4.2161536,3
18829856866329,-1.0911272,8.915657,4.211368,3
18829859245548,-1.0959128,8.906086,4.1922255,3
18829861624767,-1.0576276,8.906086,4.1778684,3
18829864004038,-1.0145568,8.915657,4.1778684,3
18829866383256,-0.98584294,8.930014,4.173083,3
18829868762527,-0.9523434,8.9348,4.173083,3
18829871141746,-0.94277215,8.944371,4.1778684,3
18829873520965,-0.9236295,8.949157,4.1587257,3
18829875900236,-0.9092726,8.939586,4.1347976,3
18829878279454,-0.9523434,8.963513,4.130012,3
18829880658725,-0.9810573,8.944371,4.115655,3
18829883037944,-0.9810573,8.944371,4.0965123,3
18829885417163,-1.0001999,8.939586,4.0965123,3
18829887796434,-1.0336994,8.949157,4.0677986,3
18829890175600,-1.105484,8.906086,4.0534415,3
18829892554923,-1.1246266,8.906086,4.034299,3
18829894934090,-1.1772687,8.9108715,4.024728,3
18829897313361,-1.2394822,8.9013,4.019942,3
18829899692631,-1.2586247,8.9108715,4.0295134,3
18829902071850,-1.3016955,8.906086,4.034299,3
18829904451121,-1.3304094,8.920443,4.034299,3
18829906830340,-1.3399807,8.930014,4.048656,3
18829909209559,-1.3399807,8.930014,4.0677986,3
18829911588829,-1.3304094,8.9348,4.0965123,3
18829913968048,-1.3160524,8.9108715,4.1108694,3
18829916347319,-1.2729816,8.920443,4.115655,3
18829918726538,-1.2155539,8.930014,4.125226,3
18829921105756,-1.1820544,8.915657,4.115655,3
18829923485027,-1.1102697,8.9348,4.130012,3
18829925864246,-1.0624132,8.939586,4.139583,3
18829928243517,-0.9954142,8.953942,4.1491547,3
18829930622736,-0.9236295,8.944371,4.139583,3
18829933001954,-0.8853444,8.949157,4.1635113,3
18829935381225,-0.8327023,8.9348,4.173083,3
18829937760444,-0.7800602,8.944371,4.1778684,3
18829940139715,-0.7322037,8.920443,4.173083,3
18829942518934,-0.7322037,8.939586,4.1778684,3
18829944898152,-0.7369894,8.920443,4.1874394,3
18829947277371,-0.74177504,8.872586,4.1922255,3
18829949656642,-0.76570326,8.896515,4.2017965,3
18829952035913,-0.79441714,8.9013,4.197011,3
18829954415131,-0.80877405,8.896515,4.197011,3
18829956794350,-0.86141616,8.906086,4.1874394,3
18829959173621,-0.90448695,8.9348,4.211368,3
18829961552840,-0.94755775,8.949157,4.2161536,3
18829963932111,-0.971486,8.939586,4.220939,3
18829966311329,-1.0193424,8.9348,4.2352962,3
18829968690548,-1.0432707,8.944371,4.206582,3
18829971069819,-1.0432707,8.939586,4.1874394,3
18829973449038,-1.0336994,8.968299,4.2017965,3
18829975828256,-1.0336994,8.973084,4.206582,3
18829978207527,-1.038485,8.949157,4.2017965,3
18829980586746,-1.0241281,8.944371,4.2017965,3
18829982966017,-1.038485,8.9348,4.1874394,3
18829985345236,-1.0289137,8.949157,4.1874394,3
18829987724454,-1.0097711,8.9348,4.1778684,3
18829990103725,-1.0001999,8.925228,4.1443686,3
18829992482944,-0.9810573,8.891729,4.1347976,3
18829994862215,-0.9523434,8.877372,4.139583,3
18829997241434,-0.9523434,8.891729,4.1491547,3
18829999620652,-0.94277215,8.9013,4.1443686,3
18830001999923,-0.9284152,8.9013,4.1443686,3
18830004379090,-0.8997013,8.9013,4.1491547,3
18830006758413,-0.8470592,8.9108715,4.139583,3
18830009137631,-0.83748794,8.920443,4.130012,3
18830011516850,-0.8422736,8.9348,4.125226,3
18830013896121,-0.83748794,8.953942,4.1443686,3
18830016275340,-0.7896315,8.944371,4.139583,3
18830018654611,-0.7704889,8.9108715,4.1347976,3
18830021033829,-0.7322037,8.915657,4.1491547,3
18830023413048,-0.6987042,8.930014,4.139583,3
18830025792319,-0.66999036,8.906086,4.1443686,3
18830028171538,-0.6556334,8.9013,4.1778684,3
18830030550756,-0.60777694,8.9108715,4.1922255,3
18830032930027,-0.57427746,8.9108715,4.197011,3
18830035309246,-0.5455636,8.882157,4.182654,3
18830037688517,-0.55513483,8.9013,4.1635113,3
18830040067736,-0.53599226,8.9108715,4.1587257,3
18830042446954,-0.5407779,8.877372,4.15394,3
18830044826225,-0.5312066,8.891729,4.173083,3
18830047205444,-0.53599226,8.896515,4.182654,3
18830049584715,-0.5694918,8.882157,4.197011,3
18830051963934,-0.5982057,8.896515,4.2017965,3
18830054343152,-0.64606214,8.896515,4.1778684,3
18830056722423,-0.66041905,8.9013,4.1491547,3
18830059101642,-0.6939186,8.896515,4.15394,3
18830061480913,-0.7082755,8.9013,4.1587257,3
18830063860131,-0.7369894,8.9108715,4.15394,3
18830066239350,-0.80877405,8.930014,4.1443686,3
18830068618621,-0.8470592,8.944371,4.125226,3
18830070997840,-0.8853444,8.9348,4.125226,3
18830073377111,-0.8805587,8.9348,4.130012,3
18830075756329,-0.91405827,8.9013,4.130012,3
18830078135548,-0.95712906,8.886943,4.1347976,3
18830080514819,-0.9954142,8.9013,4.1347976,3
18830082894038,-1.0001999,8.882157,4.168297,3
18830085273309,-1.0097711,8.896515,4.1778684,3
18830087652527,-1.0145568,8.867801,4.1874394,3
18830090031746,-1.0193424,8.872586,4.206582,3
18830092411017,-1.038485,8.853444,4.2017965,3
18830094790236,-1.0241281,8.877372,4.197011,3
18830097169506,-1.0336994,8.85823,4.211368,3
18830099548621,-1.0432707,8.853444,4.220939,3
18830101927944,-1.0289137,8.848659,4.211368,3
18830104307215,-1.0336994,8.82473,4.2352962,3
18830106686434,-1.0432707,8.829515,4.2352962,3
18830109065704,-1.0241281,8.82473,4.211368,3
18830111444923,-1.038485,8.853444,4.2161536,3
18830113824142,-1.038485,8.85823,4.2161536,3
18830116203413,-1.0624132,8.853444,4.211368,3
18830118582631,-1.0863415,8.843872,4.2017965,3
18830120961850,-1.1246266,8.843872,4.211368,3
18830123341121,-1.1437693,8.863015,4.2161536,3
18830125720340,-1.2059826,8.872586,4.220939,3
18830128099611,-1.2251252,8.877372,4.2017965,3
18830130478829,-1.2777673,8.853444,4.1874394,3
18830132858048,-1.3256238,8.843872,4.1874394,3
18830135237319,-1.3591232,8.867801,4.1778684,3
18830137616538,-1.3686945,8.872586,4.1587257,3
18830139995756,-1.4117653,8.882157,4.173083,3
18830142375027,-1.4213367,8.863015,4.168297,3
18830144754246,-1.416551,8.896515,4.1635113,3
18830147133517,-1.4117653,8.9013,4.1443686,3
18830149512736,-1.3591232,8.891729,4.1587257,3
18830151891954,-1.3495519,8.85823,4.1491547,3
18830154271225,-1.3064811,8.853444,4.115655,3
18830156650444,-1.2442678,8.85823,4.125226,3
18830159029715,-1.1581261,8.85823,4.130012,3
18830161408934,-1.1006985,8.85823,4.106084,3
18830163788152,-1.0432707,8.853444,4.1108694,3
18830166167423,-0.9619147,8.839087,4.125226,3
18830168546642,-0.90448695,8.867801,4.1204405,3
18830170925861,-0.8709874,8.839087,4.1204405,3
18830173305131,-0.8279166,8.853444,4.082155,3
18830175684350,-0.7800602,8.829515,4.063013,3
18830178063621,-0.75613195,8.819944,4.0390844,3
18830180442840,-0.7369894,8.839087,4.072584,3
18830182822059,-0.74177504,8.867801,4.082155,3
18830185201329,-0.74177504,8.872586,4.072584,3
18830187580548,-0.75613195,8.9013,4.034299,3
18830189959819,-0.80877405,8.906086,4.048656,3
18830192339038,-0.8422736,8.9013,4.063013,3
18830194718256,-0.8997013,8.906086,4.0869412,3
18830197097527,-0.98584294,8.920443,4.091727,3
18830199476746,-1.0432707,8.891729,4.106084,3
18830201856017,-1.0576276,8.882157,4.125226,3
18830204235236,-1.1102697,8.877372,4.1204405,3
18830206614454,-1.1246266,8.882157,4.0965123,3
18830208993725,-1.119841,8.872586,4.1108694,3
18830211372944,-1.134198,8.85823,4.125226,3
18830213752163,-1.1246266,8.85823,4.1635113,3
18830216131434,-1.119841,8.834301,4.1922255,3
18830218510652,-1.105484,8.819944,4.1874394,3
18830220889923,-1.0767702,8.829515,4.1922255,3
18830223269142,-1.038485,8.867801,4.206582,3
18830225648361,-1.0145568,8.867801,4.1874394,3
18830228027631,-0.98584294,8.882157,4.182654,3
18830230406850,-0.971486,8.906086,4.2161536,3
18830232786121,-0.9619147,8.882157,4.197011,3
18830235165340,-0.94755775,8.891729,4.1922255,3
18830237544559,-0.91405827,8.915657,4.206582,3
18830239923829,-0.8566305,8.9013,4.220939,3
18830242302996,-0.7800602,8.886943,4.220939,3
18830244682319,-0.7369894,8.906086,4.254439,3
18830247061538,-0.6795616,8.896515,4.249653,3
18830249440756,-0.66999036,8.930014,4.2352962,3
18830251820027,-0.6556334,8.949157,4.2161536,3
18830254199246,-0.70348984,8.958728,4.220939,3
18830256578465,-0.7465607,8.944371,4.206582,3
18830258957736,-0.80877405,8.949157,4.2161536,3
18830261336954,-0.8805587,8.973084,4.211368,3
18830263716225,-0.9379865,8.953942,4.2017965,3
18830266095444,-0.98584294,8.930014,4.1874394,3
18830268474663,-1.0289137,8.973084,4.1874394,3
18830270853934,-1.052842,8.987442,4.125226,3
18830273233152,-1.0719845,8.973084,4.101298,3
18830275612371,-1.0863415,8.953942,4.1108694,3
18830277991642,-1.119841,8.987442,4.101298,3
18830280370861,-1.1246266,8.977871,4.115655,3
18830282750131,-1.1437693,8.992228,4.115655,3
18830285129350,-1.1485549,8.9826565,4.106084,3
18830287508569,-1.1102697,8.997013,4.1108694,3
18830289887840,-1.1006985,8.968299,4.130012,3
18830292267059,-1.0671989,8.963513,4.139583,3
18830294646277,-1.0671989,8.977871,4.130012,3
18830297025548,-1.0289137,8.973084,4.125226,3
18830299404767,-0.9954142,8.973084,4.15394,3
18830301784038,-0.9379865,8.963513,4.168297,3
18830304163256,-0.89491564,8.949157,4.168297,3
18830306542475,-0.83748794,8.953942,4.1922255,3
18830308921746,-0.7800602,8.939586,4.211368,3
18830311300965,-0.75613195,8.9348,4.2161536,3
18830313680184,-0.7369894,8.915657,4.220939,3
18830316059454,-0.7465607,8.906086,4.249653,3
18830318438673,-0.75613195,8.891729,4.26401,3
18830320817944,-0.7896315,8.882157,4.2592244,3
18830323197163,-0.8566305,8.882157,4.240082,3
18830325576381,-0.91405827,8.843872,4.2448673,3
18830327955652,-0.95712906,8.848659,4.23051,3
18830330334871,-1.0049855,8.863015,4.197011,3
18830332714142,-1.0815558,8.872586,4.2017965,3
18830335093361,-1.1150553,8.848659,4.1778684,3
18830337472579,-1.1629118,8.839087,4.182654,3
18830339851850,-1.2011969,8.82473,4.168297,3
18830342231069,-1.2203395,8.839087,4.168297,3
18830344610340,-1.2299109,8.82473,4.168297,3
18830346989559,-1.2299109,8.815159,4.1635113,3
18830349368777,-1.2251252,8.829515,4.168297,3
18830351748048,-1.18684,8.810373,4.182654,3
18830354127267,-1.1389836,8.815159,4.182654,3
18830356506486,-1.1150553,8.805588,4.1778684,3
18830358885704,-1.0863415,8.82473,4.1778684,3
18830361264975,-1.0336994,8.819944,4.182654,3
18830363644246,-0.9954142,8.810373,4.1635113,3
18830366023465,-0.9906286,8.805588,4.1587257,3
18830368402684,-0.9667004,8.819944,4.1635113,3
18830370781954,-0.9379865,8.819944,4.1778684,3
18830373161173,-0.94755775,8.839087,4.1874394,3
18830375540392,-0.971486,8.848659,4.1874394,3
18830377919663,-1.0001999,8.853444,4.182654,3
18830380298881,-1.038485,8.867801,4.168297,3
18830382678152,-1.0767702,8.867801,4.1587257,3
18830385057371,-1.1102697,8.877372,4.139583,3
18830387436590,-1.1820544,8.882157,4.1204405,3
18830389815861,-1.2442678,8.891729,4.115655,3
18830392195079,-1.2873386,8.886943,4.091727,3
18830394574298,-1.3208381,8.896515,4.072584,3
18830396953569,-1.3208381,8.9013,4.0773697,3
18830399332736,-1.3399807,8.886943,4.058227,3
18830401712059,-1.3495519,8.882157,4.0534415,3
18830404091277,-1.3399807,8.891729,4.0773697,3
18830406470496,-1.2921243,8.9013,4.082155,3
18830408849767,-1.253839,8.886943,4.072584,3
18830411228986,-1.1916257,8.9013,4.0773697,3
18830413608204,-1.1246266,8.863015,4.0869412,3
18830415987475,-1.0432707,8.867801,4.106084,3
18830418366694,-0.95712906,8.896515,4.101298,3
18830420745965,-0.8853444,8.906086,4.091727,3
18830423125184,-0.8327023,8.886943,4.106084,3
18830425504350,-0.79441714,8.925228,4.1108694,3
18830427883673,-0.7896315,8.925228,4.115655,3
18830430262892,-0.7848458,8.9108715,4.115655,3
18830432642163,-0.7800602,8.9108715,4.125226,3
18830435021381,-0.7704889,8.915657,4.1108694,3
18830437400600,-0.79920274,8.9108715,4.130012,3
18830439779871,-0.8279166,8.906086,4.130012,3
18830442159090,-0.89491564,8.915657,4.139583,3
18830444538309,-0.94755775,8.925228,4.125226,3
18830446917579,-1.0145568,8.930014,4.1347976,3
18830449296746,-1.0432707,8.925228,4.1491547,3
18830451676069,-1.0911272,8.915657,4.130012,3
18830454055288,-1.1533405,8.930014,4.125226,3
18830456434506,-1.2107682,8.958728,4.1443686,3
18830458813777,-1.2346965,8.944371,4.15394,3
18830461192996,-1.2634103,8.953942,4.139583,3
18830463572215,-1.2299109,8.968299,4.1491547,3
18830465951486,-1.1916257,8.953942,4.130012,3
18830468330704,-1.1533405,8.958728,4.15394,3
18830470709923,-1.1150553,8.958728,4.1587257,3
18830473089194,-1.0815558,8.968299,4.168297,3
18830475468413,-1.0145568,8.953942,4.2017965,3
18830477847684,-0.9523434,8.953942,4.220939,3
18830480226902,-0.89491564,8.944371,4.211368,3
18830482606121,-0.86141616,8.953942,4.206582,3
18830484985392,-0.8566305,8.963513,4.197011,3
18830487364611,-0.86141616,8.958728,4.206582,3
18830489743881,-0.8709874,8.949157,4.1874394,3
18830492123100,-0.8757731,8.949157,4.206582,3
18830494502319,-0.90448695,8.944371,4.2257247,3
18830496881590,-0.93320084,8.939586,4.206582,3
18830499260809,-0.98584294,8.953942,4.197011,3
18830501640027,-1.0289137,8.939586,4.1922255,3
18830504019298,-1.0863415,8.925228,4.182654,3
18830506398517,-1.1102697,8.944371,4.173083,3
18830508777788,-1.1485549,8.930014,4.173083,3
18830511157006,-1.1964114,8.915657,4.1778684,3
18830513536225,-1.2251252,8.9108715,4.1443686,3
18830515915496,-1.2346965,8.915657,4.1491547,3
18830518294715,-1.2299109,8.930014,4.125226,3
18830520673934,-1.2011969,8.920443,4.106084,3
18830523053204,-1.1820544,8.906086,4.101298,3
18830525432423,-1.1389836,8.877372,4.091727,3
18830527811694,-1.0863415,8.896515,4.072584,3
18830530190913,-1.0576276,8.886943,4.0869412,3
18830532570131,-1.0145568,8.891729,4.091727,3
18830534949402,-0.9906286,8.9013,4.0965123,3
18830537328621,-0.9379865,8.882157,4.0965123,3
18830539707840,-0.89491564,8.882157,4.1108694,3
18830542087111,-0.8997013,8.9108715,4.130012,3
18830544466329,-0.8805587,8.9108715,4.1443686,3
18830546845548,-0.89013004,8.906086,4.130012,3
18830549224819,-0.93320084,8.915657,4.082155,3
18830551604038,-0.9954142,8.9348,4.0677986,3
18830553983309,-1.052842,8.9013,4.063013,3
18830556362527,-1.1294123,8.896515,4.091727,3
18830558741746,-1.2107682,8.9013,4.106084,3
18830561121017,-1.253839,8.882157,4.1443686,3
18830563500236,-1.2729816,8.886943,4.130012,3
18830565879454,-1.2921243,8.882157,4.115655,3
18830568258725,-1.3064811,8.896515,4.101298,3
18830570637944,-1.3208381,8.882157,4.082155,3
18830573017215,-1.3208381,8.877372,4.0965123,3
18830575396434,-1.3160524,8.9013,4.1108694,3
18830577775652,-1.2921243,8.882157,4.1443686,3
18830580154923,-1.282553,8.872586,4.168297,3
18830582534142,-1.2299109,8.886943,4.1635113,3
18830584913361,-1.1724831,8.9013,4.182654,3
18830587292631,-1.134198,8.891729,4.1635113,3
18830589671850,-1.0719845,8.886943,4.1491547,3
18830592051121,-1.0145568,8.896515,4.168297,3
18830594430340,-0.94755775,8.9108715,4.1874394,3
18830596809559,-0.9092726,8.896515,4.206582,3
18830599188829,-0.8805587,8.891729,4.182654,3
18830601568048,-0.8470592,8.877372,4.1778684,3
18830603947267,-0.8470592,8.891729,4.1635113,3
18830606326538,-0.8327023,8.877372,4.1635113,3
18830608705756,-0.8853444,8.877372,4.1491547,3
18830611085027,-0.91884387,8.877372,4.1587257,3
18830613464246,-0.971486,8.877372,4.1635113,3
18830615843465,-1.0145568,8.886943,4.1587257,3
18830618222736,-1.0719845,8.853444,4.15394,3
18830620601954,-1.1294123,8.896515,4.115655,3
18830622981173,-1.1533405,8.891729,4.1204405,3
18830625360444,-1.1676974,8.9013,4.1204405,3
18830627739663,-1.18684,8.9013,4.115655,3
18830630118934,-1.2346965,8.882157,4.0965123,3
18830632498152,-1.2346965,8.882157,4.106084,3
18830634877371,-1.2203395,8.906086,4.0965123,3
18830637256642,-1.2059826,8.9108715,4.091727,3
18830639635861,-1.1820544,8.906086,4.0869412,3
18830642015079,-1.1581261,8.906086,4.101298,3
18830644394350,-1.119841,8.915657,4.115655,3
18830646773569,-1.119841,8.9108715,4.1347976,3
18830649152788,-1.0959128,8.9108715,4.1347976,3
18830651532059,-1.0576276,8.906086,4.1443686,3
18830653911277,-1.0432707,8.891729,4.1443686,3
18830656290548,-1.0241281,8.896515,4.1347976,3
18830658669767,-1.0145568,8.9013,4.15394,3
18830661048986,-1.0001999,8.896515,4.125226,3
18830663428256,-1.0432707,8.896515,4.139583,3
18830665807475,-1.052842,8.882157,4.1491547,3
18830668186694,-1.0767702,8.9013,4.15394,3
18830670565965,-1.1102697,8.915657,4.1491547,3
18830672945184,-1.1246266,8.9108715,4.15394,3
18830675324402,-1.1533405,8.9108715,4.139583,3
18830677703673,-1.1964114,8.9013,4.130012,3
18830680082788,-1.2107682,8.886943,4.0965123,3
18830682462163,-1.2011969,8.891729,4.1204405,3
18830684841381,-1.2059826,8.896515,4.1347976,3
18830687220600,-1.2107682,8.891729,4.139583,3
18830689599871,-1.2394822,8.896515,4.1347976,3
18830691979090,-1.2059826,8.9108715,4.139583,3
18830694358309,-1.18684,8.906086,4.139583,3
18830696737579,-1.1437693,8.915657,4.1443686,3
18830699116798,-1.105484,8.886943,4.1443686,3
18830701496069,-1.0911272,8.877372,4.15394,3
18830703875288,-1.0480564,8.877372,4.173083,3
18830706254506,-1.0097711,8.886943,4.1587257,3
18830708633777,-0.9619147,8.906086,4.1635113,3
18830711012996,-0.93320084,8.891729,4.182654,3
18830713392215,-0.91884387,8.877372,4.173083,3
18830715771486,-0.90448695,8.877372,4.182654,3
18830718150704,-0.91405827,8.891729,4.1874394,3
18830720529923,-0.91405827,8.886943,4.1778684,3
18830722909194,-0.9092726,8.85823,4.15394,3
18830725288361,-0.94277215,8.877372,4.1635113,3
18830727667631,-0.9619147,8.877372,4.168297,3
18830730046902,-0.9906286,8.872586,4.173083,3
18830732426121,-1.0432707,8.853444,4.168297,3
18830734805392,-1.0576276,8.882157,4.1587257,3
18830737184611,-1.0719845,8.915657,4.139583,3
18830739563829,-1.0959128,8.906086,4.130012,3
18830741943100,-1.1533405,8.906086,4.1443686,3
18830744322319,-1.1581261,8.9013,4.130012,3
18830746701538,-1.1724831,8.877372,4.1347976,3
18830749080809,-1.1820544,8.9013,4.1347976,3
18830751460027,-1.1820544,8.9013,4.115655,3
18830753839298,-1.1724831,8.9013,4.1108694,3
18830756218517,-1.1629118,8.9013,4.1108694,3
18830758597736,-1.1437693,8.886943,4.1204405,3
18830760977006,-1.1389836,8.877372,4.1108694,3
18830763356225,-1.1485549,8.896515,4.1108694,3
18830765735444,-1.1294123,8.9013,4.1108694,3
18830768114715,-1.1150553,8.896515,4.1204405,3
18830770493934,-1.119841,8.9013,4.106084,3
18830772873204,-1.1246266,8.882157,4.1108694,3
18830775252423,-1.0815558,8.877372,4.1204405,3
18830777631642,-1.0959128,8.877372,4.125226,3
18830780010913,-1.105484,8.886943,4.1108694,3
18830782390131,-1.1246266,8.906086,4.1108694,3
18830784769350,-1.119841,8.9108715,4.106084,3
18830787148621,-1.1772687,8.896515,4.0965123,3
18830789527840,-1.18684,8.9013,4.130012,3
18830791907111,-1.1820544,8.886943,4.115655,3
18830794286329,-1.1964114,8.9108715,4.115655,3
18830796665548,-1.2155539,8.930014,4.1108694,3
18830799044767,-1.2299109,8.958728,4.125226,3
18830801424038,-1.2346965,8.9348,4.1347976,3
18830803803256,-1.2155539,8.9108715,4.130012,3
18830806182527,-1.2346965,8.915657,4.125226,3
18830808561746,-1.2155539,8.925228,4.1443686,3
18830810940965,-1.2059826,8.925228,4.1204405,3
18830813320236,-1.2203395,8.953942,4.1204405,3
18830815699454,-1.1964114,8.944371,4.1204405,3
18830818078673,-1.1724831,8.925228,4.15394,3
18830820457944,-1.1485549,8.915657,4.1443686,3
18830822837163,-1.1629118,8.9108715,4.1347976,3
18830825216434,-1.1629118,8.906086,4.1587257,3
18830827595652,-1.1533405,8.9348,4.168297,3
18830829974871,-1.1724831,8.939586,4.1635113,3
18830832354142,-1.1820544,8.930014,4.1491547,3
18830834733361,-1.1724831,8.920443,4.1491547,3
18830837112579,-1.18684,8.906086,4.130012,3
18830839491798,-1.18684,8.9013,4.1443686,3
18830841871069,-1.1820544,8.9108715,4.1443686,3
18830844250288,-1.2011969,8.872586,4.115655,3
18830846629559,-1.2059826,8.882157,4.106084,3
18830849008777,-1.2299109,8.882157,4.125226,3
18830851388048,-1.2442678,8.891729,4.130012,3
18830853767267,-1.2394822,8.886943,4.15394,3
18830856146486,-1.2346965,8.9013,4.15394,3
18830858525756,-1.2203395,8.886943,4.139583,3
18830860904975,-1.2346965,8.853444,4.125226,3
18830863284194,-1.2059826,8.863015,4.1347976,3
18830865663465,-1.18684,8.872586,4.1204405,3
18830868042684,-1.1581261,8.872586,4.115655,3
18830870421902,-1.134198,8.877372,4.106084,3
18830872801173,-1.119841,8.853444,4.1347976,3
18830875180392,-1.1102697,8.853444,4.15394,3
18830877559611,-1.0863415,8.863015,4.1347976,3
18830879938881,-1.0815558,8.863015,4.115655,3
18830882318100,-1.0767702,8.872586,4.101298,3
18830884697371,-1.0863415,8.882157,4.0965123,3
18830887076590,-1.0815558,8.877372,4.0773697,3
18830889455809,-1.105484,8.877372,4.091727,3
18830891835079,-1.1150553,8.85823,4.091727,3
18830894214298,-1.134198,8.843872,4.0773697,3
18830896593517,-1.1820544,8.85823,4.082155,3
18830898972788,-1.2442678,8.863015,4.072584,3
18830901352006,-1.268196,8.867801,4.063013,3
18830903731277,-1.3256238,8.872586,4.058227,3
18830906110496,-1.3782659,8.891729,4.058227,3
18830908489715,-1.416551,8.896515,4.0438704,3
18830910868986,-1.4213367,8.896515,4.0534415,3
18830913248204,-1.430908,8.896515,4.048656,3
18830915627423,-1.430908,8.882157,4.0773697,3
18830918006694,-1.4404793,8.896515,4.072584,3
18830920385913,-1.4596218,8.886943,4.063013,3
18830922765131,-1.4452649,8.872586,4.091727,3
18830925144402,-1.4213367,8.882157,4.091727,3
18830927523621,-1.3782659,8.891729,4.101298,3
18830929902840,-1.3160524,8.886943,4.106084,3
18830932282111,-1.268196,8.891729,4.106084,3
18830934661329,-1.2203395,8.877372,4.125226,3
18830937040548,-1.1820544,8.906086,4.130012,3
18830939419819,-1.134198,8.906086,4.1347976,3
18830941799038,-1.0815558,8.9108715,4.139583,3
18830944178309,-1.0289137,8.9108715,4.1587257,3
18830946557527,-1.0145568,8.906086,4.15394,3
18830948936746,-1.0049855,8.9108715,4.15394,3
18830951316017,-1.0193424,8.9013,4.1491547,3
18830953695236,-1.0624132,8.906086,4.1635113,3
18830956074454,-1.0671989,8.9108715,4.168297,3
18830958453725,-1.1246266,8.920443,4.15394,3
18830960832892,-1.1629118,8.920443,4.1491547,3
18830963212163,-1.2059826,8.9108715,4.15394,3
18830965591434,-1.2634103,8.915657,4.1347976,3
18830967970652,-1.3016955,8.925228,4.1347976,3
18830970349871,-1.3495519,8.9108715,4.0965123,3
18830972729142,-1.3926228,8.915657,4.106084,3
18830975108361,-1.4452649,8.930014,4.115655,3
18830977487631,-1.4787644,8.944371,4.106084,3
18830979866850,-1.4787644,8.949157,4.0965123,3
18830982246069,-1.4979069,8.944371,4.063013,3
18830984625340,-1.4739788,8.920443,4.082155,3
18830987004559,-1.4452649,8.920443,4.091727,3
18830989383777,-1.4356936,8.925228,4.0869412,3
18830991763048,-1.4213367,8.920443,4.063013,3
18830994142267,-1.3878372,8.906086,4.063013,3
18830996521486,-1.3447664,8.920443,4.0677986,3
18830998900756,-1.2921243,8.9348,4.091727,3
18831001279975,-1.2777673,8.930014,4.0965123,3
18831003659246,-1.2442678,8.906086,4.091727,3
18831006038465,-1.2011969,8.877372,4.0965123,3
18831008417684,-1.1820544,8.882157,4.106084,3
18831010796954,-1.1581261,8.877372,4.101298,3
18831013176173,-1.1437693,8.886943,4.101298,3
18831015555392,-1.1294123,8.9108715,4.1108694,3
18831017934663,-1.134198,8.920443,4.139583,3
18831020313881,-1.1389836,8.930014,4.1491547,3
18831022693100,-1.1533405,8.9348,4.139583,3
18831025072371,-1.1485549,8.9108715,4.1491547,3
18831027451590,-1.1629118,8.915657,4.1443686,3
18831029830809,-1.18684,8.9108715,4.139583,3
18831032210079,-1.18684,8.891729,4.15394,3
18831034589298,-1.2107682,8.9013,4.130012,3
18831036968517,-1.2251252,8.9108715,4.1108694,3
18831039347788,-1.2442678,8.891729,4.1443686,3
18831041727006,-1.2729816,8.891729,4.168297,3
18831044106225,-1.2586247,8.886943,4.168297,3
18831046485496,-1.253839,8.867801,4.1635113,3
18831048864715,-1.268196,8.848659,4.1635113,3
18831051243986,-1.2634103,8.85823,4.168297,3
18831053623204,-1.2586247,8.867801,4.1635113,3
18831056002423,-1.282553,8.853444,4.1874394,3
18831058381694,-1.268196,8.853444,4.182654,3
18831060760913,-1.2394822,8.872586,4.2017965,3
18831063140131,-1.2059826,8.863015,4.1874394,3
18831065519402,-1.2107682,8.872586,4.1778684,3
18831067898621,-1.1772687,8.867801,4.1635113,3
18831070277840,-1.1820544,8.853444,4.173083,3
18831072657111,-1.1820544,8.848659,4.173083,3
18831075036329,-1.1676974,8.863015,4.1587257,3
18831077415600,-1.1437693,8.834301,4.15394,3
18831079794819,-1.134198,8.853444,4.139583,3
18831082174038,-1.1246266,8.863015,4.139583,3
18831084553309,-1.1389836,8.877372,4.1347976,3
18831086932527,-1.1437693,8.906086,4.125226,3
18831089311746,-1.1676974,8.886943,4.1204405,3
18831091691017,-1.1916257,8.863015,4.115655,3
18831094070236,-1.2107682,8.843872,4.1108694,3
18831096449454,-1.2299109,8.872586,4.125226,3
18831098828725,-1.2586247,8.867801,4.106084,3
18831101207944,-1.268196,8.85823,4.1108694,3
18831103587163,-1.282553,8.877372,4.0965123,3
18831105966434,-1.282553,8.867801,4.0869412,3
18831108345652,-1.3160524,8.85823,4.082155,3
18831110724871,-1.3208381,8.853444,4.091727,3
18831113104142,-1.3399807,8.867801,4.072584,3
18831115483361,-1.3208381,8.839087,4.072584,3
18831117862631,-1.3016955,8.867801,4.0773697,3
18831120241850,-1.282553,8.882157,4.082155,3
18831122621069,-1.2586247,8.891729,4.0773697,3
18831125000340,-1.2155539,8.896515,4.058227,3
18831127379506,-1.1916257,8.891729,4.072584,3
18831129758777,-1.1629118,8.886943,4.072584,3
18831132138048,-1.1629118,8.891729,4.0677986,3
18831134517267,-1.1102697,8.906086,4.0869412,3
18831136896486,-1.0863415,8.896515,4.1108694,3
18831139275756,-1.1006985,8.906086,4.115655,3
18831141654975,-1.0863415,8.896515,4.130012,3
18831144034194,-1.1246266,8.886943,4.130012,3
18831146413465,-1.1246266,8.896515,4.130012,3
18831148792684,-1.1581261,8.891729,4.139583,3
18831151171902,-1.1916257,8.882157,4.1491547,3
18831153551173,-1.2107682,8.891729,4.1443686,3
18831155930392,-1.2394822,8.872586,4.1347976,3
18831158309663,-1.2490535,8.891729,4.125226,3
18831160688881,-1.282553,8.882157,4.1108694,3
18831163068100,-1.2969099,8.877372,4.106084,3
18831165447371,-1.3256238,8.882157,4.101298,3
18831167826590,-1.3591232,8.906086,4.1204405,3
18831170205809,-1.3543376,8.896515,4.1204405,3
18831172585079,-1.3591232,8.896515,4.0869412,3
18831174964298,-1.3160524,8.886943,4.091727,3
18831177343517,-1.3160524,8.920443,4.101298,3
18831179722788,-1.2586247,8.906086,4.106084,3
18831182102006,-1.2346965,8.896515,4.101298,3
18831184481225,-1.18684,8.906086,4.106084,3
18831186860496,-1.1629118,8.930014,4.101298,3
18831189239715,-1.1533405,8.9348,4.1204405,3
18831191618986,-1.1006985,8.925228,4.1204405,3
18831193998204,-1.0815558,8.920443,4.1204405,3
18831196377423,-1.052842,8.915657,4.1108694,3
18831198756642,-1.038485,8.920443,4.1108694,3
18831201135913,-1.038485,8.9108715,4.115655,3
18831203515131,-1.0432707,8.896515,4.139583,3
18831205894402,-1.0815558,8.9013,4.115655,3
18831208273621,-1.1006985,8.906086,4.115655,3
18831210652840,-1.1437693,8.9108715,4.1108694,3
18831213032111,-1.1964114,8.9013,4.1204405,3
18831215411329,-1.2442678,8.896515,4.115655,3
18831217790548,-1.282553,8.877372,4.091727,3
18831220169819,-1.3208381,8.886943,4.1204405,3
18831222549038,-1.3591232,8.891729,4.1347976,3
18831224928256,-1.3782659,8.896515,4.125226,3
18831227307527,-1.3830515,8.891729,4.130012,3
18831229686746,-1.3878372,8.9108715,4.125226,3
18831232066017,-1.3639089,8.920443,4.1347976,3
18831234445236,-1.3399807,8.920443,4.130012,3
18831236824454,-1.2921243,8.891729,4.1347976,3
18831239203673,-1.2586247,8.9108715,4.1443686,3
18831241582944,-1.1916257,8.925228,4.1347976,3
18831243962163,-1.1629118,8.915657,4.139583,3
18831246341381,-1.0959128,8.896515,4.1347976,3
18831248720600,-1.0480564,8.9108715,4.139583,3
18831251099871,-1.0049855,8.9108715,4.1347976,3
18831253479142,-0.9619147,8.9013,4.130012,3
18831255858361,-0.95712906,8.9108715,4.125226,3
18831258237579,-0.971486,8.920443,4.1347976,3
18831260616850,-0.9906286,8.906086,4.130012,3
18831262996069,-0.9906286,8.886943,4.1108694,3
18831265375392,-1.0145568,8.915657,4.115655,3
18831267754559,-1.0863415,8.9013,4.0965123,3
18831270133777,-1.1389836,8.891729,4.106084,3
18831272512996,-1.1676974,8.877372,4.130012,3
18831274892163,-1.2155539,8.872586,4.115655,3
18831277271486,-1.2729816,8.85823,4.115655,3
18831279650704,-1.2921243,8.848659,4.0773697,3
18831282029975,-1.3112668,8.853444,4.048656,3
18831284409194,-1.3208381,8.872586,4.048656,3
18831286788413,-1.3304094,8.882157,4.058227,3
18831289167684,-1.3256238,8.867801,4.063013,3
18831291546902,-1.2969099,8.853444,4.072584,3
18831293926173,-1.253839,8.867801,4.058227,3
18831296305392,-1.1820544,8.886943,4.063013,3
18831298684611,-1.1437693,8.877372,4.0534415,3
18831301063881,-1.105484,8.863015,4.058227,3
18831303443100,-1.0480564,8.886943,4.082155,3
18831305822319,-0.9667004,8.915657,4.115655,3
18831308201590,-0.94755775,8.9013,4.1108694,3
18831310580809,-0.90448695,8.906086,4.115655,3
18831312960027,-0.89491564,8.9013,4.1347976,3
18831315339298,-0.89013004,8.915657,4.139583,3
18831317718517,-0.90448695,8.925228,4.1443686,3
18831320097736,-0.9284152,8.920443,4.1587257,3
18831322477006,-0.9667004,8.9013,4.1635113,3
18831324856225,-1.0145568,8.886943,4.168297,3
18831327235444,-1.0767702,8.886943,4.1635113,3
18831329614715,-1.1246266,8.877372,4.168297,3
18831331993934,-1.1724831,8.867801,4.1587257,3
18831334373152,-1.2299109,8.867801,4.1635113,3
18831336752423,-1.2873386,8.872586,4.168297,3
18831339131642,-1.3543376,8.85823,4.1635113,3
18831341510861,-1.3926228,8.863015,4.1635113,3
18831343890131,-1.4117653,8.896515,4.168297,3
18831346269350,-1.416551,8.906086,4.1635113,3
18831348648569,-1.4213367,8.882157,4.1587257,3
18831351027840,-1.3974084,8.9013,4.1347976,3
18831353407059,-1.3734802,8.9013,4.1443686,3
18831355786277,-1.3447664,8.886943,4.1587257,3
18831358165548,-1.282553,8.896515,4.1778684,3
18831360544767,-1.2442678,8.896515,4.1778684,3
18831362923934,-1.2299109,8.891729,4.182654,3
18831365303256,-1.2059826,8.886943,4.1778684,3
18831367682475,-1.1724831,8.872586,4.1778684,3
18831370061746,-1.1246266,8.886943,4.173083,3
18831372440965,-1.119841,8.896515,4.1635113,3
18831374820184,-1.1389836,8.915657,4.1635113,3
18831377199454,-1.1533405,8.886943,4.1491547,3
18831379578673,-1.1724831,8.891729,4.125226,3
18831381957892,-1.2011969,8.891729,4.115655,3
18831384337163,-1.2394822,8.886943,4.106084,3
18831386716329,-1.3016955,8.906086,4.106084,3
18831389095600,-1.3639089,8.891729,4.091727,3
18831391474871,-1.3974084,8.9108715,4.0869412,3
18831393854090,-1.4213367,8.9013,4.0773697,3
18831396233309,-1.4548361,8.886943,4.082155,3
18831398612579,-1.4691931,8.915657,4.0869412,3
18831400991798,-1.4548361,8.896515,4.0773697,3
18831403371017,-1.4596218,8.882157,4.0965123,3
18831405750288,-1.4404793,8.891729,4.091727,3
18831408129506,-1.3974084,8.891729,4.101298,3
18831410508725,-1.3495519,8.891729,4.101298,3
18831412887996,-1.2873386,8.886943,4.130012,3
18831415267215,-1.2299109,8.886943,4.125226,3
18831417646434,-1.1581261,8.9013,4.1204405,3
18831420025704,-1.119841,8.906086,4.1204405,3
18831422404923,-1.0767702,8.886943,4.1347976,3
18831424784142,-1.0289137,8.872586,4.115655,3
18831427163413,-0.98584294,8.886943,4.1347976,3
18831429542579,-0.98584294,8.906086,4.1204405,3
18831431921798,-0.971486,8.9108715,4.1204405,3
18831434301121,-0.9667004,8.9108715,4.115655,3
18831436680340,-0.9810573,8.906086,4.091727,3
18831439059611,-1.0001999,8.896515,4.0869412,3
18831441438829,-1.0576276,8.896515,4.0773697,3
18831443818048,-1.105484,8.9108715,4.0534415,3
18831446197319,-1.1676974,8.915657,4.0438704,3
18831448576538,-1.2059826,8.891729,4.0390844,3
18831450955756,-1.2777673,8.920443,4.0438704,3
18831453334975,-1.3064811,8.944371,4.0438704,3
18831455714246,-1.3639089,8.915657,4.0534415,3
18831458093465,-1.3878372,8.920443,4.0677986,3
18831460472736,-1.4117653,8.891729,4.063013,3
18831462851954,-1.4213367,8.9108715,4.0677986,3
18831465231173,-1.4213367,8.886943,4.0773697,3
18831467610444,-1.3830515,8.863015,4.0965123,3
18831469989663,-1.3639089,8.891729,4.091727,3
18831472368881,-1.3256238,8.915657,4.0965123,3
18831474748100,-1.2921243,8.896515,4.1108694,3
18831477127371,-1.2586247,8.9013,4.130012,3
18831479506590,-1.2299109,8.9013,4.115655,3
18831481885809,-1.2107682,8.9108715,4.125226,3
18831484265079,-1.1772687,8.915657,4.1491547,3
18831486644298,-1.18684,8.9108715,4.1443686,3
18831489023569,-1.1916257,8.915657,4.15394,3
18831491402788,-1.2059826,8.906086,4.168297,3
18831493782006,-1.2107682,8.9108715,4.168297,3
18831496161277,-1.2442678,8.925228,4.168297,3
18831498540496,-1.2969099,8.906086,4.1587257,3
18831500919715,-1.3351951,8.9013,4.15394,3
18831503298986,-1.3591232,8.891729,4.1491547,3
18831505678204,-1.3878372,8.867801,4.1347976,3
18831508057423,-1.4213367,8.872586,4.1443686,3
18831510436694,-1.4404793,8.85823,4.1347976,3
18831512815913,-1.4452649,8.872586,4.125226,3
18831515195131,-1.4644074,8.872586,4.139583,3
18831517574402,-1.4644074,8.867801,4.125226,3
18831519953621,-1.4356936,8.863015,4.130012,3
18831522332840,-1.402194,8.877372,4.125226,3
18831524712111,-1.3591232,8.9013,4.1108694,3
18831527091329,-1.3208381,8.886943,4.1108694,3
18831529470548,-1.2921243,8.886943,4.0965123,3
18831531849819,-1.2442678,8.906086,4.106084,3
18831534229038,-1.1916257,8.9013,4.106084,3
18831536608256,-1.1629118,8.886943,4.0773697,3
18831538987527,-1.119841,8.906086,4.082155,3
18831541366746,-1.0959128,8.920443,4.0869412,3
18831543745965,-1.0911272,8.906086,4.0869412,3
18831546125236,-1.0671989,8.906086,4.0773697,3
18831548504454,-1.0624132,8.882157,4.082155,3
18831550883725,-1.0767702,8.906086,4.0965123,3
18831553262944,-1.105484,8.896515,4.0965123,3
18831555642163,-1.1294123,8.906086,4.091727,3
18831558021434,-1.1389836,8.891729,4.0869412,3
18831560400652,-1.1820544,8.882157,4.0869412,3
18831562779871,-1.18684,8.882157,4.082155,3
18831565159142,-1.2059826,8.882157,4.0869412,3
18831567538361,-1.2394822,8.882157,4.0869412,3
18831569917579,-1.282553,8.877372,4.0773697,3
18831572296850,-1.2634103,8.877372,4.0965123,3
18831574676069,-1.253839,8.872586,4.0869412,3
18831577055288,-1.268196,8.882157,4.101298,3
18831579434559,-1.2634103,8.896515,4.1108694,3
18831581813777,-1.2442678,8.882157,4.1108694,3
18831584192996,-1.2155539,8.896515,4.1204405,3
18831586572267,-1.1916257,8.863015,4.115655,3
18831588951486,-1.1820544,8.886943,4.1204405,3
18831591330704,-1.1533405,8.891729,4.115655,3
18831593709975,-1.1533405,8.886943,4.1204405,3
18831596089194,-1.134198,8.872586,4.115655,3
18831598468413,-1.1246266,8.896515,4.125226,3
18831600847684,-1.1102697,8.891729,4.130012,3
18831603226902,-1.119841,8.9013,4.1347976,3
18831605606121,-1.1294123,8.886943,4.1491547,3
18831607985392,-1.1389836,8.867801,4.1443686,3
18831610364611,-1.1485549,8.886943,4.168297,3
18831612743829,-1.1533405,8.906086,4.1587257,3
18831615123100,-1.1820544,8.886943,4.168297,3
18831617502267,-1.2011969,8.891729,4.173083,3
18831619881538,-1.2490535,8.882157,4.182654,3
18831622260809,-1.2586247,8.867801,4.1778684,3
18831624640027,-1.2586247,8.872586,4.1635113,3
18831627019246,-1.2634103,8.877372,4.1778684,3
18831629398517,-1.2777673,8.891729,4.1587257,3
18831631777736,-1.2634103,8.9013,4.1635113,3
18831634156954,-1.2442678,8.891729,4.1491547,3
18831636536225,-1.2346965,8.882157,4.1347976,3
18831638915444,-1.2155539,8.872586,4.125226,3
18831641294663,-1.2299109,8.882157,4.125226,3
18831643673934,-1.1964114,8.891729,4.1108694,3
18831646053152,-1.1629118,8.882157,4.115655,3
18831648432371,-1.1389836,8.896515,4.115655,3
18831650811642,-1.134198,8.906086,4.1108694,3
18831653190861,-1.1294123,8.906086,4.106084,3
18831655570079,-1.1150553,8.915657,4.091727,3
18831657949350,-1.119841,8.925228,4.082155,3
18831660328569,-1.119841,8.9348,4.082155,3
18831662707788,-1.1437693,8.915657,4.0869412,3
18831665087059,-1.1581261,8.9108715,4.101298,3
18831667466277,-1.18684,8.906086,4.106084,3
18831669845496,-1.1916257,8.9013,4.091727,3
18831672224767,-1.2203395,8.891729,4.106084,3
18831674603986,-1.2251252,8.896515,4.101298,3
18831676983204,-1.2299109,8.9013,4.091727,3
18831679362475,-1.2346965,8.886943,4.0965123,3
18831681741694,-1.2011969,8.867801,4.0869412,3
18831684120965,-1.1724831,8.872586,4.101298,3
18831686500184,-1.1724831,8.891729,4.0965123,3
18831688879402,-1.1676974,8.882157,4.0869412,3
18831691258621,-1.1485549,8.872586,4.101298,3
18831693637892,-1.0959128,8.882157,4.101298,3
18831696017111,-1.0719845,8.906086,4.125226,3
18831698396329,-1.0432707,8.891729,4.130012,3
18831700775600,-1.0097711,8.920443,4.1347976,3
18831703154819,-1.0049855,8.9108715,4.1347976,3
18831705534038,-0.9906286,8.9348,4.125226,3
18831707913309,-0.9667004,8.925228,4.130012,3
18831710292527,-0.9619147,8.9108715,4.130012,3
18831712671694,-0.9523434,8.9013,4.1587257,3
18831715050965,-0.9762716,8.9108715,4.173083,3
18831717430236,-0.9810573,8.930014,4.168297,3
18831719809454,-1.0193424,8.896515,4.168297,3
18831722188725,-1.0719845,8.863015,4.15394,3
18831724567944,-1.1294123,8.877372,4.1443686,3
18831726947163,-1.134198,8.882157,4.1347976,3
18831729326434,-1.1676974,8.863015,4.139583,3
18831731705652,-1.2011969,8.85823,4.1347976,3
18831734084871,-1.2490535,8.886943,4.15394,3
18831736464142,-1.2729816,8.882157,4.1443686,3
18831738843361,-1.2873386,8.85823,4.1587257,3
18831741222579,-1.3256238,8.882157,4.1347976,3
18831743601850,-1.3543376,8.891729,4.125226,3
18831745981069,-1.3639089,8.886943,4.125226,3
18831748360288,-1.3591232,8.891729,4.139583,3
18831750739559,-1.3351951,8.896515,4.1204405,3
18831753118777,-1.3208381,8.9013,4.125226,3
18831755497996,-1.282553,8.886943,4.125226,3
18831757877267,-1.268196,8.882157,4.1347976,3
18831760256486,-1.2490535,8.886943,4.1108694,3
18831762635704,-1.2011969,8.886943,4.101298,3
18831765014975,-1.1629118,8.9013,4.106084,3
18831767394194,-1.119841,8.896515,4.1108694,3
18831769773413,-1.119841,8.9013,4.1108694,3
18831772152579,-1.1102697,8.906086,4.1204405,3
18831774531902,-1.0576276,8.886943,4.1491547,3
18831776911121,-1.0671989,8.9108715,4.1635113,3
18831779290392,-1.0767702,8.9108715,4.15394,3
18831781669611,-1.0719845,8.906086,4.1443686,3
18831784048829,-1.0671989,8.915657,4.139583,3
18831786428100,-1.052842,8.939586,4.15394,3
18831788807319,-1.0671989,8.9108715,4.15394,3
18831791186486,-1.0911272,8.9108715,4.130012,3
18831793565809,-1.1294123,8.891729,4.130012,3
18831795945027,-1.1437693,8.896515,4.1491547,3
18831798324246,-1.1437693,8.886943,4.139583,3
18831800703517,-1.1581261,8.882157,4.1347976,3
18831803082736,-1.1772687,8.920443,4.139583,3
18831805461954,-1.1772687,8.915657,4.1443686,3
18831807841225,-1.1724831,8.896515,4.1443686,3
18831810220444,-1.18684,8.9013,4.1347976,3
18831812599663,-1.1916257,8.9013,4.1443686,3
18831814978934,-1.1772687,8.877372,4.125226,3
18831817358152,-1.1724831,8.891729,4.1204405,3
18831819737371,-1.1629118,8.896515,4.115655,3
18831822116642,-1.1676974,8.891729,4.125226,3
18831824495861,-1.1581261,8.877372,4.130012,3
18831826875079,-1.1294123,8.896515,4.115655,3
18831829254350,-1.134198,8.891729,4.115655,3
18831831633569,-1.1676974,8.906086,4.1204405,3
18831834012788,-1.1533405,8.891729,4.1443686,3
18831836392059,-1.1246266,8.9013,4.139583,3
18831838771277,-1.134198,8.877372,4.15394,3
18831841150444,-1.1294123,8.867801,4.139583,3
18831843529767,-1.1437693,8.882157,4.1347976,3
18831845908986,-1.1581261,8.886943,4.125226,3
18831848288204,-1.1581261,8.891729,4.1204405,3
18831850667475,-1.134198,8.872586,4.1108694,3
18831853046694,-1.1581261,8.886943,4.106084,3
18831855425913,-1.1629118,8.863015,4.1108694,3
18831857805184,-1.1629118,8.882157,4.115655,3
18831860184402,-1.1772687,8.877372,4.1108694,3
18831862563621,-1.1629118,8.886943,4.091727,3
18831864942892,-1.1676974,8.9013,4.101298,3
18831867322111,-1.1772687,8.9013,4.091727,3
18831869701329,-1.1581261,8.9013,4.0965123,3
18831872080600,-1.1485549,8.886943,4.101298,3
18831874459819,-1.1150553,8.882157,4.1108694,3
18831876839038,-1.1294123,8.886943,4.1108694,3
18831879218309,-1.1246266,8.896515,4.1108694,3
18831881597527,-1.1006985,8.891729,4.101298,3
18831883976746,-1.0767702,8.915657,4.106084,3
18831886356017,-1.0671989,8.920443,4.115655,3
18831888735236,-1.0576276,8.930014,4.115655,3
18831891114454,-1.0576276,8.891729,4.115655,3
18831893493725,-1.0432707,8.9108715,4.1108694,3
18831895872944,-1.0336994,8.9108715,4.1347976,3
18831898252163,-1.0241281,8.9108715,4.1587257,3
18831900631434,-1.0432707,8.920443,4.1587257,3
18831903010652,-1.0336994,8.906086,4.1874394,3
18831905389819,-1.0624132,8.9108715,4.1778684,3
18831907769142,-1.0576276,8.920443,4.1778684,3
18831910148361,-1.0671989,8.896515,4.1778684,3
18831912527579,-1.0815558,8.891729,4.197011,3
18831914906798,-1.0815558,8.896515,4.182654,3
18831917286069,-1.1150553,8.896515,4.2017965,3
18831919665288,-1.1581261,8.9108715,4.2161536,3
18831922044506,-1.1485549,8.9108715,4.1874394,3
18831924423725,-1.1581261,8.886943,4.1778684,3
18831926802996,-1.1676974,8.882157,4.173083,3
18831929182215,-1.1916257,8.872586,4.173083,3
18831931561486,-1.2011969,8.877372,4.1635113,3
18831933940704,-1.1964114,8.877372,4.173083,3
18831936319923,-1.18684,8.886943,4.1587257,3
18831938699194,-1.1724831,8.877372,4.1587257,3
18831941078413,-1.2059826,8.877372,4.1587257,3
18831943457631,-1.2203395,8.882157,4.1635113,3
18831945836902,-1.2203395,8.882157,4.15394,3
18831948216121,-1.2251252,8.872586,4.130012,3
18831950595340,-1.1964114,8.882157,4.101298,3
18831952974559,-1.1916257,8.882157,4.0965123,3
18831955353829,-1.18684,8.891729,4.1108694,3
18831957733048,-1.18684,8.906086,4.091727,3
18831960112319,-1.1916257,8.891729,4.0869412,3
18831962491538,-1.1676974,8.882157,4.0773697,3
18831964870756,-1.18684,8.886943,4.0773697,3
18831967250027,-1.1964114,8.896515,4.0534415,3
18831969629246,-1.2011969,8.896515,4.0677986,3
18831972008465,-1.1772687,8.882157,4.082155,3
18831974387736,-1.1724831,8.882157,4.0869412,3
18831976766954,-1.1820544,8.896515,4.091727,3
18831979146173,-1.18684,8.882157,4.0773697,3
18831981525444,-1.1820544,8.882157,4.0773697,3
18831983904663,-1.18684,8.886943,4.0677986,3
18831986283881,-1.18684,8.877372,4.0773697,3
18831988663152,-1.1724831,8.891729,4.082155,3
18831991042371,-1.1629118,8.9108715,4.091727,3
18831993421590,-1.1724831,8.891729,4.091727,3
18831995800861,-1.1533405,8.906086,4.0965123,3
18831998180079,-1.1581261,8.9108715,4.101298,3
18832000559298,-1.1150553,8.915657,4.1108694,3
18832002938569,-1.1294123,8.906086,4.125226,3
18832005317788,-1.1006985,8.920443,4.115655,3
18832007697006,-1.0959128,8.906086,4.1204405,3
18832010076277,-1.0911272,8.891729,4.1347976,3
18832012455496,-1.0911272,8.896515,4.139583,3
18832014834715,-1.0719845,8.891729,4.1347976,3
18832017213986,-1.0815558,8.882157,4.15394,3
18832019593204,-1.105484,8.863015,4.1491547,3
18832021972423,-1.1246266,8.877372,4.15394,3
18832024351694,-1.1246266,8.882157,4.139583,3
18832026730913,-1.134198,8.882157,4.130012,3
18832029110131,-1.1629118,8.886943,4.130012,3
18832031489350,-1.18684,8.9013,4.115655,3
18832033868621,-1.2155539,8.9013,4.1204405,3
18832036247840,-1.2155539,8.9013,4.106084,3
18832038627059,-1.2394822,8.915657,4.101298,3
18832041006329,-1.253839,8.896515,4.091727,3
18832043385548,-1.2634103,8.896515,4.101298,3
18832045764767,-1.2777673,8.920443,4.082155,3
18832048144038,-1.3064811,8.9013,4.0965123,3
18832050523256,-1.3064811,8.9108715,4.115655,3
18832052902475,-1.3256238,8.891729,4.115655,3
18832055281746,-1.3112668,8.9108715,4.1108694,3
18832057660965,-1.2969099,8.925228,4.115655,3
18832060040184,-1.3112668,8.939586,4.125226,3
18832062419454,-1.2873386,8.930014,4.115655,3
18832064798673,-1.268196,8.9108715,4.115655,3
18832067177892,-1.2394822,8.906086,4.1204405,3
18832069557163,-1.2251252,8.906086,4.139583,3
18832071936381,-1.2059826,8.906086,4.139583,3
18832074315600,-1.2011969,8.9108715,4.1491547,3
18832076694871,-1.1916257,8.9108715,4.1347976,3
18832079074090,-1.1629118,8.882157,4.125226,3
18832081453309,-1.1485549,8.882157,4.115655,3
18832083832527,-1.1437693,8.9013,4.1204405,3
18832086211798,-1.134198,8.9108715,4.101298,3
18832088591017,-1.1246266,8.920443,4.091727,3
18832090970288,-1.1150553,8.906086,4.091727,3
18832093349506,-1.1294123,8.920443,4.1108694,3
18832095728725,-1.1294123,8.9013,4.1108694,3
18832098107996,-1.134198,8.920443,4.1204405,3
18832100487215,-1.1246266,8.9013,4.125226,3
18832102866434,-1.1102697,8.9013,4.139583,3
18832105245652,-1.134198,8.9108715,4.15394,3
18832107624923,-1.1485549,8.896515,4.1347976,3
18832110004142,-1.1676974,8.9013,4.139583,3
18832112383361,-1.1581261,8.906086,4.130012,3
18832114762631,-1.1629118,8.896515,4.0965123,3
18832117141850,-1.1676974,8.882157,4.0869412,3
18832119521069,-1.1629118,8.867801,4.082155,3
18832121900340,-1.1676974,8.867801,4.0773697,3
18832124279559,-1.18684,8.882157,4.0677986,3
18832126658777,-1.2155539,8.877372,4.0773697,3
18832129038048,-1.2299109,8.867801,4.0965123,3
18832131417267,-1.2011969,8.882157,4.091727,3
18832133796486,-1.2011969,8.882157,4.0965123,3
18832136175756,-1.2155539,8.877372,4.1108694,3
18832138554975,-1.2011969,8.886943,4.130012,3
18832140934194,-1.2155539,8.896515,4.15394,3
18832143313465,-1.2203395,8.882157,4.1587257,3
18832145692684,-1.2203395,8.872586,4.182654,3
18832148071902,-1.2251252,8.872586,4.1922255,3
18832150451173,-1.2155539,8.867801,4.206582,3
18832152830392,-1.1629118,8.882157,4.23051,3
18832155209611,-1.1676974,8.891729,4.2257247,3
18832157588829,-1.1389836,8.872586,4.211368,3
18832159968100,-1.1246266,8.9013,4.206582,3
18832162347319,-1.1150553,8.877372,4.2161536,3
18832164726538,-1.0671989,8.867801,4.2352962,3
18832167105809,-1.0624132,8.882157,4.206582,3
18832169485027,-1.0767702,8.896515,4.182654,3
18832171864246,-1.052842,8.886943,4.1778684,3
18832174243517,-1.052842,8.906086,4.168297,3
18832176622736,-1.052842,8.939586,4.1587257,3
18832179001954,-1.0432707,8.9108715,4.139583,3
18832181381225,-1.052842,8.920443,4.125226,3
18832183760444,-1.0719845,8.920443,4.115655,3
18832186139663,-1.0815558,8.896515,4.106084,3
18832188518934,-1.052842,8.891729,4.091727,3
18832190898152,-1.0767702,8.886943,4.082155,3
18832193277371,-1.1150553,8.886943,4.0869412,3
18832195656642,-1.1294123,8.9108715,4.0773697,3
18832198035861,-1.1485549,8.920443,4.0677986,3
18832200415079,-1.1772687,8.896515,4.058227,3
18832202794350,-1.2155539,8.9108715,4.063013,3
18832205173569,-1.2251252,8.915657,4.0677986,3
18832207552788,-1.2251252,8.9013,4.0773697,3
18832209932006,-1.2155539,8.9013,4.082155,3
18832212311277,-1.2299109,8.915657,4.091727,3
18832214690496,-1.2346965,8.920443,4.0869412,3
18832217069715,-1.2490535,8.9348,4.091727,3
18832219448934,-1.2442678,8.930014,4.1204405,3
18832221828204,-1.2251252,8.920443,4.115655,3
18832224207423,-1.2155539,8.930014,4.139583,3
18832226586694,-1.2155539,8.9108715,4.1347976,3
18832228965913,-1.1916257,8.9108715,4.1587257,3
18832231345131,-1.2011969,8.915657,4.1587257,3
18832233724402,-1.1964114,8.9348,4.168297,3
18832236103621,-1.1629118,8.9348,4.1587257,3
18832238482840,-1.119841,8.9013,4.168297,3
18832240862111,-1.1389836,8.9013,4.168297,3
18832243241329,-1.1437693,8.9013,4.1874394,3
18832245620548,-1.1533405,8.891729,4.197011,3
18832247999819,-1.1533405,8.877372,4.206582,3
18832250379038,-1.1437693,8.877372,4.2017965,3
18832252758256,-1.1485549,8.886943,4.182654,3
18832255137527,-1.1629118,8.891729,4.182654,3
18832257516746,-1.1724831,8.882157,4.168297,3
18832259895965,-1.1916257,8.891729,4.182654,3
18832262275236,-1.2059826,8.877372,4.197011,3
18832264654454,-1.2203395,8.863015,4.182654,3
18832267033673,-1.2203395,8.877372,4.15394,3
18832269412892,-1.2394822,8.863015,4.1443686,3
18832271792163,-1.2442678,8.872586,4.1443686,3
18832274171381,-1.2729816,8.886943,4.15394,3
18832276550600,-1.282553,8.872586,4.139583,3
18832278929871,-1.3064811,8.85823,4.130012,3
18832281309090,-1.282553,8.867801,4.1108694,3
18832283688309,-1.3064811,8.853444,4.0965123,3
18832286067579,-1.3160524,8.867801,4.101298,3
18832288446798,-1.2873386,8.867801,4.0869412,3
18832290826017,-1.282553,8.872586,4.0677986,3
18832293205288,-1.2969099,8.863015,4.0438704,3
18832295584506,-1.2921243,8.863015,4.0390844,3
18832297963725,-1.2921243,8.877372,4.048656,3
18832300342996,-1.282553,8.9013,4.048656,3
18832302722215,-1.2921243,8.896515,4.058227,3
18832305101434,-1.2634103,8.886943,4.0438704,3
18832307480704,-1.2777673,8.886943,4.034299,3
18832309859923,-1.253839,8.896515,4.0438704,3
18832312239142,-1.2490535,8.872586,4.048656,3
18832314618361,-1.2490535,8.882157,4.063013,3
18832316997631,-1.268196,8.896515,4.0677986,3
18832319376850,-1.282553,8.896515,4.0677986,3
18832321756069,-1.268196,8.872586,4.072584,3
18832324135340,-1.2490535,8.877372,4.072584,3
18832326514559,-1.2729816,8.863015,4.0773697,3
18832328893777,-1.2777673,8.85823,4.0965123,3
18832331273048,-1.2586247,8.896515,4.101298,3
18832333652267,-1.268196,8.896515,4.091727,3
18832336031486,-1.2634103,8.9013,4.1108694,3
18832338410756,-1.268196,8.896515,4.115655,3
18832340789975,-1.2634103,8.886943,4.130012,3
18832343169194,-1.2490535,8.9013,4.1491547,3
18832345548413,-1.2251252,8.882157,4.1491547,3
18832347927684,-1.2107682,8.9013,4.1347976,3
18832350306902,-1.1820544,8.906086,4.15394,3
18832352686121,-1.1676974,8.896515,4.1491547,3
18832355065392,-1.1533405,8.863015,4.1347976,3
18832357444559,-1.1246266,8.877372,4.1443686,3
18832359823829,-1.105484,8.872586,4.1491547,3
18832362203100,-1.0863415,8.863015,4.139583,3
18832364582319,-1.1150553,8.853444,4.115655,3
18832366961538,-1.1150553,8.882157,4.125226,3
18832369340809,-1.134198,8.882157,4.125226,3
18832371720027,-1.1485549,8.867801,4.125226,3
18832374099246,-1.1676974,8.882157,4.106084,3
18832376478517,-1.1820544,8.877372,4.101298,3
18832378857684,-1.1964114,8.872586,4.106084,3
18832381236954,-1.2394822,8.891729,4.091727,3
18832383616225,-1.2634103,8.906086,4.0773697,3
18832385995444,-1.2873386,8.9013,4.072584,3
18832388374663,-1.3016955,8.896515,4.063013,3
18832390753934,-1.3399807,8.915657,4.0534415,3
18832393133152,-1.3543376,8.915657,4.058227,3
18832395512371,-1.3878372,8.9013,4.0773697,3
18832397891590,-1.3926228,8.891729,4.0677986,3
18832400270861,-1.3830515,8.886943,4.072584,3
18832402650079,-1.402194,8.867801,4.0677986,3
18832405029298,-1.4069797,8.882157,4.082155,3
18832407408569,-1.4213367,8.906086,4.0965123,3
18832409787788,-1.3878372,8.9108715,4.101298,3
18832412167006,-1.3495519,8.9013,4.115655,3
18832414546277,-1.3399807,8.906086,4.115655,3
18832416925496,-1.3256238,8.906086,4.0965123,3
18832419304715,-1.2921243,8.906086,4.0869412,3
18832421683986,-1.2777673,8.906086,4.0965123,3
18832424063204,-1.2442678,8.9013,4.091727,3
18832426442423,-1.2251252,8.891729,4.101298,3
18832428821642,-1.2059826,8.896515,4.1108694,3
18832431200913,-1.1964114,8.939586,4.115655,3
18832433580131,-1.18684,8.930014,4.125226,3
18832435959350,-1.1964114,8.920443,4.1108694,3
18832438338621,-1.1820544,8.920443,4.101298,3
18832440717840,-1.1916257,8.925228,4.106084,3
18832443097059,-1.1964114,8.944371,4.106084,3
18832445476329,-1.1964114,8.939586,4.106084,3
18832447855548,-1.18684,8.925228,4.1204405,3
18832450234767,-1.1629118,8.9348,4.1108694,3
18832452614038,-1.1916257,8.915657,4.101298,3
18832454993256,-1.2251252,8.925228,4.091727,3
18832457372475,-1.2203395,8.930014,4.106084,3
18832459751746,-1.2346965,8.920443,4.0965123,3
18832462130965,-1.2394822,8.906086,4.106084,3
18832464510184,-1.2586247,8.9108715,4.130012,3
18832466889402,-1.2729816,8.9108715,4.139583,3
18832469268673,-1.3064811,8.9013,4.125226,3
18832471647892,-1.3160524,8.9108715,4.101298,3
18832474027111,-1.3016955,8.915657,4.0965123,3
18832476406381,-1.3256238,8.9013,4.1108694,3
18832478785600,-1.3304094,8.886943,4.115655,3
18832481164819,-1.3208381,8.896515,4.115655,3
18832483544090,-1.3495519,8.9108715,4.130012,3
18832485923309,-1.3543376,8.886943,4.125226,3
18832488302527,-1.3974084,8.891729,4.130012,3
18832490681798,-1.3974084,8.896515,4.125226,3
18832493061017,-1.3830515,8.886943,4.1108694,3
18832495440236,-1.3878372,8.877372,4.106084,3
18832497819454,-1.3639089,8.85823,4.106084,3
18832500198725,-1.3495519,8.853444,4.1108694,3
18832502577944,-1.3734802,8.867801,4.101298,3
18832504957163,-1.3495519,8.863015,4.091727,3
18832507336434,-1.3351951,8.882157,4.0869412,3
18832509715652,-1.3256238,8.877372,4.082155,3
18832512094871,-1.3160524,8.886943,4.0965123,3
18832514474142,-1.3064811,8.891729,4.101298,3
18832516853361,-1.2921243,8.891729,4.101298,3
18832519232579,-1.2777673,8.877372,4.1204405,3
18832521611746,-1.2634103,8.891729,4.101298,3
18832523991069,-1.2299109,8.9013,4.106084,3
18832526370288,-1.2155539,8.906086,4.101298,3
18832528749559,-1.2155539,8.886943,4.1204405,3
18832531128777,-1.2155539,8.872586,4.115655,3
18832533507996,-1.2251252,8.872586,4.125226,3
18832535887163,-1.1964114,8.882157,4.1635113,3
18832538266486,-1.2059826,8.867801,4.1778684,3
18832540645704,-1.1820544,8.882157,4.1635113,3
18832543024923,-1.18684,8.877372,4.1443686,3
18832545404194,-1.2107682,8.877372,4.1204405,3
18832547783413,-1.1964114,8.882157,4.130012,3
18832550162631,-1.1629118,8.877372,4.1443686,3
18832552541902,-1.1916257,8.886943,4.1491547,3
18832554921121,-1.1676974,8.886943,4.1635113,3
18832557300288,-1.1724831,8.867801,4.1587257,3
18832559679611,-1.1533405,8.877372,4.15394,3
18832562058829,-1.1533405,8.886943,4.15394,3
18832564438048,-1.1581261,8.867801,4.115655,3
18832566817267,-1.1724831,8.867801,4.125226,3
18832569196538,-1.1820544,8.896515,4.130012,3
18832571575756,-1.1820544,8.896515,4.130012,3
18832573954975,-1.1533405,8.877372,4.1443686,3
18832576334246,-1.1437693,8.877372,4.1204405,3
18832578713465,-1.1389836,8.877372,4.125226,3
18832581092684,-1.1485549,8.853444,4.115655,3
18832583471902,-1.1294123,8.882157,4.1204405,3
18832585851173,-1.1437693,8.863015,4.130012,3
18832588230392,-1.1437693,8.85823,4.1491547,3
18832590609611,-1.1294123,8.882157,4.1347976,3
18832592988881,-1.134198,8.872586,4.1347976,3
18832595368100,-1.1389836,8.863015,4.15394,3
18832597747319,-1.1437693,8.872586,4.1347976,3
18832600126590,-1.1724831,8.863015,4.139583,3
18832602505809,-1.1724831,8.85823,4.139583,3
18832604885027,-1.1724831,8.85823,4.130012,3
18832607264298,-1.18684,8.839087,4.1491547,3
