t_ns,ax,ay,az,accuracy
32580516992549,-0.35413775,9.126225,3.6849468,3
32580519371403,-0.44027936,9.135797,3.790231,3
32580521750257,-0.5168497,9.111869,3.8524444,3
32580524129060,-0.61734825,9.08794,3.8285162,3
32580526507914,-0.6939186,9.107083,3.751946,3
32580528886768,-0.7322037,9.111869,3.656233,3
32580531265622,-0.83748794,9.116654,3.641876,3
32580533644424,-0.91405827,9.15494,3.6801612,3
32580536023278,-0.971486,9.135797,3.7663028,3
32580538402132,-0.9762716,9.140582,3.8237305,3
32580540780987,-0.971486,9.150154,3.8093736,3
32580543159737,-0.9619147,9.145369,3.7471602,3
32580545538643,-0.89013004,9.150154,3.6897326,3
32580547917497,-0.8135597,9.131011,3.6610186,3
32580550296351,-0.7465607,9.107083,3.6849468,3
32580552675205,-0.67477596,9.131011,3.737589,3
32580555053955,-0.60777694,9.12144,3.790231,3
32580557432862,-0.4977071,9.111869,3.7806597,3
32580559811716,-0.4211368,9.111869,3.737589,3
32580562190570,-0.37328035,9.116654,3.6753755,3
32580564569320,-0.3397808,9.131011,3.67059,3
32580566948226,-0.32063824,9.116654,3.694518,3
32580569327080,-0.31106696,9.083155,3.7328033,3
32580571705935,-0.32063824,9.107083,3.751946,3
32580574084737,-0.3493521,9.116654,3.7663028,3
32580576463591,-0.41156548,9.116654,3.7471602,3
32580578842445,-0.47856453,9.126225,3.7088752,3
32580581221247,-0.5407779,9.140582,3.694518,3
32580583600101,-0.63170516,9.131011,3.7184465,3
32580585978955,-0.7082755,9.116654,3.751946,3
32580588357810,-0.7369894,9.131011,3.790231,3
32580590736664,-0.79920274,9.131011,3.8141594,3
32580593115466,-0.8327023,9.126225,3.7950168,3
32580595494320,-0.86141616,9.116654,3.7615173,3
32580597873174,-0.85184485,9.116654,3.7567315,3
32580600251976,-0.8327023,9.097511,3.7615173,3
32580602630830,-0.7800602,9.102298,3.7663028,3
32580605009685,-0.72263247,9.111869,3.7854455,3
32580607388539,-0.66999036,9.102298,3.7806597,3
32580609767393,-0.60777694,9.111869,3.7615173,3
32580612146195,-0.5312066,9.102298,3.737589,3
32580614525049,-0.4642076,9.111869,3.723232,3
32580616903903,-0.4211368,9.078369,3.7423747,3
32580619282705,-0.39720857,9.073584,3.7567315,3
32580621661560,-0.39720857,9.102298,3.7806597,3
32580624040414,-0.3589234,9.107083,3.7758741,3
32580626419268,-0.38763726,9.111869,3.7471602,3
32580628798070,-0.4019942,9.107083,3.7471602,3
32580631176924,-0.4546363,9.116654,3.7471602,3
32580633555778,-0.52163535,9.135797,3.7567315,3
32580635934632,-0.60777694,9.107083,3.7950168,3
32580638313435,-0.64606214,9.107083,3.7998023,3
32580640692289,-0.71306115,9.102298,3.790231,3
32580643071143,-0.72741807,9.08794,3.7806597,3
32580645449997,-0.7704889,9.092726,3.7998023,3
32580647828851,-0.81834537,9.092726,3.7710886,3
32580650207653,-0.81834537,9.116654,3.7567315,3
32580652586507,-0.79441714,9.107083,3.7567315,3
32580654965362,-0.7896315,9.107083,3.7567315,3
32580657344164,-0.7513463,9.08794,3.7615173,3
32580659723018,-0.6939186,9.092726,3.7710886,3
32580662101872,-0.64606214,9.097511,3.7710886,3
32580664480726,-0.6029913,9.102298,3.751946,3
32580666859528,-0.53599226,9.111869,3.737589,3
32580669238382,-0.4881358,9.111869,3.751946,3
32580671617237,-0.4546363,9.092726,3.751946,3
32580673996091,-0.40677986,9.092726,3.751946,3
32580676374945,-0.3589234,9.102298,3.7567315,3
32580678753747,-0.36370903,9.092726,3.7136607,3
32580681132601,-0.3684947,9.107083,3.7136607,3
32580683511455,-0.37328035,9.116654,3.7136607,3
32580685890310,-0.4019942,9.083155,3.723232,3
32580688269112,-0.43070808,9.08794,3.737589,3
32580690647966,-0.4833502,9.12144,3.7423747,3
32580693026820,-0.55513483,9.116654,3.7471602,3
32580695405674,-0.6029913,9.111869,3.723232,3
32580697784476,-0.6412765,9.111869,3.6993039,3
32580700163330,-0.6652047,9.135797,3.694518,3
32580702542185,-0.7082755,9.12144,3.6993039,3
32580704921039,-0.7322037,9.12144,3.7136607,3
32580707299841,-0.72741807,9.126225,3.723232,3
32580709678695,-0.7369894,9.126225,3.6993039,3
32580712057549,-0.7465607,9.135797,3.7040894,3
32580714436403,-0.6939186,9.150154,3.7136607,3
32580716815205,-0.63170516,9.12144,3.7088752,3
32580719194060,-0.5886344,9.131011,3.7088752,3
32580721572914,-0.5455636,9.126225,3.7280176,3
32580723951768,-0.49292147,9.126225,3.7280176,3
32580726330570,-0.44027936,9.145369,3.7088752,3
32580728709424,-0.41635114,9.15494,3.694518,3
32580731088278,-0.38285163,9.150154,3.7088752,3
32580733467132,-0.38763726,9.135797,3.6993039,3
32580735845935,-0.39720857,9.140582,3.7088752,3
32580738224789,-0.37806597,9.159725,3.7136607,3
32580740603643,-0.4019942,9.145369,3.7040894,3
32580742982497,-0.44985065,9.140582,3.723232,3
32580745361299,-0.47856453,9.126225,3.7471602,3
32580747740153,-0.5168497,9.140582,3.7423747,3
32580750119007,-0.55034924,9.145369,3.7567315,3
32580752497862,-0.5886344,9.131011,3.7423747,3
32580754876664,-0.6221339,9.145369,3.737589,3
32580757255518,-0.6556334,9.159725,3.7328033,3
32580759634372,-0.64606214,9.135797,3.723232,3
32580762013226,-0.66041905,9.140582,3.723232,3
32580764392028,-0.67477596,9.131011,3.7184465,3
32580766770882,-0.6556334,9.092726,3.7136607,3
32580769149737,-0.60777694,9.102298,3.7280176,3
32580771528591,-0.5982057,9.08794,3.7423747,3
32580773907393,-0.57906306,9.092726,3.7471602,3
32580776286247,-0.5312066,9.111869,3.7471602,3
32580778665101,-0.5024927,9.111869,3.7423747,3
32580781043955,-0.46899325,9.107083,3.7423747,3
32580783422757,-0.4546363,9.111869,3.737589,3
32580785801612,-0.4354937,9.116654,3.7423747,3
32580788180466,-0.43070808,9.131011,3.751946,3
32580790559268,-0.41156548,9.131011,3.7615173,3
32580792938122,-0.44027936,9.116654,3.7663028,3
32580795316976,-0.47856453,9.107083,3.751946,3
32580797695830,-0.4977071,9.12144,3.751946,3
32580800074685,-0.53599226,9.12144,3.7615173,3
32580802453487,-0.57906306,9.107083,3.7663028,3
32580804832341,-0.6269195,9.131011,3.751946,3
32580807211195,-0.66999036,9.12144,3.7567315,3
32580809590049,-0.70348984,9.111869,3.751946,3
32580811968851,-0.71306115,9.126225,3.7567315,3
32580814347705,-0.72263247,9.111869,3.7567315,3
32580816726560,-0.7322037,9.102298,3.7567315,3
32580819105414,-0.7369894,9.097511,3.7567315,3
32580821484216,-0.7178468,9.102298,3.7615173,3
32580823863070,-0.65084773,9.097511,3.751946,3
32580826241924,-0.63170516,9.08794,3.7615173,3
32580828620726,-0.5838487,9.083155,3.7710886,3
32580830999580,-0.5599205,9.102298,3.7758741,3
32580833378435,-0.5168497,9.08794,3.7663028,3
32580835757289,-0.4833502,9.073584,3.7615173,3
32580838136091,-0.4354937,9.102298,3.7663028,3
32580840514945,-0.4019942,9.126225,3.7663028,3
32580842893799,-0.37806597,9.126225,3.7806597,3
32580845272653,-0.40677986,9.12144,3.7806597,3
32580847651507,-0.38285163,9.131011,3.7854455,3
32580850030310,-0.37806597,9.145369,3.7758741,3
32580852409164,-0.4211368,9.126225,3.7806597,3
32580854788018,-0.42592242,9.131011,3.7806597,3
32580857166872,-0.4546363,9.145369,3.7806597,3
32580859545674,-0.47856453,9.135797,3.7998023,3
32580861924528,-0.526421,9.102298,3.7950168,3
32580864303382,-0.55513483,9.111869,3.790231,3
32580866682185,-0.5599205,9.097511,3.7854455,3
32580869061039,-0.57427746,9.064013,3.7758741,3
32580871439893,-0.57427746,9.078369,3.7758741,3
32580873818747,-0.5838487,9.059227,3.7758741,3
32580876197601,-0.57906306,9.059227,3.7663028,3
32580878576403,-0.59342,9.064013,3.7710886,3
32580880955205,-0.5694918,9.064013,3.751946,3
32580883334112,-0.5694918,9.064013,3.7663028,3
32580885712966,-0.5168497,9.078369,3.751946,3
32580888091768,-0.4977071,9.08794,3.7806597,3
32580890470622,-0.4881358,9.092726,3.7710886,3
32580892849476,-0.4642076,9.12144,3.7615173,3
32580895228330,-0.46899325,9.102298,3.7615173,3
32580897607132,-0.47377887,9.08794,3.7615173,3
32580899985987,-0.49292147,9.111869,3.7663028,3
32580902364841,-0.52163535,9.111869,3.7663028,3
32580904743695,-0.52163535,9.08794,3.7806597,3
32580907122497,-0.5455636,9.083155,3.7710886,3
32580909501351,-0.5838487,9.102298,3.7663028,3
32580911880205,-0.5886344,9.116654,3.7854455,3
32580914259060,-0.60777694,9.102298,3.790231,3
32580916637862,-0.64606214,9.083155,3.7663028,3
32580919016716,-0.6891329,9.107083,3.7615173,3
32580921395570,-0.6795616,9.092726,3.737589,3
32580923774424,-0.6939186,9.092726,3.751946,3
32580926153226,-0.6987042,9.073584,3.7328033,3
32580928532080,-0.6891329,9.073584,3.737589,3
32580930910935,-0.66041905,9.078369,3.7184465,3
32580933289789,-0.6364908,9.078369,3.737589,3
32580935668591,-0.6364908,9.059227,3.751946,3
32580938047445,-0.6221339,9.073584,3.7615173,3
32580940426299,-0.57427746,9.078369,3.7567315,3
32580942805153,-0.55513483,9.078369,3.7663028,3
32580945183955,-0.5312066,9.073584,3.7663028,3
32580947562810,-0.52163535,9.08794,3.7663028,3
32580949941664,-0.5168497,9.116654,3.7710886,3
32580952320518,-0.5168497,9.150154,3.7806597,3
32580954699320,-0.5168497,9.145369,3.7758741,3
32580957078174,-0.55034924,9.140582,3.7806597,3
32580959457028,-0.56470615,9.150154,3.7806597,3
32580961835882,-0.6029913,9.140582,3.790231,3
32580964214685,-0.6412765,9.12144,3.8093736,3
32580966593539,-0.66041905,9.116654,3.7950168,3
32580968972393,-0.6987042,9.092726,3.7758741,3
32580971351247,-0.7178468,9.102298,3.7710886,3
32580973730049,-0.72741807,9.092726,3.7758741,3
32580976108903,-0.7369894,9.092726,3.7758741,3
32580978487757,-0.76570326,9.073584,3.7663028,3
32580980866560,-0.7369894,9.102298,3.7663028,3
32580983245414,-0.7178468,9.097511,3.7710886,3
32580985624268,-0.7082755,9.111869,3.7710886,3
32580988003122,-0.6843473,9.08794,3.7663028,3
32580990381924,-0.65084773,9.092726,3.7806597,3
32580992760778,-0.61734825,9.097511,3.7567315,3
32580995139632,-0.59342,9.111869,3.7663028,3
32580997518487,-0.57906306,9.126225,3.7758741,3
32580999897341,-0.56470615,9.145369,3.7806597,3
32581002276143,-0.5694918,9.145369,3.7854455,3
32581004654997,-0.57906306,9.135797,3.7854455,3
32581007033851,-0.5599205,9.15494,3.804588,3
32581009412653,-0.5694918,9.159725,3.7854455,3
32581011791507,-0.6221339,9.150154,3.7854455,3
32581014170362,-0.64606214,9.15494,3.7950168,3
32581016549216,-0.6843473,9.15494,3.7710886,3
32581018928018,-0.7178468,9.159725,3.7854455,3
32581021306872,-0.71306115,9.150154,3.7615173,3
32581023685726,-0.72741807,9.126225,3.7567315,3
32581026064580,-0.74177504,9.116654,3.7663028,3
32581028443435,-0.7704889,9.111869,3.7567315,3
32581030822237,-0.7704889,9.102298,3.7615173,3
32581033201091,-0.7752745,9.073584,3.7471602,3
32581035579945,-0.75613195,9.068798,3.751946,3
32581037958799,-0.74177504,9.078369,3.737589,3
32581040337601,-0.71306115,9.08794,3.7328033,3
32581042716455,-0.6364908,9.078369,3.7471602,3
32581045095257,-0.6029913,9.083155,3.7423747,3
32581047474112,-0.5407779,9.083155,3.7471602,3
32581049852966,-0.5072784,9.08794,3.7423747,3
32581052231820,-0.49292147,9.083155,3.7471602,3
32581054610674,-0.4546363,9.116654,3.7423747,3
32581056989528,-0.3924229,9.107083,3.7471602,3
32581059368330,-0.39720857,9.102298,3.790231,3
32581061747185,-0.39720857,9.102298,3.7854455,3
32581064126039,-0.4019942,9.116654,3.7854455,3
32581066504893,-0.4211368,9.08794,3.7758741,3
32581068883695,-0.4642076,9.08794,3.7758741,3
32581071262549,-0.4881358,9.08794,3.790231,3
32581073641403,-0.5407779,9.083155,3.7758741,3
32581076020257,-0.57427746,9.083155,3.7806597,3
32581078399060,-0.59342,9.078369,3.7615173,3
32581080777914,-0.6221339,9.078369,3.7615173,3
32581083156768,-0.6556334,9.092726,3.7758741,3
32581085535622,-0.6652047,9.097511,3.7854455,3
32581087914424,-0.67477596,9.107083,3.7710886,3
32581090293278,-0.6891329,9.092726,3.7663028,3
32581092672132,-0.6795616,9.102298,3.7758741,3
32581095050935,-0.6939186,9.092726,3.7663028,3
32581097429789,-0.67477596,9.097511,3.7758741,3
32581099808643,-0.66041905,9.111869,3.7806597,3
32581102187497,-0.66041905,9.092726,3.804588,3
32581104566351,-0.63170516,9.097511,3.7854455,3
32581106945153,-0.61734825,9.111869,3.790231,3
32581109324007,-0.5982057,9.102298,3.7663028,3
32581111702862,-0.5886344,9.092726,3.7663028,3
32581114081716,-0.57906306,9.102298,3.7663028,3
32581116460518,-0.56470615,9.092726,3.7615173,3
32581118839372,-0.56470615,9.083155,3.7710886,3
32581121218226,-0.57906306,9.08794,3.7758741,3
32581123597028,-0.53599226,9.12144,3.7710886,3
32581125975882,-0.5599205,9.12144,3.7663028,3
32581128354737,-0.56470615,9.111869,3.7471602,3
32581130733591,-0.5838487,9.107083,3.7567315,3
32581133112445,-0.6269195,9.111869,3.7758741,3
32581135491247,-0.64606214,9.107083,3.7806597,3
32581137870101,-0.6652047,9.111869,3.7758741,3
32581140248955,-0.6795616,9.116654,3.7806597,3
32581142627757,-0.6843473,9.135797,3.7710886,3
32581145006612,-0.6795616,9.107083,3.7615173,3
32581147385466,-0.6652047,9.092726,3.751946,3
32581149764320,-0.6364908,9.092726,3.7615173,3
32581152143122,-0.61734825,9.102298,3.7758741,3
32581154521976,-0.61734825,9.083155,3.7758741,3
32581156900830,-0.5886344,9.102298,3.7663028,3
32581159279685,-0.57906306,9.107083,3.751946,3
32581161658487,-0.53599226,9.097511,3.737589,3
32581164037341,-0.526421,9.102298,3.751946,3
32581166416195,-0.4977071,9.116654,3.7328033,3
32581168795049,-0.4881358,9.102298,3.7328033,3
32581171173851,-0.4833502,9.097511,3.7280176,3
32581173552705,-0.4642076,9.102298,3.7184465,3
32581175931560,-0.4642076,9.116654,3.7423747,3
32581178310414,-0.4642076,9.116654,3.7280176,3
32581180689216,-0.47377887,9.107083,3.737589,3
32581183068070,-0.4977071,9.102298,3.723232,3
32581185446924,-0.52163535,9.116654,3.737589,3
32581187825778,-0.5312066,9.12144,3.7280176,3
32581190204580,-0.52163535,9.131011,3.7471602,3
32581192583435,-0.5599205,9.111869,3.7328033,3
32581194962289,-0.5982057,9.12144,3.723232,3
32581197341143,-0.61734825,9.145369,3.7136607,3
32581199719945,-0.6412765,9.126225,3.7423747,3
32581202098799,-0.65084773,9.135797,3.7567315,3
32581204477653,-0.6652047,9.135797,3.7423747,3
32581206856507,-0.64606214,9.131011,3.723232,3
32581209235310,-0.6412765,9.12144,3.7328033,3
32581211614164,-0.6412765,9.126225,3.7328033,3
32581213993018,-0.6269195,9.126225,3.7328033,3
32581216371872,-0.60777694,9.131011,3.7615173,3
32581218750726,-0.57906306,9.135797,3.7710886,3
32581221129528,-0.5694918,9.12144,3.751946,3
32581223508382,-0.57427746,9.145369,3.7663028,3
32581225887237,-0.55513483,9.12144,3.7567315,3
32581228266039,-0.5599205,9.111869,3.7615173,3
32581230644893,-0.55513483,9.111869,3.7471602,3
32581233023747,-0.5599205,9.068798,3.7328033,3
32581235402601,-0.53599226,9.064013,3.7328033,3
32581237781403,-0.5599205,9.059227,3.7328033,3
32581240160257,-0.5407779,9.049655,3.737589,3
32581242539112,-0.55513483,9.049655,3.7423747,3
32581244917966,-0.57427746,9.040084,3.737589,3
32581247296820,-0.57427746,9.025727,3.7471602,3
32581249675622,-0.5838487,9.035298,3.7471602,3
32581252054476,-0.5982057,9.040084,3.7471602,3
32581254433330,-0.6125626,9.059227,3.7423747,3
32581256812132,-0.5982057,9.064013,3.751946,3
32581259190987,-0.6269195,9.097511,3.7663028,3
32581261569841,-0.6412765,9.116654,3.7615173,3
32581263948695,-0.65084773,9.116654,3.7758741,3
32581266327497,-0.66041905,9.15494,3.790231,3
32581268706299,-0.66999036,9.164511,3.7998023,3
32581271085205,-0.67477596,9.174082,3.7998023,3
32581273464060,-0.6939186,9.183653,3.7998023,3
32581275842862,-0.6939186,9.188439,3.818945,3
32581278221716,-0.6843473,9.169296,3.818945,3
32581280600570,-0.7082755,9.178867,3.818945,3
32581282979424,-0.70348984,9.169296,3.790231,3
32581285358174,-0.6987042,9.178867,3.7758741,3
32581287737080,-0.6939186,9.164511,3.7710886,3
32581290115935,-0.6795616,9.150154,3.7615173,3
32581292494789,-0.64606214,9.131011,3.7758741,3
32581294873591,-0.6364908,9.107083,3.737589,3
32581297252445,-0.6269195,9.097511,3.723232,3
32581299631299,-0.59342,9.092726,3.723232,3
32581302010153,-0.5599205,9.083155,3.7280176,3
32581304388955,-0.5407779,9.064013,3.7088752,3
32581306767810,-0.5168497,9.059227,3.7328033,3
32581309146664,-0.5072784,9.068798,3.723232,3
32581311525518,-0.4977071,9.078369,3.723232,3
32581313904320,-0.5072784,9.083155,3.6993039,3
32581316283174,-0.49292147,9.097511,3.7088752,3
32581318662028,-0.5024927,9.102298,3.7280176,3
32581321040882,-0.52163535,9.092726,3.737589,3
32581323419685,-0.55513483,9.092726,3.7567315,3
32581325798539,-0.57906306,9.12144,3.7615173,3
32581328177393,-0.6221339,9.116654,3.7471602,3
32581330556195,-0.6412765,9.126225,3.7710886,3
32581332935049,-0.64606214,9.135797,3.7854455,3
32581335313903,-0.6987042,9.140582,3.7806597,3
32581337692757,-0.72741807,9.145369,3.7998023,3
32581340071612,-0.7322037,9.15494,3.804588,3
32581342450414,-0.72741807,9.140582,3.8093736,3
32581344829268,-0.7322037,9.126225,3.7998023,3
32581347208122,-0.6987042,9.135797,3.7950168,3
32581349586976,-0.67477596,9.126225,3.804588,3
32581351965778,-0.64606214,9.111869,3.7950168,3
32581354344632,-0.61734825,9.102298,3.7950168,3
32581356723487,-0.57427746,9.102298,3.8093736,3
32581359102289,-0.5407779,9.08794,3.8093736,3
32581361481143,-0.5024927,9.064013,3.7950168,3
32581363859997,-0.4354937,9.064013,3.790231,3
32581366238851,-0.37806597,9.068798,3.7758741,3
32581368617705,-0.3397808,9.035298,3.7806597,3
32581370996507,-0.32063824,9.040084,3.7854455,3
32581373375362,-0.3062813,9.016156,3.790231,3
32581375754216,-0.33020952,9.035298,3.7854455,3
32581378133018,-0.31106696,9.025727,3.7806597,3
32581380511872,-0.31106696,9.044869,3.7950168,3
32581382890726,-0.37328035,9.040084,3.8141594,3
32581385269580,-0.41635114,9.040084,3.8141594,3
32581387648435,-0.4546363,9.064013,3.8093736,3
32581390027237,-0.5024927,9.097511,3.8333018,3
32581392406091,-0.55034924,9.083155,3.8524444,3
32581394784945,-0.6125626,9.131011,3.8668015,3
32581397163747,-0.64606214,9.116654,3.8380876,3
32581399542601,-0.64606214,9.111869,3.8620157,3
32581401921455,-0.6891329,9.131011,3.8811584,3
32581404300310,-0.6843473,9.140582,3.900301,3
32581406679112,-0.72741807,9.169296,3.885944,3
32581409057966,-0.70348984,9.174082,3.9050865,3
32581411436820,-0.6891329,9.15494,3.9050865,3
32581413815674,-0.6556334,9.126225,3.9050865,3
32581416194476,-0.61734825,9.111869,3.8811584,3
32581418573330,-0.5886344,9.08794,3.8524444,3
32581420952185,-0.5312066,9.078369,3.8476589,3
32581423331039,-0.46899325,9.044869,3.8524444,3
32581425709841,-0.43070808,8.997013,3.842873,3
32581428088695,-0.37806597,8.963513,3.8380876,3
32581430467549,-0.3397808,8.953942,3.8237305,3
32581432846403,-0.3062813,8.953942,3.8285162,3
32581435225205,-0.2727818,8.944371,3.8333018,3
32581437604060,-0.2727818,8.953942,3.8285162,3
32581439982914,-0.26799613,8.949157,3.8476589,3
32581442361768,-0.31585258,8.958728,3.8380876,3
32581444740570,-0.3493521,8.973084,3.8285162,3
32581447119424,-0.36370903,8.977871,3.8524444,3
32581449498278,-0.43070808,9.025727,3.8572302,3
32581451877132,-0.4833502,9.044869,3.8668015,3
32581454255935,-0.55513483,9.049655,3.8572302,3
32581456634789,-0.6125626,9.092726,3.871587,3
32581459013643,-0.6987042,9.126225,3.8763726,3
32581461392497,-0.7609176,9.116654,3.8955152,3
32581463771299,-0.8135597,9.126225,3.9050865,3
32581466150101,-0.8566305,9.131011,3.9098723,3
32581468529007,-0.8805587,9.140582,3.9098723,3
32581470907862,-0.8757731,9.140582,3.8955152,3
32581473286664,-0.89013004,9.111869,3.8811584,3
32581475665518,-0.8757731,9.116654,3.885944,3
32581478044372,-0.8279166,9.107083,3.8668015,3
32581480423226,-0.7465607,9.107083,3.8572302,3
32581482802028,-0.6843473,9.107083,3.818945,3
32581485180882,-0.6125626,9.073584,3.818945,3
32581487559737,-0.5312066,9.059227,3.8093736,3
32581489938591,-0.47377887,9.068798,3.7950168,3
32581492317393,-0.44027936,9.030513,3.7950168,3
32581494696247,-0.37806597,9.035298,3.7806597,3
32581497075101,-0.3589234,9.044869,3.7663028,3
32581499453955,-0.35413775,9.020942,3.7567315,3
32581501832757,-0.33499518,9.044869,3.7615173,3
32581504211612,-0.3684947,9.049655,3.7471602,3
32581506590466,-0.42592242,9.049655,3.7471602,3
32581508969320,-0.47377887,9.059227,3.7567315,3
32581511348122,-0.5407779,9.083155,3.7663028,3
32581513726976,-0.60777694,9.102298,3.7710886,3
32581516105830,-0.6891329,9.102298,3.751946,3
32581518484685,-0.7800602,9.12144,3.7615173,3
32581520863487,-0.8422736,9.145369,3.7567315,3
32581523242341,-0.91884387,9.150154,3.7710886,3
32581525621195,-0.93320084,9.145369,3.7854455,3
32581528000049,-0.95712906,9.150154,3.7998023,3
32581530378851,-0.95712906,9.164511,3.7950168,3
32581532757705,-0.9284152,9.164511,3.7806597,3
32581535136560,-0.8997013,9.183653,3.7854455,3
32581537515362,-0.8662018,9.174082,3.7663028,3
32581539894216,-0.8135597,9.169296,3.7758741,3
32581542273070,-0.7369894,9.174082,3.7663028,3
32581544651924,-0.6556334,9.150154,3.7710886,3
32581547030726,-0.55513483,9.135797,3.7663028,3
32581549409580,-0.46899325,9.140582,3.7615173,3
32581551788435,-0.41156548,9.116654,3.7567315,3
32581554167289,-0.3684947,9.126225,3.7567315,3
32581556546091,-0.32063824,9.12144,3.751946,3
32581558924945,-0.29671,9.107083,3.7471602,3
32581561303799,-0.2632105,9.107083,3.7184465,3
32581563682653,-0.23449662,9.097511,3.7328033,3
32581566061455,-0.2632105,9.102298,3.7184465,3
32581568440310,-0.30149564,9.092726,3.7040894,3
32581570819164,-0.33499518,9.111869,3.723232,3
32581573198018,-0.37806597,9.12144,3.737589,3
32581575576820,-0.4354937,9.111869,3.7663028,3
32581577955674,-0.47856453,9.097511,3.7758741,3
32581580334528,-0.526421,9.08794,3.7950168,3
32581582713382,-0.6029913,9.131011,3.790231,3
32581585092185,-0.66041905,9.126225,3.7806597,3
32581587471039,-0.70348984,9.135797,3.7998023,3
32581589849893,-0.71306115,9.131011,3.7854455,3
32581592228747,-0.71306115,9.131011,3.7806597,3
32581594607549,-0.70348984,9.135797,3.790231,3
32581596986403,-0.6891329,9.116654,3.7854455,3
32581599365257,-0.66041905,9.12144,3.7758741,3
32581601744112,-0.61734825,9.107083,3.7950168,3
32581604122914,-0.5838487,9.107083,3.8093736,3
32581606501768,-0.5455636,9.116654,3.7950168,3
32581608880622,-0.4881358,9.08794,3.7950168,3
32581611259476,-0.41635114,9.083155,3.7854455,3
32581613638278,-0.37806597,9.068798,3.7663028,3
32581616017132,-0.36370903,9.083155,3.7710886,3
32581618395987,-0.3589234,9.073584,3.7758741,3
32581620774841,-0.36370903,9.073584,3.7806597,3
32581623153643,-0.3589234,9.068798,3.7663028,3
32581625532497,-0.37806597,9.064013,3.7471602,3
32581627911351,-0.40677986,9.073584,3.737589,3
32581630290205,-0.45942193,9.073584,3.751946,3
32581632669007,-0.4977071,9.059227,3.7615173,3
32581635047862,-0.55034924,9.078369,3.7615173,3
32581637426716,-0.57906306,9.102298,3.7806597,3
32581639805570,-0.6125626,9.102298,3.7806597,3
32581642184372,-0.6556334,9.126225,3.7806597,3
32581644563226,-0.66999036,9.131011,3.7710886,3
32581646942080,-0.7082755,9.159725,3.7806597,3
32581649320935,-0.72741807,9.159725,3.7758741,3
32581651699737,-0.71306115,9.15494,3.790231,3
32581654078591,-0.71306115,9.178867,3.7806597,3
32581656457445,-0.67477596,9.169296,3.7567315,3
32581658836299,-0.6364908,9.174082,3.7663028,3
32581661215101,-0.59342,9.193225,3.7471602,3
32581663593955,-0.5455636,9.178867,3.7328033,3
32581665972810,-0.4881358,9.38465,3.8620157,3
32581668351664,-0.3684947,9.255438,3.6083765,3
32581670730466,-0.3589234,9.044869,3.07717,3
32581673109320,-0.16271193,9.12144,2.9192436,3
32581675488174,-0.18664017,9.183653,3.3260236,3
32581677866976,-0.18664017,8.930014,3.991228,3
32581680245830,-0.13878371,8.896515,4.479364,3
32581682624685,-0.10049855,9.0544405,4.1778684,3
32581685003539,-0.16271193,9.145369,3.4839497,3
32581687382341,-0.11964113,9.169296,3.0245278,3
32581689761195,-0.14356937,9.298509,3.0580273,3
32581692140049,-0.34456646,9.332008,3.4217365,3
32581694518903,-0.4019942,9.140582,3.8141594,3
32581696897705,-0.44985065,9.131011,3.9816568,3
32581699276560,-0.5982057,9.303294,3.8141594,3
32581701655414,-0.6652047,9.241081,3.4887354,3
32581704034268,-0.6843473,9.212367,3.3116665,3
32581706413070,-0.7752745,9.317652,3.2829528,3
32581708791924,-0.8039884,9.288938,3.5030923,3
32581711170778,-0.7800602,9.164511,3.7854455,3
32581713549632,-0.80877405,9.226724,4.0151563,3
32581715928435,-0.7369894,9.260223,3.9338005,3
32581718307289,-0.65084773,9.164511,3.6610186,3
32581720686039,-0.57427746,9.178867,3.3547373,3
32581723064997,-0.52163535,9.250652,3.2925239,3
32581725443799,-0.43070808,9.145369,3.455236,3
32581727822653,-0.3684947,9.078369,3.7423747,3
32581730201507,-0.33020952,9.145369,3.885944,3
32581732580362,-0.23928227,9.150154,3.7998023,3
32581734959164,-0.18185452,9.097511,3.5892339,3
32581737338018,-0.15792629,9.159725,3.3643086,3
32581739716872,-0.148355,9.183653,3.330809,3
32581742095726,-0.13399807,9.035298,3.4217365,3
32581744474528,-0.16749759,8.82473,3.5700915,3
32581746853382,-0.22013968,8.843872,3.8620157,3
32581749232237,-0.30149564,9.135797,4.206582,3
32581751611091,-0.35413775,9.293723,4.019942,3
32581753989893,-0.5168497,9.212367,3.4887354,3
32581756368747,-0.5072784,9.092726,3.1633115,3
32581758747601,-0.53599226,9.265009,3.2446675,3
32581761126455,-0.7322037,9.336794,3.6753755,3
32581763505257,-0.7704889,9.111869,4.0677986,3
32581765884112,-0.7322037,9.040084,4.125226,3
32581768262966,-0.8135597,9.19801,3.7998023,3
32581770641820,-0.7896315,9.178867,3.546163,3
32581773020622,-0.6412765,9.049655,3.4839497,3
32581775399476,-0.64606214,9.107083,3.6131623,3
32581777778330,-0.65084773,9.159725,3.7567315,3
32581780157132,-0.55513483,9.035298,3.8572302,3
32581782535987,-0.5168497,9.092726,3.9146578,3
32581784914841,-0.4977071,9.164511,3.7950168,3
32581787293695,-0.44506502,9.044869,3.6658044,3
32581789672497,-0.41156548,9.044869,3.5030923,3
32581792051351,-0.37806597,9.12144,3.455236,3
32581794430205,-0.37806597,9.0544405,3.5270207,3
32581796809060,-0.41635114,9.006584,3.737589,3
32581799187862,-0.44985065,9.044869,3.8572302,3
32581801566716,-0.4833502,9.064013,3.8333018,3
32581803945570,-0.52163535,9.059227,3.6275191,3
32581806324424,-0.57906306,9.12144,3.4695928,3
32581808703226,-0.6125626,9.183653,3.4695928,3
32581811082080,-0.7082755,9.140582,3.5653057,3
32581813460935,-0.82313097,9.126225,3.6801612,3
32581815839789,-0.90448695,9.135797,3.7136607,3
32581818218591,-0.9523434,9.107083,3.6658044,3
32581820597445,-0.98584294,9.097511,3.5892339,3
32581822976299,-1.0193424,9.159725,3.5892339,3
32581825355153,-1.0097711,9.159725,3.6514473,3
32581827733955,-0.9619147,9.174082,3.751946,3
32581830112810,-0.9284152,9.226724,3.8141594,3
32581832491664,-0.8279166,9.288938,3.842873,3
32581834870518,-0.6939186,9.30808,3.8380876,3
32581837249320,-0.55513483,9.365508,3.7710886,3
32581839628174,-0.44027936,9.408579,3.7088752,3
32581842007028,-0.26799613,9.346365,3.694518,3
32581844385882,-0.11006984,9.332008,3.751946,3
32581846764685,0.038285162,9.336794,3.8093736,3
32581849143539,0.15792629,9.274581,3.8093736,3
32581851522393,0.31585258,9.188439,3.7806597,3
32581853901195,0.47377887,9.183653,3.6993039,3
32581856280049,0.55513483,9.178867,3.6323047,3
32581858658903,0.6364908,9.097511,3.6179478,3
32581861037757,0.66999036,9.068798,3.6370904,3
32581863416612,0.66999036,9.059227,3.6323047,3
32581865795414,0.5982057,8.968299,3.6179478,3
32581868174268,0.53599226,8.925228,3.5988052,3
32581870553122,0.3924229,8.939586,3.5605202,3
32581872931976,0.19621146,8.949157,3.5365918,3
32581875310778,0.023928227,8.920443,3.5270207,3
32581877689632,-0.15792629,8.963513,3.5892339,3
32581880068487,-0.37806597,9.044869,3.6753755,3
32581882447289,-0.55513483,9.0544405,3.7471602,3
32581884826143,-0.7704889,9.078369,3.7567315,3
32581887204997,-0.9379865,9.212367,3.7758741,3
32581889583851,-1.0719845,9.236296,3.7663028,3
32581891962653,-1.2203395,9.23151,3.7806597,3
32581894341507,-1.3208381,9.269794,3.8333018,3
32581896720362,-1.3926228,9.288938,3.8955152,3
32581899099216,-1.430908,9.236296,3.9577286,3
32581901478070,-1.430908,9.2075815,3.8955152,3
32581903856872,-1.430908,9.19801,3.7806597,3
32581906235726,-1.3160524,9.2075815,3.6801612,3
32581908614580,-1.268196,9.150154,3.6514473,3
32581910993382,-1.134198,9.12144,3.7710886,3
32581913372237,-0.971486,9.083155,3.900301,3
32581915751091,-0.8135597,9.030513,3.9338005,3
32581918129945,-0.6556334,9.016156,3.7950168,3
32581920508747,-0.51206404,9.030513,3.5892339,3
32581922887601,-0.37328035,9.01137,3.4456646,3
32581925266455,-0.2632105,9.001799,3.5030923,3
32581927645257,-0.18185452,9.044869,3.7088752,3
32581930024164,-0.15314065,9.025727,3.871587,3
32581932402966,-0.1052842,9.006584,3.8620157,3
32581934781820,-0.14356937,9.078369,3.7471602,3
32581937160674,-0.22492532,9.145369,3.6227336,3
32581939539476,-0.28235307,9.126225,3.5605202,3
32581941918330,-0.3924229,9.159725,3.603591,3
32581944297185,-0.526421,9.226724,3.6801612,3
32581946676039,-0.6412765,9.19801,3.7710886,3
32581949054841,-0.75613195,9.217153,3.8285162,3
32581951433695,-0.83748794,9.284152,3.8285162,3
32581953812549,-0.86141616,9.255438,3.737589,3
32581956191403,-0.7896315,9.221938,3.5988052,3
32581958570205,-0.72263247,9.265009,3.522235,3
32581960949060,-0.60777694,9.269794,3.5605202,3
32581963327914,-0.4354937,9.135797,3.6227336,3
32581965706768,-0.3062813,9.169296,3.7040894,3
32581968085570,-0.2009971,9.178867,3.7471602,3
32581970464424,-0.1052842,9.131011,3.6993039,3
32581972843278,-0.09092726,9.126225,3.574877,3
32581975222080,-0.07178468,9.169296,3.5318062,3
32581977600935,-0.086141616,9.159725,3.5270207,3
32581979979789,-0.11964113,9.092726,3.5892339,3
32581982358643,-0.2105684,9.150154,3.6466618,3
32581984737445,-0.2727818,9.178867,3.6514473,3
32581987116299,-0.3493521,9.159725,3.641876,3
32581989495153,-0.4642076,9.169296,3.6083765,3
32581991874007,-0.5599205,9.202796,3.5557344,3
32581994252862,-0.7082755,9.23151,3.6131623,3
32581996631664,-0.8039884,9.159725,3.6801612,3
32581999010518,-0.93320084,9.178867,3.7950168,3
32582001389372,-1.0241281,9.188439,3.8763726,3
32582003768174,-1.0671989,9.126225,3.8955152,3
32582006147028,-1.1006985,9.126225,3.8476589,3
32582008525882,-1.105484,9.15494,3.7088752,3
32582010904737,-1.0911272,9.135797,3.6227336,3
32582013283539,-1.0241281,9.078369,3.5509489,3
32582015662393,-0.971486,9.169296,3.7040894,3
32582018041247,-0.8757731,9.059227,3.9050865,3
32582020420101,-0.6843473,8.963513,3.952943,3
32582022798903,-0.6364908,9.064013,3.9290147,3
32582025177757,-0.47856453,9.025727,3.8141594,3
32582027556612,-0.30149564,8.973084,3.694518,3
32582029935466,-0.2536392,9.0544405,3.6131623,3
32582032314268,-0.18664017,9.102298,3.7040894,3
32582034693122,-0.124426775,9.0544405,3.9577286,3
32582037071976,-0.11006984,8.9826565,4.125226,3
32582039450830,-0.15314065,9.044869,4.1635113,3
32582041829632,-0.12921242,9.0544405,4.034299,3
32582044208487,-0.18664017,8.997013,3.7567315,3
32582046587341,-0.27756742,9.102298,3.603591,3
32582048966143,-0.41635114,9.15494,3.6849468,3
32582051344997,-0.4354937,9.049655,3.9673,3
32582053723851,-0.57427746,8.9826565,4.220939,3
32582056102705,-0.6221339,9.016156,4.3118663,3
32582058481560,-0.64606214,9.01137,4.106084,3
32582060860362,-0.66041905,9.044869,3.7136607,3
32582063239216,-0.7082755,9.08794,3.3930225,3
32582065618070,-0.7369894,9.126225,3.507878,3
32582067996872,-0.7369894,8.963513,3.8668015,3
32582070375726,-0.7465607,8.915657,4.2017965,3
32582072754580,-0.79441714,8.925228,4.240082,3
32582075133435,-0.7704889,8.977871,4.034299,3
32582077512237,-0.7609176,9.001799,3.5174494,3
32582079891091,-0.8135597,9.178867,3.2303107,3
32582082269945,-0.8757731,9.174082,3.4025939,3
32582084648799,-0.85184485,9.073584,3.885944,3
32582087027601,-0.95712906,9.073584,4.3740797,3
32582089406455,-0.90448695,9.102298,4.436293,3
32582091785310,-0.8662018,9.102298,3.8572302,3
32582094164164,-0.8279166,9.30808,3.2398818,3
32582096542966,-0.80877405,9.30808,3.0532417,3
32582098921820,-0.6843473,9.2793665,3.493521,3
32582101300674,-0.6843473,9.183653,4.1108694,3
32582103679528,-0.526421,9.049655,4.2017965,3
32582106058330,-0.5407779,9.169296,3.991228,3
32582108437185,-0.4354937,9.183653,3.751946,3
32582110816039,-0.3924229,9.193225,3.5509489,3
32582113194893,-0.38763726,9.159725,3.2685957,3
32582115573695,-0.39720857,9.202796,3.2925239,3
32582117952549,-0.40677986,9.188439,3.8141594,3
32582120331403,-0.3589234,8.949157,4.0534415,3
32582122710257,-0.5168497,9.145369,4.091727,3
32582125089060,-0.44985065,9.131011,3.8476589,3
32582127467914,-0.4211368,9.068798,3.5700915,3
32582129846768,-0.52163535,9.078369,3.3930225,3
32582132225570,-0.60777694,9.083155,3.7758741,3
32582134604424,-0.4881358,8.85823,4.2017965,3
32582136983278,-0.59342,8.863015,4.254439,3
32582139362132,-0.8279166,8.944371,4.082155,3
32582141740935,-0.72741807,8.877372,4.0007997,3
32582144119789,-0.7513463,8.848659,3.7136607,3
32582146498591,-0.9523434,9.092726,3.4313076,3
32582148877497,-0.9619147,9.040084,3.4169507,3
32582151256299,-0.8566305,8.944371,3.641876,3
32582153635153,-0.9667004,9.102298,3.952943,3
32582156014007,-0.93320084,9.078369,4.15394,3
32582158392862,-0.66999036,9.0544405,4.048656,3
32582160771664,-0.5168497,9.245867,3.6897326,3
32582163150518,-0.37806597,9.317652,3.330809,3
32582165529372,-0.124426775,9.30808,3.2877383,3
32582167908226,0.086141616,9.432507,3.4791641,3
32582170287028,0.2440679,9.470792,3.751946,3
32582172665882,0.4211368,9.336794,3.900301,3
32582175044737,0.4546363,9.336794,3.8333018,3
32582177423591,0.5168497,9.379865,3.5605202,3
32582179802393,0.5312066,9.298509,3.2446675,3
32582182181247,0.4211368,9.245867,3.1106694,3
32582184560101,0.19621146,9.303294,3.1776686,3
32582186938955,-0.014356935,9.193225,3.4025939,3
32582189317757,-0.31106696,9.111869,3.6370904,3
32582191696612,-0.66999036,9.178867,3.7088752,3
32582194075466,-0.9906286,9.19801,3.6131623,3
32582196454320,-1.2729816,9.135797,3.4600215,3
32582198833122,-1.6079768,9.193225,3.4073794,3
32582201211976,-1.8903298,9.212367,3.546163,3
32582203590778,-2.105684,9.083155,3.7998023,3
32582205969632,-2.2444677,9.083155,3.9864426,3
32582208348487,-2.2875385,9.150154,4.0151563,3
32582210727341,-2.201397,9.107083,3.9050865,3
32582213106195,-2.0003998,9.083155,3.7615173,3
32582215484997,-1.7754744,9.145369,3.6514473,3
32582217863851,-1.4835501,9.140582,3.7088752,3
32582220242705,-1.105484,9.016156,3.8620157,3
32582222621560,-0.7369894,9.035298,4.0007997,3
32582225000362,-0.37328035,9.040084,3.991228,3
32582227379216,-0.009571291,8.949157,3.8668015,3
32582229758070,0.3589234,8.9348,3.6993039,3
32582232136924,0.6125626,9.006584,3.6323047,3
32582234515726,0.82313097,8.968299,3.641876,3
32582236894580,0.9379865,8.925228,3.7471602,3
32582239273435,0.9906286,8.968299,3.8763726,3
32582241652289,0.89013004,9.016156,3.9146578,3
32582244031091,0.7465607,8.992228,3.8524444,3
32582246409945,0.4833502,9.064013,3.751946,3
32582248788799,0.17706887,9.145369,3.7088752,3
32582251167653,-0.18185452,9.135797,3.737589,3
32582253546455,-0.55034924,9.111869,3.8141594,3
32582255925310,-0.94277215,9.188439,3.9194436,3
32582258304164,-1.2921243,9.193225,3.9481573,3
32582260683018,-1.5888343,9.140582,3.8907297,3
32582263061820,-1.8376877,9.19801,3.818945,3
32582265440674,-2.0003998,9.241081,3.751946,3
32582267819528,-2.07697,9.19801,3.737589,3
32582270198382,-2.0578275,9.164511,3.7998023,3
32582272577185,-1.9573289,9.212367,3.8763726,3
32582274956039,-1.7611175,9.150154,3.871587,3
32582277334893,-1.5122639,9.083155,3.8237305,3
32582279713695,-1.2442678,9.078369,3.7040894,3
32582282092549,-0.9236295,9.102298,3.6370904,3
32582284471403,-0.5838487,9.044869,3.6227336,3
32582286850257,-0.25842485,9.006584,3.6610186,3
32582289229112,0.02871387,9.025727,3.7280176,3
32582291607914,0.29192436,9.006584,3.7710886,3
32582293986768,0.4881358,8.977871,3.751946,3
32582296365622,0.5838487,9.044869,3.6849468,3
32582298744424,0.63170516,9.064013,3.6370904,3
32582301123278,0.6029913,9.030513,3.6275191,3
32582303502132,0.5024927,9.078369,3.6370904,3
32582305880987,0.31585258,9.097511,3.7040894,3
32582308259789,0.07178468,9.073584,3.7423747,3
32582310638643,-0.2105684,9.107083,3.7471602,3
32582313017497,-0.5312066,9.183653,3.7184465,3
32582315396351,-0.8135597,9.188439,3.6801612,3
32582317775153,-1.0624132,9.183653,3.6610186,3
32582320154007,-1.3016955,9.2075815,3.723232,3
32582322532862,-1.4931214,9.217153,3.7663028,3
32582324911716,-1.6223338,9.202796,3.7950168,3
32582327290518,-1.6845472,9.217153,3.7806597,3
32582329669372,-1.6749759,9.23151,3.7184465,3
32582332048226,-1.6223338,9.217153,3.6658044,3
32582334427080,-1.4548361,9.178867,3.6514473,3
32582336805882,-1.282553,9.188439,3.6610186,3
32582339184737,-1.0719845,9.164511,3.6993039,3
32582341563591,-0.8662018,9.135797,3.7040894,3
32582343942445,-0.6221339,9.135797,3.6849468,3
32582346321247,-0.41156548,9.126225,3.641876,3
32582348700101,-0.19142582,9.102298,3.6131623,3
32582351078955,-0.019142581,9.078369,3.5892339,3
32582353457757,0.09092726,9.102298,3.6083765,3
32582355836612,0.16749759,9.097511,3.6370904,3
32582358215466,0.19142582,9.064013,3.6514473,3
32582360594320,0.15792629,9.102298,3.6610186,3
32582362973122,0.062213387,9.097511,3.6370904,3
32582365351976,-0.086141616,9.08794,3.6275191,3
32582367730830,-0.28235307,9.102298,3.6466618,3
32582370109685,-0.5168497,9.131011,3.656233,3
32582372488487,-0.71306115,9.111869,3.694518,3
32582374867341,-0.91405827,9.107083,3.737589,3
32582377246195,-1.0863415,9.126225,3.7567315,3
32582379625049,-1.2490535,9.145369,3.751946,3
32582382003851,-1.4069797,9.164511,3.7280176,3
32582384382705,-1.4596218,9.174082,3.7328033,3
32582386761560,-1.4787644,9.178867,3.7663028,3
32582389140414,-1.4835501,9.178867,3.7758741,3
32582391519216,-1.4261223,9.169296,3.7950168,3
32582393898070,-1.3208381,9.159725,3.790231,3
32582396276924,-1.18684,9.145369,3.7806597,3
32582398655778,-1.0624132,9.116654,3.7567315,3
32582401034580,-0.8997013,9.092726,3.751946,3
32582403413435,-0.74177504,9.111869,3.7567315,3
32582405792289,-0.60777694,9.107083,3.7710886,3
32582408171143,-0.44985065,9.078369,3.790231,3
32582410549945,-0.3397808,9.102298,3.790231,3
32582412928799,-0.25842485,9.097511,3.7854455,3
32582415307653,-0.22492532,9.083155,3.7758741,3
32582417686507,-0.22971097,9.078369,3.7567315,3
32582420065310,-0.26799613,9.092726,3.7758741,3
32582422444164,-0.32542387,9.064013,3.7806597,3
32582424823018,-0.4211368,9.097511,3.7950168,3
32582427201820,-0.5407779,9.131011,3.8093736,3
32582429580674,-0.6556334,9.102298,3.8141594,3
32582431959528,-0.7800602,9.097511,3.8141594,3
32582434338382,-0.8709874,9.12144,3.7950168,3
32582436717080,-0.93320084,9.135797,3.7950168,3
32582439096039,-0.9954142,9.111869,3.7998023,3
32582441474893,-1.0001999,9.111869,3.790231,3
32582443853747,-1.0336994,9.150154,3.7663028,3
32582446232549,-0.9810573,9.145369,3.7423747,3
32582448611403,-0.91405827,9.140582,3.7280176,3
32582450990257,-0.8327023,9.178867,3.6993039,3
32582453369112,-0.6987042,9.159725,3.694518,3
32582455747914,-0.57427746,9.159725,3.6897326,3
32582458126768,-0.44985065,9.159725,3.6849468,3
32582460505622,-0.34456646,9.159725,3.67059,3
32582462884476,-0.22013968,9.140582,3.656233,3
32582465263278,-0.11964113,9.159725,3.6179478,3
32582467642132,-0.076570325,9.159725,3.6083765,3
32582470020987,-0.05742774,9.159725,3.5892339,3
32582472399841,-0.0526421,9.150154,3.5988052,3
32582474778643,-0.124426775,9.188439,3.6083765,3
32582477157497,-0.18185452,9.217153,3.6083765,3
32582479536351,-0.2727818,9.2075815,3.6179478,3
32582481915205,-0.37328035,9.217153,3.603591,3
32582484294007,-0.4833502,9.226724,3.603591,3
32582486672862,-0.6029913,9.212367,3.6323047,3
32582489051716,-0.6891329,9.193225,3.6514473,3
32582491430570,-0.7609176,9.226724,3.6514473,3
32582493809372,-0.8279166,9.217153,3.6466618,3
32582496188226,-0.83748794,9.202796,3.656233,3
32582498567080,-0.89491564,9.183653,3.6514473,3
32582500945882,-0.8805587,9.159725,3.67059,3
32582503324737,-0.8327023,9.140582,3.7040894,3
32582505703591,-0.7896315,9.135797,3.6849468,3
32582508082445,-0.6939186,9.15494,3.7088752,3
32582510461247,-0.59342,9.169296,3.7280176,3
32582512840101,-0.51206404,9.150154,3.7136607,3
32582515218955,-0.40677986,9.135797,3.694518,3
32582517597810,-0.26799613,9.150154,3.6610186,3
32582519976612,-0.17706887,9.131011,3.6610186,3
32582522355466,-0.11006984,9.145369,3.6801612,3
32582524734320,-0.05742774,9.131011,3.7088752,3
32582527113174,-0.07178468,9.111869,3.7423747,3
32582529491976,-0.09571291,9.116654,3.751946,3
32582531870830,-0.15314065,9.12144,3.7328033,3
32582534249685,-0.2727818,9.12144,3.7471602,3
32582536628539,-0.37806597,9.126225,3.751946,3
32582539007341,-0.5168497,9.126225,3.7854455,3
32582541386195,-0.6939186,9.102298,3.8285162,3
32582543764997,-0.8566305,9.102298,3.871587,3
32582546143903,-0.9906286,9.102298,3.9146578,3
32582548522705,-1.1102697,9.08794,3.9242291,3
32582550901560,-1.2011969,9.111869,3.952943,3
32582553280414,-1.282553,9.107083,3.9816568,3
32582555659216,-1.3208381,9.116654,4.0151563,3
32582558038070,-1.3304094,9.073584,4.034299,3
32582560416924,-1.3160524,9.092726,4.048656,3
32582562795778,-1.268196,9.092726,4.0390844,3
32582565174580,-1.1772687,9.040084,4.019942,3
32582567553435,-1.0719845,9.025727,4.034299,3
32582569932289,-0.91405827,8.987442,4.063013,3
32582572311143,-0.76570326,8.9348,4.0677986,3
32582574689945,-0.59342,8.9348,4.0773697,3
32582577068799,-0.41156548,8.915657,4.0534415,3
32582579447653,-0.28713873,8.906086,4.005585,3
32582581826507,-0.15792629,8.896515,3.9625144,3
32582584205310,-0.02871387,8.891729,3.9625144,3
32582586584164,0.0,8.877372,3.9720855,3
32582588963018,0.019142581,8.872586,3.991228,3
32582591341872,0.038285162,8.85823,4.0103707,3
32582593720674,0.019142581,8.896515,3.9816568,3
32582596099528,-0.043070808,8.906086,3.938586,3
32582598478382,-0.11485548,8.906086,3.900301,3
32582600857237,-0.22013968,8.997013,3.9242291,3
32582603236039,-0.32542387,9.025727,3.9290147,3
32582605614893,-0.41635114,9.01137,3.871587,3
32582607993747,-0.5694918,9.059227,3.8333018,3
32582610372549,-0.6221339,9.0544405,3.804588,3
32582612751403,-0.6987042,9.064013,3.7854455,3
32582615130257,-0.7800602,9.107083,3.7950168,3
32582617509112,-0.80877405,9.140582,3.804588,3
32582619887966,-0.79920274,9.131011,3.7806597,3
32582622266768,-0.8135597,9.159725,3.7567315,3
32582624645622,-0.75613195,9.188439,3.7040894,3
32582627024476,-0.7082755,9.169296,3.6610186,3
32582629403278,-0.6652047,9.159725,3.6275191,3
32582631782132,-0.6029913,9.193225,3.6370904,3
32582634160987,-0.526421,9.19801,3.6514473,3
32582636539841,-0.4546363,9.169296,3.6370904,3
32582638918643,-0.40677986,9.183653,3.6370904,3
32582641297497,-0.38285163,9.212367,3.5940197,3
32582643676351,-0.3684947,9.202796,3.5605202,3
32582646055205,-0.36370903,9.164511,3.546163,3
32582648434007,-0.38285163,9.174082,3.5557344,3
32582650812862,-0.4211368,9.178867,3.5844483,3
32582653191716,-0.4546363,9.169296,3.5988052,3
32582655570570,-0.51206404,9.169296,3.574877,3
32582657949372,-0.55513483,9.164511,3.5605202,3
32582660328226,-0.59342,9.159725,3.5605202,3
32582662707080,-0.6412765,9.145369,3.5940197,3
32582665085935,-0.6939186,9.150154,3.6275191,3
32582667464737,-0.71306115,9.135797,3.6370904,3
32582669843591,-0.7178468,9.126225,3.6801612,3
32582672222445,-0.72263247,9.135797,3.6993039,3
32582674601299,-0.74177504,9.131011,3.6993039,3
32582676980101,-0.72263247,9.126225,3.694518,3
32582679358955,-0.6939186,9.131011,3.7136607,3
32582681737810,-0.65084773,9.092726,3.7423747,3
32582684116664,-0.5982057,9.059227,3.7806597,3
32582686495466,-0.53599226,9.059227,3.7854455,3
32582688874320,-0.4833502,9.068798,3.7758741,3
32582691253174,-0.4546363,9.064013,3.7758741,3
32582693631976,-0.41156548,9.049655,3.751946,3
32582696010830,-0.3924229,9.064013,3.7710886,3
32582698389685,-0.3684947,9.064013,3.7806597,3
32582700768539,-0.37328035,9.040084,3.8093736,3
32582703147341,-0.3684947,9.020942,3.8333018,3
32582705526195,-0.39720857,9.030513,3.8476589,3
32582707905049,-0.42592242,9.030513,3.8285162,3
32582710283903,-0.4642076,9.040084,3.8141594,3
32582712662705,-0.51206404,9.040084,3.8093736,3
32582715041560,-0.526421,9.035298,3.8141594,3
32582717420414,-0.5694918,9.049655,3.8237305,3
32582719799268,-0.5694918,9.049655,3.842873,3
32582722178070,-0.57427746,9.044869,3.8524444,3
32582724556924,-0.56470615,9.0544405,3.8380876,3
32582726935778,-0.56470615,9.064013,3.8093736,3
32582729314632,-0.5312066,9.083155,3.7854455,3
32582731693435,-0.4881358,9.073584,3.7950168,3
32582734072289,-0.47856453,9.073584,3.790231,3
32582736451143,-0.42592242,9.0544405,3.7806597,3
32582738829997,-0.36370903,9.068798,3.7854455,3
32582741208799,-0.33499518,9.083155,3.7854455,3
32582743587653,-0.3062813,9.08794,3.751946,3
32582745966507,-0.2727818,9.102298,3.7567315,3
32582748345362,-0.24885355,9.08794,3.737589,3
32582750724164,-0.22971097,9.068798,3.7423747,3
32582753103018,-0.2440679,9.097511,3.7471602,3
32582755481872,-0.26799613,9.092726,3.7423747,3
32582757860674,-0.33499518,9.097511,3.723232,3
32582760239528,-0.3589234,9.08794,3.7280176,3
32582762618382,-0.44027936,9.15494,3.7471602,3
32582764997237,-0.4881358,9.174082,3.7758741,3
32582767376039,-0.55513483,9.126225,3.790231,3
32582769754893,-0.6364908,9.140582,3.804588,3
32582772133747,-0.6891329,9.164511,3.7854455,3
32582774512601,-0.7465607,9.178867,3.7567315,3
32582776891403,-0.7896315,9.188439,3.7423747,3
32582779270257,-0.80877405,9.178867,3.7471602,3
32582781649112,-0.8327023,9.164511,3.7615173,3
32582784027966,-0.8135597,9.169296,3.7806597,3
32582786406768,-0.7896315,9.15494,3.7615173,3
32582788785622,-0.75613195,9.150154,3.7423747,3
32582791164476,-0.72263247,9.150154,3.7088752,3
32582793543330,-0.64606214,9.116654,3.7088752,3
32582795922132,-0.5838487,9.08794,3.6993039,3
32582798300987,-0.55034924,9.059227,3.7040894,3
32582800679841,-0.49292147,9.068798,3.7184465,3
32582803058695,-0.42592242,9.064013,3.7136607,3
32582805437497,-0.38285163,9.068798,3.6897326,3
32582807816351,-0.32542387,9.078369,3.6753755,3
32582810195205,-0.31106696,9.116654,3.6610186,3
32582812574007,-0.32063824,9.107083,3.656233,3
32582814952810,-0.32063824,9.092726,3.6753755,3
32582817331716,-0.36370903,9.116654,3.6993039,3
32582819710570,-0.42592242,9.15494,3.7040894,3
32582822089372,-0.46899325,9.202796,3.7184465,3
32582824468226,-0.5407779,9.212367,3.6993039,3
32582826847080,-0.5599205,9.212367,3.6849468,3
32582829225935,-0.61734825,9.193225,3.6801612,3
32582831604737,-0.66041905,9.169296,3.6897326,3
32582833983591,-0.7082755,9.193225,3.7040894,3
32582836362445,-0.71306115,9.178867,3.7280176,3
32582838741299,-0.72741807,9.174082,3.7040894,3
32582841120101,-0.75613195,9.193225,3.694518,3
32582843498955,-0.7465607,9.202796,3.6897326,3
32582845877810,-0.72263247,9.193225,3.67059,3
32582848256664,-0.6939186,9.193225,3.6753755,3
32582850635466,-0.67477596,9.183653,3.7184465,3
32582853014320,-0.64606214,9.150154,3.7040894,3
32582855393122,-0.6029913,9.126225,3.7280176,3
32582857772028,-0.59342,9.140582,3.723232,3
32582860150830,-0.5407779,9.145369,3.7088752,3
32582862529685,-0.4881358,9.12144,3.7040894,3
32582864908539,-0.4642076,9.092726,3.723232,3
32582867287341,-0.44027936,9.073584,3.7423747,3
32582869666195,-0.40677986,9.064013,3.7615173,3
32582872045049,-0.40677986,9.068798,3.7567315,3
32582874423903,-0.40677986,9.068798,3.7663028,3
32582876802705,-0.41635114,9.064013,3.751946,3
32582879181560,-0.4354937,9.068798,3.7710886,3
32582881560414,-0.45942193,9.097511,3.7806597,3
32582883939268,-0.5072784,9.083155,3.7998023,3
32582886318070,-0.4977071,9.064013,3.8093736,3
32582888696924,-0.51206404,9.064013,3.8141594,3
32582891075778,-0.53599226,9.064013,3.8093736,3
32582893454632,-0.5599205,9.049655,3.818945,3
32582895833435,-0.5694918,9.035298,3.8285162,3
32582898212289,-0.55513483,9.068798,3.8237305,3
32582900591143,-0.55034924,9.040084,3.8285162,3
32582902969997,-0.5455636,9.025727,3.8285162,3
32582905348799,-0.526421,9.030513,3.8141594,3
32582907727653,-0.5168497,9.0544405,3.7950168,3
32582910106507,-0.5312066,9.068798,3.7950168,3
32582912485310,-0.53599226,9.073584,3.804588,3
32582914864164,-0.52163535,9.068798,3.7950168,3
32582917242966,-0.51206404,9.068798,3.7854455,3
32582919621872,-0.52163535,9.078369,3.7806597,3
32582922000674,-0.5407779,9.078369,3.790231,3
32582924379528,-0.55034924,9.092726,3.7758741,3
32582926758382,-0.5455636,9.102298,3.7758741,3
32582929137237,-0.5599205,9.102298,3.7663028,3
32582931516091,-0.5694918,9.131011,3.7758741,3
32582933894893,-0.57906306,9.102298,3.7567315,3
32582936273747,-0.57906306,9.102298,3.7471602,3
32582938652601,-0.5886344,9.116654,3.737589,3
32582941031455,-0.5838487,9.116654,3.7423747,3
32582943410257,-0.57906306,9.131011,3.7328033,3
32582945789112,-0.5886344,9.135797,3.7280176,3
32582948167914,-0.61734825,9.15494,3.7184465,3
32582950546820,-0.61734825,9.159725,3.7328033,3
32582952925622,-0.59342,9.15494,3.7280176,3
32582955304476,-0.6029913,9.164511,3.7280176,3
32582957683330,-0.57427746,9.164511,3.7328033,3
32582960062132,-0.5886344,9.15494,3.723232,3
32582962440987,-0.5694918,9.159725,3.7184465,3
32582964819841,-0.5599205,9.169296,3.7088752,3
32582967198695,-0.5455636,9.150154,3.7040894,3
32582969577497,-0.52163535,9.140582,3.6993039,3
32582971956351,-0.51206404,9.150154,3.6753755,3
32582974335205,-0.51206404,9.15494,3.6658044,3
32582976714060,-0.5072784,9.140582,3.6610186,3
32582979092862,-0.4977071,9.150154,3.656233,3
32582981471716,-0.526421,9.159725,3.6323047,3
32582983850518,-0.5312066,9.145369,3.6514473,3
32582986229424,-0.55034924,9.164511,3.6466618,3
32582988608226,-0.57906306,9.164511,3.6275191,3
32582990987080,-0.60777694,9.15494,3.641876,3
32582993365935,-0.6412765,9.164511,3.641876,3
32582995744737,-0.65084773,9.19801,3.6466618,3
32582998123591,-0.64606214,9.174082,3.6370904,3
32583000502445,-0.6412765,9.169296,3.6514473,3
32583002881299,-0.64606214,9.174082,3.641876,3
32583005260101,-0.6556334,9.174082,3.6514473,3
32583007638955,-0.63170516,9.193225,3.6658044,3
32583010017810,-0.6556334,9.174082,3.6753755,3
32583012396664,-0.6652047,9.178867,3.6610186,3
32583014775518,-0.64606214,9.169296,3.656233,3
32583017154320,-0.64606214,9.164511,3.6610186,3
32583019533174,-0.6412765,9.150154,3.6753755,3
32583021912028,-0.6364908,9.126225,3.6753755,3
32583024290830,-0.63170516,9.15494,3.6801612,3
32583026669685,-0.65084773,9.150154,3.6993039,3
32583029048539,-0.6364908,9.150154,3.694518,3
32583031427393,-0.63170516,9.150154,3.694518,3
32583033806195,-0.65084773,9.131011,3.6993039,3
32583036185049,-0.6843473,9.111869,3.694518,3
32583038563903,-0.7082755,9.107083,3.6993039,3
32583040942757,-0.7513463,9.107083,3.7040894,3
32583043321560,-0.7752745,9.08794,3.7136607,3
32583045700414,-0.7848458,9.107083,3.7088752,3
32583048079268,-0.8279166,9.116654,3.7040894,3
32583050458122,-0.85184485,9.111869,3.6897326,3
32583052836924,-0.8805587,9.107083,3.6897326,3
32583055215778,-0.90448695,9.116654,3.6801612,3
32583057594632,-0.91405827,9.107083,3.6801612,3
32583059973487,-0.91884387,9.102298,3.6897326,3
32583062352289,-0.8997013,9.102298,3.6801612,3
32583064731143,-0.91405827,9.12144,3.694518,3
32583067109997,-0.8662018,9.140582,3.6993039,3
32583069488799,-0.8135597,9.15494,3.694518,3
32583071867653,-0.7704889,9.145369,3.6753755,3
32583074246507,-0.7513463,9.140582,3.656233,3
32583076625362,-0.6843473,9.150154,3.6753755,3
32583079004216,-0.63170516,9.159725,3.6993039,3
32583081383018,-0.59342,9.159725,3.694518,3
32583083761872,-0.57427746,9.169296,3.6849468,3
32583086140726,-0.5407779,9.15494,3.6753755,3
32583088519528,-0.51206404,9.135797,3.6658044,3
32583090898382,-0.4977071,9.131011,3.6610186,3
32583093277237,-0.4977071,9.150154,3.7040894,3
32583095656091,-0.4977071,9.164511,3.723232,3
32583098034893,-0.51206404,9.140582,3.737589,3
32583100413747,-0.55034924,9.135797,3.7184465,3
32583102792601,-0.5982057,9.12144,3.7184465,3
32583105171455,-0.6556334,9.131011,3.7136607,3
32583107550257,-0.6939186,9.131011,3.7184465,3
32583109929112,-0.7465607,9.135797,3.7136607,3
32583112307966,-0.7800602,9.150154,3.7184465,3
32583114686820,-0.80877405,9.140582,3.7184465,3
32583117065622,-0.8662018,9.145369,3.694518,3
32583119444476,-0.89491564,9.145369,3.67059,3
32583121823330,-0.9092726,9.15494,3.6801612,3
32583124202185,-0.90448695,9.135797,3.6801612,3
32583126580987,-0.8805587,9.126225,3.6897326,3
32583128959841,-0.86141616,9.116654,3.7040894,3
32583131338695,-0.8422736,9.102298,3.7040894,3
32583133717497,-0.79920274,9.116654,3.7136607,3
32583136096351,-0.7465607,9.12144,3.7136607,3
32583138475205,-0.6987042,9.135797,3.6993039,3
32583140854060,-0.63170516,9.140582,3.6849468,3
32583143232862,-0.5886344,9.111869,3.7136607,3
32583145611716,-0.55034924,9.126225,3.7040894,3
32583147990570,-0.5024927,9.107083,3.6849468,3
32583150369424,-0.49292147,9.140582,3.694518,3
32583152748226,-0.4642076,9.145369,3.6897326,3
32583155127080,-0.4642076,9.145369,3.6897326,3
32583157505935,-0.47377887,9.131011,3.6849468,3
32583159884789,-0.49292147,9.12144,3.67059,3
32583162263591,-0.49292147,9.145369,3.67059,3
32583164642445,-0.53599226,9.164511,3.6897326,3
32583167021299,-0.5599205,9.126225,3.7040894,3
32583169400153,-0.56470615,9.126225,3.6897326,3
32583171778955,-0.5838487,9.08794,3.67059,3
32583174157810,-0.5886344,9.092726,3.6801612,3
32583176536664,-0.60777694,9.111869,3.6849468,3
32583178915518,-0.63170516,9.111869,3.6753755,3
32583181294320,-0.6412765,9.107083,3.6897326,3
32583183673174,-0.6556334,9.092726,3.7040894,3
32583186052028,-0.63170516,9.08794,3.694518,3
32583188430830,-0.6221339,9.102298,3.7040894,3
32583190809685,-0.6221339,9.102298,3.6897326,3
32583193188539,-0.61734825,9.135797,3.7088752,3
32583195567393,-0.60777694,9.140582,3.7280176,3
32583197946247,-0.6269195,9.116654,3.737589,3
32583200325049,-0.6221339,9.097511,3.7471602,3
32583202703903,-0.6125626,9.111869,3.7471602,3
32583205082757,-0.6412765,9.102298,3.7471602,3
32583207461560,-0.6652047,9.111869,3.7471602,3
32583209840414,-0.6939186,9.126225,3.7567315,3
32583212219268,-0.72741807,9.150154,3.7615173,3
32583214598122,-0.74177504,9.150154,3.7710886,3
32583216976924,-0.76570326,9.135797,3.7710886,3
32583219355778,-0.80877405,9.150154,3.7806597,3
32583221734632,-0.8470592,9.131011,3.804588,3
32583224113487,-0.8757731,9.116654,3.8093736,3
32583226492289,-0.8662018,9.08794,3.7758741,3
32583228871143,-0.89013004,9.116654,3.7758741,3
32583231249997,-0.8805587,9.12144,3.751946,3
32583233628851,-0.8566305,9.111869,3.7567315,3
32583236007653,-0.8327023,9.08794,3.7663028,3
32583238386507,-0.8135597,9.078369,3.7567315,3
32583240765362,-0.80877405,9.0544405,3.7328033,3
32583243144216,-0.76570326,9.030513,3.7184465,3
32583245523018,-0.70348984,9.044869,3.723232,3
32583247901872,-0.64606214,9.064013,3.723232,3
32583250280726,-0.5838487,9.0544405,3.7280176,3
32583252659580,-0.55513483,9.073584,3.7280176,3
32583255038382,-0.52163535,9.078369,3.751946,3
32583257417237,-0.5024927,9.083155,3.7328033,3
32583259796091,-0.4977071,9.092726,3.723232,3
32583262174893,-0.47856453,9.097511,3.737589,3
32583264553747,-0.5024927,9.111869,3.7423747,3
32583266932601,-0.526421,9.126225,3.7663028,3
32583269311455,-0.5455636,9.135797,3.7567315,3
32583271690257,-0.57427746,9.131011,3.7710886,3
32583274069112,-0.6221339,9.140582,3.7615173,3
32583276447966,-0.6795616,9.12144,3.7423747,3
32583278826820,-0.6891329,9.135797,3.737589,3
32583281205622,-0.72741807,9.135797,3.737589,3
32583283584476,-0.7848458,9.111869,3.7567315,3
32583285963330,-0.82313097,9.12144,3.7854455,3
32583288342185,-0.8470592,9.131011,3.7854455,3
32583290720987,-0.86141616,9.135797,3.7758741,3
32583293099841,-0.8709874,9.116654,3.7615173,3
32583295478695,-0.8566305,9.116654,3.7663028,3
32583297857549,-0.8422736,9.126225,3.7567315,3
32583300236351,-0.79441714,9.092726,3.7663028,3
32583302615205,-0.7896315,9.083155,3.7854455,3
32583304994060,-0.7609176,9.083155,3.790231,3
32583307372914,-0.7322037,9.083155,3.8093736,3
32583309751716,-0.6987042,9.08794,3.7998023,3
32583312130570,-0.67477596,9.078369,3.7854455,3
32583314509424,-0.64606214,9.078369,3.7806597,3
32583316888278,-0.6269195,9.068798,3.7806597,3
32583319267080,-0.63170516,9.040084,3.7950168,3
32583321645935,-0.6412765,9.044869,3.804588,3
32583324024789,-0.6652047,9.040084,3.8333018,3
32583326403643,-0.64606214,9.059227,3.818945,3
32583328782445,-0.6412765,9.0544405,3.7998023,3
32583331161299,-0.65084773,9.035298,3.7950168,3
32583333540153,-0.65084773,9.030513,3.7950168,3
32583335919007,-0.66041905,9.044869,3.818945,3
32583338297810,-0.67477596,9.035298,3.8333018,3
32583340676664,-0.6795616,9.016156,3.8285162,3
32583343055518,-0.66041905,9.025727,3.8285162,3
32583345434320,-0.67477596,9.030513,3.818945,3
32583347813174,-0.65084773,9.030513,3.7854455,3
32583350192028,-0.63170516,9.044869,3.7806597,3
32583352570882,-0.5838487,9.049655,3.7854455,3
32583354949685,-0.59342,9.044869,3.804588,3
32583357328539,-0.5838487,9.059227,3.804588,3
32583359707393,-0.5455636,9.083155,3.818945,3
32583362086247,-0.51206404,9.08794,3.804588,3
32583364465049,-0.4977071,9.092726,3.7854455,3
32583366843903,-0.5024927,9.116654,3.7663028,3
32583369222757,-0.5024927,9.12144,3.7758741,3
32583371601612,-0.51206404,9.111869,3.7806597,3
32583373980414,-0.4977071,9.111869,3.7758741,3
32583376359268,-0.5072784,9.140582,3.7615173,3
32583378738122,-0.52163535,9.140582,3.7471602,3
32583381116976,-0.526421,9.145369,3.751946,3
32583383495778,-0.55513483,9.15494,3.737589,3
32583385874632,-0.5694918,9.15494,3.7328033,3
32583388253487,-0.6221339,9.150154,3.7280176,3
32583390632341,-0.63170516,9.140582,3.7423747,3
32583393011143,-0.64606214,9.164511,3.723232,3
32583395389997,-0.64606214,9.169296,3.694518,3
32583397768851,-0.6795616,9.174082,3.6993039,3
32583400147705,-0.6556334,9.159725,3.7088752,3
32583402526507,-0.6412765,9.15494,3.7040894,3
32583404905362,-0.61734825,9.15494,3.694518,3
32583407284216,-0.57427746,9.145369,3.6897326,3
32583409663070,-0.53599226,9.140582,3.694518,3
32583412041872,-0.4833502,9.126225,3.6897326,3
32583414420726,-0.46899325,9.116654,3.6993039,3
32583416799580,-0.40677986,9.126225,3.7136607,3
32583419178382,-0.38763726,9.126225,3.694518,3
32583421557237,-0.3589234,9.12144,3.7040894,3
32583423936091,-0.33020952,9.097511,3.7040894,3
32583426314945,-0.32063824,9.116654,3.7423747,3
32583428693747,-0.3397808,9.102298,3.7328033,3
32583431072601,-0.3493521,9.102298,3.7280176,3
32583433451455,-0.37328035,9.107083,3.7471602,3
32583435830310,-0.41156548,9.126225,3.7471602,3
32583438209112,-0.4354937,9.126225,3.7663028,3
32583440587966,-0.4881358,9.145369,3.7854455,3
32583442966820,-0.55034924,9.102298,3.790231,3
32583445345674,-0.6029913,9.102298,3.7806597,3
32583447724476,-0.6125626,9.097511,3.7758741,3
32583450103330,-0.64606214,9.107083,3.790231,3
32583452482185,-0.6652047,9.140582,3.7950168,3
32583454861039,-0.6652047,9.107083,3.7854455,3
32583457239841,-0.67477596,9.092726,3.7710886,3
32583459618695,-0.65084773,9.068798,3.751946,3
32583461997549,-0.63170516,9.083155,3.7328033,3
32583464376403,-0.6029913,9.092726,3.7280176,3
32583466755205,-0.55513483,9.08794,3.7184465,3
32583469134060,-0.49292147,9.092726,3.6993039,3
32583471512914,-0.4546363,9.059227,3.6753755,3
32583473891716,-0.43070808,9.064013,3.6849468,3
32583476270570,-0.4019942,9.064013,3.6849468,3
32583478649424,-0.39720857,9.083155,3.6849468,3
32583481028278,-0.3684947,9.059227,3.6801612,3
32583483407080,-0.3684947,9.102298,3.6801612,3
32583485785935,-0.4019942,9.116654,3.7280176,3
32583488164789,-0.41635114,9.131011,3.751946,3
32583490543643,-0.4546363,9.135797,3.7615173,3
32583492922445,-0.4977071,9.15494,3.751946,3
32583495301299,-0.5694918,9.150154,3.7567315,3
32583497680153,-0.61734825,9.150154,3.7567315,3
32583500059007,-0.6987042,9.174082,3.7710886,3
32583502437810,-0.76570326,9.15494,3.790231,3
32583504816664,-0.82313097,9.150154,3.818945,3
32583507195518,-0.8470592,9.126225,3.7998023,3
32583509574372,-0.8757731,9.126225,3.7806597,3
32583511953174,-0.8997013,9.12144,3.7806597,3
32583514332028,-0.8997013,9.131011,3.7806597,3
32583516710882,-0.8757731,9.102298,3.7663028,3
32583519089737,-0.8805587,9.083155,3.7806597,3
32583521468539,-0.83748794,9.08794,3.7710886,3
32583523847393,-0.81834537,9.064013,3.790231,3
32583526226247,-0.76570326,9.083155,3.7710886,3
32583528605101,-0.6891329,9.049655,3.7710886,3
32583530983903,-0.6029913,9.0544405,3.751946,3
32583533362757,-0.53599226,9.068798,3.7615173,3
32583535741612,-0.47377887,9.049655,3.7710886,3
32583538120466,-0.4211368,9.035298,3.7663028,3
32583540499268,-0.36370903,9.064013,3.7950168,3
32583542878122,-0.3397808,9.064013,3.804588,3
32583545256976,-0.32063824,9.078369,3.7854455,3
32583547635778,-0.33020952,9.059227,3.7758741,3
32583550014632,-0.32542387,9.068798,3.7710886,3
32583552393487,-0.33020952,9.083155,3.7615173,3
32583554772341,-0.3397808,9.08794,3.7471602,3
32583557151143,-0.4019942,9.107083,3.737589,3
32583559529997,-0.44027936,9.107083,3.751946,3
32583561908851,-0.5024927,9.12144,3.7328033,3
32583564287705,-0.5407779,9.140582,3.7280176,3
32583566666507,-0.61734825,9.150154,3.737589,3
32583569045362,-0.66041905,9.15494,3.7040894,3
32583571424216,-0.71306115,9.140582,3.7184465,3
32583573803070,-0.7465607,9.140582,3.7040894,3
32583576181872,-0.7513463,9.169296,3.7040894,3
32583578560726,-0.75613195,9.150154,3.694518,3
32583580939580,-0.7178468,9.145369,3.656233,3
32583583318435,-0.6987042,9.169296,3.6753755,3
32583585697237,-0.66041905,9.145369,3.67059,3
32583588076091,-0.63170516,9.150154,3.6514473,3
32583590454945,-0.6029913,9.140582,3.6466618,3
32583592833799,-0.5455636,9.140582,3.6323047,3
32583595212601,-0.49292147,9.140582,3.6179478,3
32583597591455,-0.41635114,9.135797,3.6275191,3
32583599970310,-0.40677986,9.135797,3.6227336,3
32583602349164,-0.38285163,9.135797,3.6370904,3
32583604727966,-0.37806597,9.169296,3.6610186,3
32583607106820,-0.3924229,9.178867,3.67059,3
32583609485674,-0.4019942,9.159725,3.6801612,3
32583611864528,-0.43070808,9.12144,3.7040894,3
32583614243330,-0.4881358,9.126225,3.7184465,3
32583616622185,-0.526421,9.145369,3.7184465,3
32583619001039,-0.5838487,9.131011,3.7328033,3
32583621379841,-0.6269195,9.135797,3.7615173,3
32583623758695,-0.66999036,9.140582,3.7710886,3
32583626137549,-0.7178468,9.135797,3.7806597,3
32583628516403,-0.7609176,9.097511,3.7806597,3
32583630895205,-0.7896315,9.12144,3.804588,3
32583633274060,-0.8279166,9.08794,3.8093736,3
32583635652914,-0.8422736,9.097511,3.8093736,3
32583638031768,-0.8279166,9.107083,3.818945,3
32583640410570,-0.8039884,9.08794,3.8524444,3
32583642789424,-0.7609176,9.102298,3.8668015,3
32583645168278,-0.7322037,9.111869,3.8524444,3
32583647547132,-0.6652047,9.097511,3.8620157,3
32583649925935,-0.61734825,9.078369,3.8476589,3
32583652304789,-0.55513483,9.059227,3.8476589,3
32583654683643,-0.5024927,9.0544405,3.8333018,3
32583657062497,-0.47856453,9.044869,3.818945,3
32583659441299,-0.44506502,9.035298,3.8093736,3
32583661820153,-0.4211368,9.020942,3.8237305,3
32583664199007,-0.4019942,9.0544405,3.7998023,3
32583666577862,-0.4019942,9.049655,3.790231,3
32583668956664,-0.41156548,9.059227,3.7710886,3
32583671335518,-0.43070808,9.0544405,3.7615173,3
32583673714372,-0.47856453,9.073584,3.7471602,3
32583676093174,-0.5407779,9.097511,3.7280176,3
32583678472028,-0.57906306,9.083155,3.7184465,3
32583680850882,-0.63170516,9.111869,3.7088752,3
32583683229737,-0.6795616,9.111869,3.6897326,3
32583685608591,-0.70348984,9.12144,3.67059,3
32583687987393,-0.7322037,9.145369,3.6610186,3
32583690366247,-0.7609176,9.164511,3.6514473,3
32583692745101,-0.79920274,9.183653,3.641876,3
32583695123955,-0.7896315,9.202796,3.6083765,3
32583697502705,-0.7896315,9.241081,3.5892339,3
32583699881612,-0.7896315,9.274581,3.5796626,3
32583702260466,-0.7609176,9.255438,3.5605202,3
32583704639268,-0.71306115,9.274581,3.5174494,3
32583707018122,-0.6795616,9.303294,3.493521,3
32583709396976,-0.66999036,9.30808,3.4839497,3
32583711775830,-0.64606214,9.298509,3.4600215,3
32583714154580,-0.5694918,9.303294,3.4504502,3
32583716533487,-0.5455636,9.30808,3.4169507,3
32583718912341,-0.53599226,9.317652,3.4121652,3
32583721291195,-0.51206404,9.317652,3.3690944,3
32583723669997,-0.45942193,9.293723,3.359523,3
32583726048851,-0.42592242,9.298509,3.3499517,3
32583728427705,-0.40677986,9.303294,3.3834512,3
32583730806560,-0.3924229,9.2793665,3.4121652,3
32583733185362,-0.37806597,9.2793665,3.4313076,3
32583735564216,-0.3684947,9.274581,3.4313076,3
32583737943070,-0.35413775,9.265009,3.4504502,3
32583740321924,-0.33020952,9.2793665,3.4648073,3
32583742700726,-0.3397808,9.2793665,3.4695928,3
32583745079580,-0.3397808,9.245867,3.5318062,3
32583747458435,-0.32542387,9.236296,3.5844483,3
32583749837289,-0.3397808,9.236296,3.6131623,3
32583752216091,-0.3589234,9.23151,3.6466618,3
32583754594945,-0.38763726,9.202796,3.6801612,3
32583756973799,-0.4019942,9.19801,3.6849468,3
32583759352653,-0.44506502,9.174082,3.7040894,3
32583761731455,-0.4881358,9.145369,3.737589,3
32583764110310,-0.53599226,9.102298,3.7806597,3
32583766489164,-0.55034924,9.064013,3.804588,3
32583768868018,-0.57427746,9.073584,3.8476589,3
32583771246820,-0.6364908,9.083155,3.8572302,3
32583773625674,-0.65084773,9.083155,3.8668015,3
32583776004528,-0.66999036,9.044869,3.871587,3
32583778383382,-0.74177504,9.030513,3.9146578,3
32583780762185,-0.76570326,9.025727,3.9194436,3
32583783141039,-0.79441714,9.035298,3.9625144,3
32583785519893,-0.81834537,9.040084,3.9673,3
32583787898747,-0.85184485,9.01137,3.9816568,3
32583790277549,-0.8709874,9.040084,3.991228,3
32583792656403,-0.8853444,9.035298,3.9768713,3
32583795035257,-0.8997013,9.020942,3.9960139,3
32583797414060,-0.8709874,9.01137,3.991228,3
32583799792914,-0.8566305,9.025727,3.9816568,3
32583802171768,-0.8422736,9.0544405,4.0151563,3
32583804550622,-0.80877405,9.040084,3.9960139,3
32583806929424,-0.7752745,9.049655,3.9768713,3
32583809308278,-0.75613195,9.059227,3.9720855,3
32583811687132,-0.7369894,9.073584,3.9338005,3
32583814065987,-0.7322037,9.073584,3.9098723,3
32583816444789,-0.7082755,9.073584,3.9194436,3
32583818823643,-0.6843473,9.083155,3.9242291,3
32583821202497,-0.66999036,9.083155,3.8811584,3
32583823581351,-0.66041905,9.083155,3.8524444,3
32583825960153,-0.67477596,9.08794,3.8285162,3
32583828339007,-0.67477596,9.111869,3.7950168,3
32583830717862,-0.6652047,9.111869,3.7615173,3
32583833096716,-0.66999036,9.111869,3.7328033,3
32583835475518,-0.6652047,9.15494,3.723232,3
32583837854372,-0.6843473,9.169296,3.7136607,3
32583840233226,-0.7082755,9.15494,3.694518,3
32583842612080,-0.70348984,9.174082,3.67059,3
32583844990882,-0.70348984,9.178867,3.6227336,3
32583847369737,-0.6987042,9.169296,3.5940197,3
32583849748591,-0.7082755,9.183653,3.574877,3
32583852127445,-0.67477596,9.159725,3.5605202,3
32583854506247,-0.65084773,9.159725,3.5605202,3
32583856885101,-0.59342,9.145369,3.5318062,3
32583859263955,-0.5455636,9.164511,3.522235,3
32583861642810,-0.5168497,9.174082,3.4887354,3
32583864021612,-0.51206404,9.150154,3.4743786,3
32583866400466,-0.4881358,9.145369,3.4743786,3
32583868779320,-0.45942193,9.159725,3.4887354,3
32583871158174,-0.4211368,9.111869,3.493521,3
32583873536976,-0.41635114,9.126225,3.4791641,3
32583875915830,-0.38763726,9.102298,3.4504502,3
32583878294685,-0.37806597,9.078369,3.4073794,3
32583880673539,-0.4019942,9.0544405,3.4217365,3
32583883052341,-0.4211368,9.111869,3.5365918,3
32583885431195,-0.4211368,9.131011,3.6849468,3
32583887810049,-0.4019942,9.135797,3.7423747,3
32583890188851,-0.41156548,9.145369,3.7088752,3
32583892567705,-0.3924229,9.178867,3.574877,3
32583894946560,-0.37328035,9.193225,3.4695928,3
32583897325414,-0.36370903,9.126225,3.4600215,3
32583899704216,-0.31106696,9.12144,3.6849468,3
32583902083070,-0.40677986,9.212367,4.106084,3
32583904461924,-0.29192436,9.150154,4.3070807,3
32583906840778,-0.35413775,9.126225,4.139583,3
32583909219580,-0.29192436,9.23151,3.694518,3
32583911598435,-0.31106696,9.265009,3.3020952,3
32583913977289,-0.28235307,9.2075815,3.3116665,3
32583916356143,-0.30149564,9.140582,3.6610186,3
32583918734945,-0.35413775,9.111869,4.173083,3
32583921113799,-0.3397808,8.977871,4.3405805,3
32583923492653,-0.37806597,9.030513,4.1108694,3
32583925871507,-0.38763726,9.083155,3.6466618,3
32583928250310,-0.40677986,9.102298,3.3164523,3
32583930629164,-0.45942193,9.0544405,3.3020952,3
32583933008018,-0.526421,9.040084,3.6849468,3
32583935386872,-0.56470615,8.968299,4.125226,3
32583937765674,-0.6029913,8.939586,4.2687955,3
32583940144528,-0.60777694,8.992228,4.0773697,3
32583942523382,-0.5982057,9.040084,3.7328033,3
32583944902237,-0.5838487,9.078369,3.4695928,3
32583947281039,-0.5599205,9.0544405,3.5174494,3
32583949659893,-0.5407779,9.059227,3.8141594,3
32583952038747,-0.47377887,9.030513,4.1443686,3
32583954417601,-0.47377887,9.01137,4.26401,3
32583956796403,-0.39720857,9.049655,4.115655,3
32583959175257,-0.32542387,9.092726,3.8237305,3
32583961554112,-0.27756742,9.135797,3.6083765,3
32583963932862,-0.23449662,9.097511,3.641876,3
32583966311768,-0.20578274,9.059227,3.8620157,3
32583968690622,-0.19142582,9.016156,4.0869412,3
32583971069476,-0.19142582,9.016156,4.168297,3
32583973448330,-0.13878371,9.040084,4.0390844,3
32583975827132,-0.16271193,9.092726,3.8237305,3
32583978205987,-0.148355,9.078369,3.6466618,3
32583980584841,-0.15792629,9.078369,3.6179478,3
32583982963643,-0.18185452,9.08794,3.737589,3
32583985342497,-0.2105684,9.0544405,3.9290147,3
32583987721351,-0.23928227,9.064013,3.9960139,3
32583990100205,-0.2632105,9.068798,3.8907297,3
32583992479007,-0.27756742,9.092726,3.7328033,3
32583994857862,-0.33499518,9.08794,3.5844483,3
32583997236716,-0.3924229,9.131011,3.5796626,3
32583999615570,-0.41156548,9.131011,3.67059,3
32584001994372,-0.44506502,9.135797,3.804588,3
32584004373226,-0.45942193,9.135797,3.8620157,3
32584006752080,-0.45942193,9.150154,3.7998023,3
32584009130935,-0.45942193,9.159725,3.6849468,3
32584011509737,-0.4546363,9.193225,3.546163,3
32584013888591,-0.4642076,9.202796,3.5270207,3
32584016267445,-0.4546363,9.2075815,3.5844483,3
32584018646299,-0.44506502,9.183653,3.6993039,3
32584021025101,-0.4354937,9.174082,3.7710886,3
32584023403955,-0.39720857,9.174082,3.723232,3
32584025782810,-0.3493521,9.178867,3.6275191,3
32584028161664,-0.33020952,9.2075815,3.5413775,3
32584030540466,-0.29671,9.202796,3.4983068,3
32584032919320,-0.29671,9.193225,3.5605202,3
32584035298174,-0.30149564,9.193225,3.656233,3
32584037677028,-0.3062813,9.183653,3.7328033,3
32584040055830,-0.29192436,9.188439,3.7328033,3
32584042434685,-0.30149564,9.188439,3.6610186,3
32584044813539,-0.27756742,9.183653,3.5796626,3
32584047192341,-0.29671,9.19801,3.5557344,3
32584049571195,-0.3062813,9.212367,3.6083765,3
32584051950049,-0.35413775,9.183653,3.6753755,3
32584054328903,-0.3684947,9.183653,3.7567315,3
32584056707757,-0.41156548,9.178867,3.751946,3
32584059086560,-0.4354937,9.178867,3.7184465,3
32584061465414,-0.46899325,9.150154,3.6753755,3
32584063844268,-0.4881358,9.164511,3.656233,3
32584066223122,-0.5312066,9.15494,3.6849468,3
32584068601924,-0.5694918,9.131011,3.7423747,3
32584070980778,-0.5982057,9.102298,3.8093736,3
32584073359632,-0.64606214,9.083155,3.8141594,3
32584075738435,-0.66041905,9.083155,3.7663028,3
32584078117289,-0.6795616,9.073584,3.7328033,3
32584080496143,-0.6795616,9.064013,3.7040894,3
32584082874997,-0.66999036,9.083155,3.7567315,3
32584085253799,-0.66999036,9.068798,3.8093736,3
32584087632653,-0.6556334,9.068798,3.8380876,3
32584090011507,-0.6412765,9.064013,3.8285162,3
32584092390362,-0.60777694,9.078369,3.8285162,3
32584094769164,-0.57906306,9.083155,3.8093736,3
32584097148018,-0.5312066,9.083155,3.7950168,3
32584099526872,-0.5072784,9.064013,3.7950168,3
32584101905726,-0.4881358,9.068798,3.8141594,3
32584104284528,-0.46899325,9.092726,3.804588,3
32584106663382,-0.43070808,9.083155,3.8141594,3
32584109042237,-0.41156548,9.083155,3.8141594,3
32584111421091,-0.38763726,9.073584,3.7950168,3
32584113799893,-0.4019942,9.092726,3.7710886,3
32584116178747,-0.40677986,9.083155,3.7758741,3
32584118557601,-0.4546363,9.08794,3.7710886,3
32584120936455,-0.49292147,9.097511,3.7663028,3
32584123315257,-0.5407779,9.111869,3.7663028,3
32584125694112,-0.55513483,9.107083,3.7758741,3
32584128072966,-0.5982057,9.102298,3.7663028,3
32584130451820,-0.6652047,9.08794,3.7471602,3
32584132830622,-0.7082755,9.08794,3.737589,3
32584135209476,-0.7369894,9.092726,3.7328033,3
32584137588330,-0.7704889,9.08794,3.7184465,3
32584139967185,-0.79920274,9.092726,3.7280176,3
32584142345987,-0.79920274,9.107083,3.723232,3
32584144724841,-0.79920274,9.092726,3.7328033,3
32584147103695,-0.8039884,9.064013,3.723232,3
32584149482549,-0.7848458,9.078369,3.694518,3
32584151861351,-0.7609176,9.092726,3.7136607,3
32584154240205,-0.71306115,9.08794,3.723232,3
32584156619060,-0.6843473,9.078369,3.7280176,3
32584158997914,-0.6652047,9.08794,3.7040894,3
32584161376716,-0.63170516,9.111869,3.694518,3
32584163755570,-0.5599205,9.107083,3.6849468,3
32584166134424,-0.5407779,9.097511,3.694518,3
32584168513278,-0.53599226,9.102298,3.6801612,3
32584170892080,-0.5168497,9.131011,3.6849468,3
32584173270935,-0.5168497,9.111869,3.6753755,3
32584175649789,-0.5312066,9.097511,3.6897326,3
32584178028591,-0.5312066,9.12144,3.7040894,3
32584180407445,-0.56470615,9.116654,3.694518,3
32584182786299,-0.59342,9.116654,3.6993039,3
32584185165153,-0.63170516,9.12144,3.7184465,3
32584187543955,-0.67477596,9.111869,3.7280176,3
32584189922810,-0.72741807,9.126225,3.7471602,3
32584192301612,-0.7513463,9.145369,3.737589,3
32584194680518,-0.7896315,9.12144,3.7328033,3
32584197059320,-0.7896315,9.097511,3.7423747,3
32584199438174,-0.81834537,9.08794,3.7423747,3
32584201817028,-0.8039884,9.092726,3.7663028,3
32584204195882,-0.7848458,9.08794,3.7710886,3
32584206574685,-0.7704889,9.092726,3.7758741,3
32584208953539,-0.7704889,9.078369,3.7710886,3
32584211332393,-0.72263247,9.073584,3.7854455,3
32584213711247,-0.67477596,9.049655,3.7950168,3
32584216090049,-0.6364908,9.059227,3.790231,3
32584218468903,-0.60777694,9.0544405,3.7950168,3
32584220847757,-0.5886344,9.049655,3.8093736,3
32584223226612,-0.5455636,9.049655,3.8285162,3
32584225605414,-0.51206404,9.064013,3.8285162,3
32584227984268,-0.4833502,9.068798,3.818945,3
32584230363122,-0.4546363,9.059227,3.8285162,3
32584232741976,-0.44985065,9.049655,3.8285162,3
32584235120778,-0.4546363,9.059227,3.8333018,3
32584237499632,-0.4546363,9.073584,3.8380876,3
32584239878487,-0.44985065,9.078369,3.8380876,3
32584242257341,-0.46899325,9.073584,3.8285162,3
32584244636143,-0.5024927,9.078369,3.8380876,3
32584247014997,-0.4977071,9.097511,3.8380876,3
32584249393851,-0.52163535,9.083155,3.818945,3
32584251772705,-0.5599205,9.083155,3.804588,3
32584254151507,-0.57906306,9.08794,3.8141594,3
32584256530362,-0.5982057,9.083155,3.8093736,3
32584258909216,-0.6269195,9.092726,3.804588,3
32584261288070,-0.63170516,9.08794,3.7998023,3
32584263666872,-0.63170516,9.097511,3.7806597,3
32584266045726,-0.63170516,9.111869,3.7710886,3
32584268424580,-0.5838487,9.111869,3.7710886,3
32584270803435,-0.5599205,9.107083,3.7471602,3
32584273182237,-0.55034924,9.092726,3.7567315,3
32584275561091,-0.5407779,9.111869,3.7663028,3
32584277939945,-0.5312066,9.107083,3.7423747,3
32584280318747,-0.4833502,9.102298,3.7423747,3
32584282697601,-0.4546363,9.102298,3.7423747,3
32584285076455,-0.43070808,9.116654,3.7423747,3
32584287455310,-0.4354937,9.135797,3.737589,3
32584289834112,-0.44027936,9.131011,3.737589,3
32584292212966,-0.42592242,9.131011,3.737589,3
32584294591820,-0.43070808,9.140582,3.7423747,3
32584296970674,-0.44985065,9.145369,3.7423747,3
32584299349476,-0.49292147,9.15494,3.751946,3
32584301728330,-0.5312066,9.150154,3.7567315,3
32584304107185,-0.53599226,9.159725,3.7615173,3
32584306486039,-0.56470615,9.169296,3.7567315,3
32584308864841,-0.5982057,9.159725,3.7615173,3
32584311243695,-0.6221339,9.145369,3.7663028,3
32584313622549,-0.65084773,9.126225,3.751946,3
32584316001403,-0.6652047,9.131011,3.7567315,3
32584318380205,-0.66041905,9.116654,3.7806597,3
32584320759060,-0.6843473,9.135797,3.804588,3
32584323137914,-0.6939186,9.107083,3.790231,3
32584325516768,-0.6939186,9.097511,3.7806597,3
32584327895570,-0.6556334,9.092726,3.790231,3
32584330274424,-0.6364908,9.068798,3.7998023,3
32584332653278,-0.5982057,9.064013,3.7998023,3
32584335032132,-0.56470615,9.040084,3.790231,3
32584337410935,-0.55513483,9.040084,3.7854455,3
32584339789789,-0.526421,9.030513,3.790231,3
32584342168643,-0.4833502,9.006584,3.7950168,3
32584344547497,-0.45942193,9.035298,3.7998023,3
32584346926299,-0.44506502,9.025727,3.8093736,3
32584349305153,-0.40677986,9.01137,3.818945,3
32584351684007,-0.4211368,9.035298,3.8285162,3
32584354062862,-0.42592242,9.044869,3.8620157,3
32584356441664,-0.44506502,9.049655,3.8763726,3
32584358820518,-0.46899325,9.040084,3.9050865,3
32584361199372,-0.47856453,9.049655,3.900301,3
32584363578226,-0.5024927,9.035298,3.871587,3
32584365957028,-0.55513483,9.030513,3.8763726,3
32584368335882,-0.5838487,9.068798,3.8955152,3
32584370714737,-0.5982057,9.059227,3.900301,3
32584373093591,-0.6412765,9.049655,3.900301,3
32584375472393,-0.66041905,9.064013,3.8955152,3
32584377851247,-0.70348984,9.020942,3.8811584,3
32584380230101,-0.72263247,9.016156,3.8476589,3
32584382608955,-0.74177504,9.116654,3.938586,3
32584384987757,-0.7513463,9.097511,3.9481573,3
32584387366612,-0.7752745,9.049655,3.9098723,3
32584389745466,-0.7513463,9.092726,3.8093736,3
32584392124320,-0.7369894,9.150154,3.7184465,3
32584394503122,-0.71306115,9.135797,3.694518,3
32584396881976,-0.66041905,9.12144,3.7710886,3
32584399260830,-0.5886344,9.111869,3.8668015,3
32584401639685,-0.5886344,9.12144,3.871587,3
32584404018487,-0.5312066,9.12144,3.751946,3
32584406397341,-0.5024927,9.150154,3.6227336,3
32584408776195,-0.45942193,9.164511,3.5413775,3
32584411155049,-0.44506502,9.135797,3.5700915,3
32584413533851,-0.41635114,9.131011,3.7088752,3
32584415912705,-0.42592242,9.150154,3.7950168,3
32584418291560,-0.42592242,9.159725,3.7663028,3
32584420670362,-0.4211368,9.164511,3.6610186,3
32584423049216,-0.40677986,9.19801,3.5509489,3
32584425428070,-0.38285163,9.193225,3.5270207,3
32584427806924,-0.38285163,9.193225,3.5700915,3
32584430185726,-0.44027936,9.19801,3.656233,3
32584432564580,-0.44027936,9.202796,3.694518,3
32584434943435,-0.47856453,9.183653,3.6849468,3
32584437322289,-0.47856453,9.19801,3.6323047,3
32584439701091,-0.5168497,9.217153,3.574877,3
32584442079945,-0.5168497,9.217153,3.5509489,3
32584444458799,-0.526421,9.188439,3.5796626,3
32584446837653,-0.526421,9.183653,3.6323047,3
32584449216455,-0.5407779,9.174082,3.6658044,3
32584451595310,-0.5072784,9.174082,3.694518,3
32584453974164,-0.5072784,9.174082,3.641876,3
32584456353018,-0.4977071,9.188439,3.5940197,3
32584458731820,-0.47856453,9.19801,3.5796626,3
32584461110674,-0.4642076,9.169296,3.603591,3
32584463489528,-0.44506502,9.145369,3.6514473,3
32584465868382,-0.43070808,9.140582,3.6849468,3
32584468247185,-0.4354937,9.140582,3.6897326,3
32584470626039,-0.4354937,9.131011,3.6753755,3
32584473004893,-0.4546363,9.135797,3.641876,3
32584475383747,-0.46899325,9.140582,3.6275191,3
32584477762549,-0.5072784,9.135797,3.6227336,3
32584480141351,-0.5407779,9.135797,3.6610186,3
32584482520257,-0.57427746,9.111869,3.7088752,3
32584484899112,-0.60777694,9.116654,3.7184465,3
32584487277914,-0.66041905,9.107083,3.7040894,3
32584489656768,-0.6843473,9.111869,3.694518,3
32584492035622,-0.6987042,9.12144,3.694518,3
32584494414476,-0.72263247,9.135797,3.6993039,3
32584496793278,-0.7369894,9.107083,3.7423747,3
32584499172132,-0.72263247,9.083155,3.7710886,3
32584501550987,-0.7513463,9.097511,3.7854455,3
32584503929789,-0.71306115,9.073584,3.7710886,3
32584506308643,-0.7082755,9.083155,3.7615173,3
32584508687497,-0.67477596,9.083155,3.7567315,3
32584511066351,-0.6795616,9.102298,3.7663028,3
32584513445205,-0.65084773,9.092726,3.7806597,3
32584515824007,-0.6412765,9.107083,3.8141594,3
32584518202862,-0.60777694,9.111869,3.8333018,3
32584520581716,-0.61734825,9.083155,3.8093736,3
32584522960570,-0.59342,9.097511,3.7950168,3
32584525339372,-0.5694918,9.08794,3.790231,3
32584527718226,-0.5838487,9.08794,3.7854455,3
32584530097080,-0.5982057,9.078369,3.804588,3
32584532475935,-0.59342,9.083155,3.8285162,3
32584534854737,-0.59342,9.073584,3.8141594,3
32584537233591,-0.60777694,9.068798,3.7998023,3
32584539612445,-0.6221339,9.059227,3.804588,3
32584541991299,-0.63170516,9.049655,3.7854455,3
32584544370101,-0.65084773,9.078369,3.7806597,3
32584546748955,-0.6652047,9.092726,3.7758741,3
32584549127810,-0.6556334,9.073584,3.7854455,3
32584551506664,-0.65084773,9.078369,3.7806597,3
32584553885466,-0.61734825,9.107083,3.7710886,3
32584556264320,-0.6125626,9.102298,3.7423747,3
32584558643174,-0.59342,9.08794,3.7280176,3
32584561022028,-0.5886344,9.102298,3.7136607,3
32584563400830,-0.57427746,9.140582,3.737589,3
32584565779685,-0.5455636,9.12144,3.751946,3
32584568158539,-0.5072784,9.12144,3.7423747,3
32584570537393,-0.4642076,9.126225,3.7328033,3
32584572916195,-0.44985065,9.131011,3.723232,3
32584575295049,-0.4354937,9.145369,3.6993039,3
32584577673903,-0.4354937,9.145369,3.6801612,3
32584580052705,-0.4546363,9.164511,3.6801612,3
32584582431560,-0.44027936,9.183653,3.6753755,3
32584584810414,-0.45942193,9.159725,3.6897326,3
32584587189268,-0.4642076,9.145369,3.6801612,3
32584589568070,-0.4977071,9.183653,3.6753755,3
32584591946924,-0.4977071,9.2075815,3.6610186,3
32584594325778,-0.52163535,9.23151,3.6466618,3
32584596704632,-0.53599226,9.2075815,3.6658044,3
32584599083435,-0.53599226,9.19801,3.6658044,3
32584601462289,-0.5455636,9.183653,3.67059,3
32584603841143,-0.55034924,9.159725,3.656233,3
32584606219997,-0.56470615,9.159725,3.6514473,3
32584608598799,-0.56470615,9.164511,3.6514473,3
32584610977653,-0.56470615,9.188439,3.6466618,3
32584613356507,-0.5886344,9.159725,3.6514473,3
32584615735362,-0.6125626,9.15494,3.656233,3
32584618114164,-0.61734825,9.15494,3.6849468,3
32584620493018,-0.61734825,9.140582,3.6610186,3
32584622871872,-0.6125626,9.145369,3.656233,3
32584625250726,-0.6269195,9.140582,3.6753755,3
32584627629528,-0.6221339,9.116654,3.694518,3
32584630008382,-0.6412765,9.107083,3.7040894,3
32584632387237,-0.60777694,9.092726,3.7184465,3
32584634766091,-0.59342,9.102298,3.694518,3
32584637144893,-0.60777694,9.097511,3.723232,3
32584639523747,-0.61734825,9.092726,3.7184465,3
32584641902601,-0.63170516,9.097511,3.7184465,3
32584644281455,-0.63170516,9.102298,3.7136607,3
32584646660310,-0.6029913,9.097511,3.7471602,3
32584649039112,-0.56470615,9.12144,3.751946,3
32584651417966,-0.56470615,9.102298,3.7854455,3
32584653796820,-0.56470615,9.08794,3.7806597,3
32584656175622,-0.526421,9.102298,3.7758741,3
32584658554476,-0.46899325,9.102298,3.7615173,3
32584660933330,-0.4354937,9.111869,3.7471602,3
32584663312185,-0.4019942,9.111869,3.737589,3
32584665690987,-0.38763726,9.111869,3.737589,3
32584668069841,-0.3684947,9.131011,3.751946,3
32584670448695,-0.35413775,9.126225,3.7567315,3
32584672827549,-0.3397808,9.126225,3.737589,3
32584675206351,-0.3397808,9.145369,3.7184465,3
32584677585205,-0.3589234,9.140582,3.7088752,3
32584679964060,-0.37328035,9.135797,3.7040894,3
32584682342914,-0.39720857,9.135797,3.6897326,3
32584684721716,-0.4642076,9.140582,3.7040894,3
32584687100570,-0.5024927,9.150154,3.7088752,3
32584689479424,-0.5407779,9.159725,3.67059,3
32584691858278,-0.6125626,9.174082,3.6801612,3
32584694237080,-0.65084773,9.183653,3.6514473,3
32584696615935,-0.6939186,9.188439,3.6275191,3
32584698994789,-0.7369894,9.188439,3.6179478,3
32584701373643,-0.76570326,9.178867,3.6179478,3
32584703752445,-0.8039884,9.174082,3.641876,3
32584706131299,-0.81834537,9.19801,3.6370904,3
32584708510153,-0.8135597,9.202796,3.6227336,3
32584710889007,-0.8039884,9.183653,3.6227336,3
32584713267757,-0.7848458,9.174082,3.5988052,3
32584715646664,-0.7752745,9.188439,3.5988052,3
32584718025518,-0.7465607,9.174082,3.5892339,3
32584720404372,-0.70348984,9.164511,3.574877,3
32584722783174,-0.66999036,9.169296,3.5844483,3
32584725162028,-0.6269195,9.159725,3.6083765,3
32584727540830,-0.5694918,9.15494,3.6083765,3
32584729919737,-0.53599226,9.169296,3.603591,3
32584732298539,-0.5072784,9.159725,3.5988052,3
32584734677393,-0.5072784,9.15494,3.6083765,3
32584737056247,-0.5072784,9.159725,3.6179478,3
32584739435101,-0.51206404,9.145369,3.6179478,3
32584741813903,-0.526421,9.15494,3.6370904,3
32584744192757,-0.52163535,9.15494,3.6610186,3
32584746571612,-0.53599226,9.164511,3.67059,3
32584748950466,-0.5455636,9.150154,3.6753755,3
32584751329268,-0.57906306,9.15494,3.6801612,3
32584753708122,-0.59342,9.150154,3.694518,3
32584756086976,-0.6221339,9.135797,3.7136607,3
32584758465830,-0.64606214,9.150154,3.7184465,3
32584760844632,-0.65084773,9.131011,3.723232,3
32584763223487,-0.64606214,9.116654,3.737589,3
32584765602341,-0.66041905,9.092726,3.737589,3
32584767981143,-0.64606214,9.078369,3.7567315,3
32584770359997,-0.6364908,9.068798,3.7471602,3
32584772738851,-0.59342,9.097511,3.7423747,3
32584775117705,-0.5694918,9.097511,3.7423747,3
32584777496507,-0.5312066,9.097511,3.751946,3
32584779875362,-0.52163535,9.097511,3.7567315,3
32584782254216,-0.49292147,9.097511,3.7567315,3
32584784633070,-0.47856453,9.08794,3.7758741,3
32584787011924,-0.4833502,9.073584,3.7758741,3
32584789390726,-0.46899325,9.078369,3.7663028,3
32584791769580,-0.47856453,9.092726,3.7615173,3
32584794148435,-0.51206404,9.092726,3.7663028,3
32584796527237,-0.52163535,9.102298,3.7615173,3
32584798906091,-0.5455636,9.092726,3.7663028,3
32584801284945,-0.5886344,9.097511,3.7567315,3
32584803663799,-0.63170516,9.102298,3.751946,3
32584806042601,-0.64606214,9.116654,3.7615173,3
32584808421455,-0.66999036,9.102298,3.7567315,3
32584810800310,-0.6939186,9.107083,3.7471602,3
32584813179164,-0.6987042,9.107083,3.7471602,3
32584815557966,-0.70348984,9.12144,3.7615173,3
32584817936820,-0.6939186,9.135797,3.7471602,3
32584820315674,-0.6795616,9.12144,3.7423747,3
32584822694528,-0.66041905,9.12144,3.7423747,3
32584825073330,-0.6412765,9.116654,3.7471602,3
32584827452185,-0.6125626,9.126225,3.7423747,3
32584829831039,-0.5599205,9.12144,3.723232,3
32584832209893,-0.55034924,9.12144,3.7328033,3
32584834588695,-0.52163535,9.116654,3.737589,3
32584836967549,-0.46899325,9.135797,3.7328033,3
32584839346403,-0.44027936,9.135797,3.7280176,3
32584841725257,-0.4211368,9.140582,3.723232,3
32584844104060,-0.41156548,9.131011,3.7471602,3
32584846482914,-0.4211368,9.131011,3.7280176,3
32584848861768,-0.43070808,9.140582,3.7136607,3
32584851240622,-0.42592242,9.135797,3.737589,3
32584853619372,-0.44027936,9.150154,3.7280176,3
32584855998278,-0.45942193,9.15494,3.7280176,3
32584858377132,-0.5024927,9.145369,3.723232,3
32584860755987,-0.53599226,9.140582,3.737589,3
32584863134789,-0.57906306,9.15494,3.7423747,3
32584865513643,-0.5886344,9.131011,3.723232,3
32584867892497,-0.6221339,9.12144,3.7471602,3
32584870271351,-0.63170516,9.131011,3.751946,3
32584872650153,-0.63170516,9.12144,3.7471602,3
32584875029007,-0.6125626,9.135797,3.723232,3
32584877407862,-0.61734825,9.111869,3.7280176,3
32584879786716,-0.60777694,9.116654,3.7423747,3
32584882165518,-0.56470615,9.107083,3.751946,3
32584884544372,-0.53599226,9.12144,3.737589,3
32584886923226,-0.5168497,9.111869,3.7280176,3
32584889302080,-0.4833502,9.135797,3.7328033,3
32584891680882,-0.4642076,9.131011,3.7328033,3
32584894059737,-0.44985065,9.140582,3.7280176,3
32584896438591,-0.44506502,9.126225,3.723232,3
32584898817445,-0.44027936,9.131011,3.7423747,3
32584901196247,-0.43070808,9.126225,3.7423747,3
32584903575101,-0.43070808,9.126225,3.7615173,3
32584905953955,-0.47377887,9.12144,3.7567315,3
32584908332757,-0.4881358,9.12144,3.7567315,3
32584910711612,-0.5168497,9.135797,3.7663028,3
32584913090466,-0.55034924,9.135797,3.7663028,3
32584915469320,-0.59342,9.135797,3.7615173,3
32584917848174,-0.61734825,9.12144,3.7663028,3
32584920226976,-0.64606214,9.140582,3.7567315,3
32584922605830,-0.6843473,9.107083,3.7471602,3
32584924984685,-0.70348984,9.102298,3.723232,3
32584927363539,-0.71306115,9.12144,3.7280176,3
32584929742341,-0.72741807,9.107083,3.7280176,3
32584932121143,-0.7178468,9.097511,3.7471602,3
32584934500049,-0.7082755,9.083155,3.7280176,3
32584936878903,-0.70348984,9.083155,3.7184465,3
32584939257705,-0.66999036,9.102298,3.7280176,3
32584941636560,-0.6412765,9.092726,3.7280176,3
32584944015414,-0.6364908,9.097511,3.7280176,3
32584946394268,-0.57906306,9.102298,3.7136607,3
32584948773070,-0.55513483,9.097511,3.7184465,3
32584951151924,-0.55034924,9.107083,3.737589,3
32584953530778,-0.5024927,9.116654,3.737589,3
32584955909632,-0.46899325,9.111869,3.7328033,3
32584958288435,-0.4881358,9.111869,3.7280176,3
32584960667289,-0.4881358,9.126225,3.7280176,3
32584963046143,-0.49292147,9.131011,3.737589,3
32584965424997,-0.47856453,9.116654,3.737589,3
32584967803799,-0.4977071,9.111869,3.7567315,3
32584970182653,-0.5312066,9.126225,3.7471602,3
32584972561507,-0.55513483,9.12144,3.7471602,3
32584974940362,-0.56470615,9.107083,3.737589,3
32584977319164,-0.5886344,9.097511,3.723232,3
32584979698018,-0.60777694,9.097511,3.7184465,3
32584982076872,-0.6269195,9.111869,3.723232,3
32584984455674,-0.61734825,9.107083,3.737589,3
32584986834528,-0.6269195,9.107083,3.7328033,3
32584989213382,-0.64606214,9.12144,3.7184465,3
32584991592237,-0.6269195,9.102298,3.7088752,3
32584993971091,-0.5838487,9.116654,3.7184465,3
32584996349893,-0.53599226,9.092726,3.7088752,3
32584998728747,-0.53599226,9.083155,3.7136607,3
32585001107601,-0.5168497,9.102298,3.694518,3
32585003486455,-0.49292147,9.107083,3.7040894,3
32585005865257,-0.47377887,9.116654,3.7136607,3
32585008244112,-0.42592242,9.131011,3.6897326,3
32585010622966,-0.4211368,9.116654,3.7040894,3
32585013001820,-0.4354937,9.12144,3.7088752,3
32585015380622,-0.42592242,9.140582,3.7136607,3
32585017759476,-0.41635114,9.131011,3.6801612,3
32585020138330,-0.4019942,9.135797,3.6753755,3
32585022517185,-0.40677986,9.145369,3.6849468,3
32585024895987,-0.40677986,9.131011,3.6801612,3
32585027274841,-0.43070808,9.150154,3.6897326,3
32585029653695,-0.4642076,9.145369,3.7184465,3
32585032032497,-0.4881358,9.145369,3.7088752,3
32585034411351,-0.5312066,9.15494,3.7136607,3
32585036790205,-0.53599226,9.159725,3.723232,3
32585039169060,-0.55034924,9.135797,3.723232,3
32585041547862,-0.5838487,9.150154,3.7136607,3
32585043926716,-0.6029913,9.140582,3.7184465,3
32585046305570,-0.5982057,9.140582,3.7280176,3
32585048684424,-0.6029913,9.15494,3.7567315,3
32585051063226,-0.5982057,9.131011,3.751946,3
32585053442080,-0.55034924,9.135797,3.7615173,3
32585055820935,-0.5599205,9.150154,3.7567315,3
32585058199789,-0.55034924,9.150154,3.7567315,3
32585060578643,-0.51206404,9.131011,3.7567315,3
32585062957445,-0.5024927,9.111869,3.7615173,3
32585065336299,-0.47856453,9.116654,3.7710886,3
32585067715153,-0.47377887,9.092726,3.7998023,3
32585070094007,-0.44985065,9.092726,3.7950168,3
32585072472810,-0.44027936,9.097511,3.790231,3
32585074851664,-0.4019942,9.102298,3.7950168,3
32585077230518,-0.39720857,9.078369,3.7663028,3
32585079609372,-0.4019942,9.08794,3.7615173,3
32585081988174,-0.42592242,9.083155,3.7950168,3
32585084367028,-0.4354937,9.059227,3.7998023,3
32585086745882,-0.44027936,9.078369,3.8093736,3
32585089124737,-0.4546363,9.083155,3.8093736,3
32585091503539,-0.4642076,9.092726,3.7950168,3
32585093882393,-0.4881358,9.102298,3.7950168,3
32585096261247,-0.4977071,9.078369,3.790231,3
32585098640049,-0.5072784,9.083155,3.8093736,3
32585101018903,-0.5024927,9.08794,3.7998023,3
32585103397757,-0.49292147,9.107083,3.8141594,3
32585105776612,-0.5072784,9.08794,3.8093736,3
32585108155414,-0.4977071,9.097511,3.790231,3
32585110534216,-0.4642076,9.097511,3.7998023,3
32585112913122,-0.4546363,9.097511,3.7950168,3
32585115291976,-0.44027936,9.107083,3.7998023,3
32585117670778,-0.41635114,9.08794,3.7950168,3
32585120049632,-0.4019942,9.078369,3.7854455,3
32585122428487,-0.4211368,9.097511,3.7854455,3
32585124807341,-0.40677986,9.092726,3.7758741,3
32585127186195,-0.4019942,9.078369,3.7854455,3
32585129564997,-0.4019942,9.083155,3.7806597,3
32585131943851,-0.4019942,9.078369,3.7806597,3
32585134322705,-0.4211368,9.092726,3.7806597,3
32585136701507,-0.43070808,9.102298,3.7615173,3
32585139080362,-0.43070808,9.107083,3.7567315,3
32585141459216,-0.44506502,9.102298,3.7615173,3
32585143838070,-0.4642076,9.102298,3.737589,3
32585146216872,-0.4833502,9.111869,3.751946,3
32585148595726,-0.5024927,9.107083,3.7471602,3
32585150974580,-0.49292147,9.12144,3.7471602,3
32585153353435,-0.5024927,9.135797,3.7567315,3
32585155732237,-0.51206404,9.150154,3.737589,3
32585158111091,-0.51206404,9.140582,3.7184465,3
32585160489945,-0.526421,9.135797,3.7328033,3
32585162868799,-0.51206404,9.145369,3.7280176,3
32585165247601,-0.4977071,9.15494,3.737589,3
32585167626455,-0.47856453,9.150154,3.737589,3
32585170005310,-0.47377887,9.140582,3.723232,3
32585172384164,-0.4833502,9.126225,3.723232,3
32585174762966,-0.46899325,9.135797,3.723232,3
32585177141820,-0.44985065,9.150154,3.7136607,3
32585179520674,-0.4546363,9.135797,3.7184465,3
32585181899528,-0.47856453,9.140582,3.723232,3
32585184278330,-0.49292147,9.116654,3.7136607,3
32585186657185,-0.47377887,9.107083,3.7088752,3
32585189036039,-0.4977071,9.126225,3.7040894,3
32585191414893,-0.4977071,9.126225,3.7088752,3
32585193793695,-0.52163535,9.102298,3.7136607,3
32585196172549,-0.51206404,9.107083,3.7088752,3
32585198551403,-0.53599226,9.107083,3.7280176,3
32585200930257,-0.55513483,9.126225,3.7088752,3
32585203309060,-0.56470615,9.131011,3.7136607,3
32585205687914,-0.55513483,9.126225,3.7184465,3
32585208066768,-0.59342,9.12144,3.7184465,3
32585210445622,-0.57427746,9.126225,3.723232,3
32585212824424,-0.56470615,9.140582,3.7136607,3
32585215203278,-0.55513483,9.131011,3.7184465,3
32585217582132,-0.52163535,9.135797,3.7280176,3
32585219960987,-0.4977071,9.140582,3.7136607,3
32585222339789,-0.51206404,9.135797,3.7423747,3
32585224718643,-0.47856453,9.159725,3.737589,3
32585227097497,-0.46899325,9.135797,3.737589,3
32585229476351,-0.44027936,9.111869,3.7328033,3
32585231855153,-0.42592242,9.107083,3.7184465,3
32585234234007,-0.42592242,9.135797,3.7280176,3
32585236612862,-0.4354937,9.140582,3.7423747,3
32585238991716,-0.4354937,9.12144,3.737589,3
32585241370518,-0.4354937,9.107083,3.723232,3
32585243749372,-0.44506502,9.102298,3.7280176,3
32585246128226,-0.45942193,9.107083,3.723232,3
32585248507080,-0.4642076,9.116654,3.737589,3
32585250885882,-0.4642076,9.111869,3.751946,3
32585253264737,-0.47856453,9.107083,3.7423747,3
32585255643591,-0.4977071,9.102298,3.7471602,3
32585258022445,-0.4977071,9.102298,3.7280176,3
32585260401247,-0.4977071,9.097511,3.737589,3
32585262780101,-0.5168497,9.083155,3.7280176,3
32585265158955,-0.52163535,9.102298,3.7328033,3
32585267537810,-0.5168497,9.111869,3.7280176,3
32585269916612,-0.5024927,9.102298,3.7184465,3
32585272295466,-0.46899325,9.116654,3.7328033,3
32585274674320,-0.45942193,9.116654,3.7328033,3
32585277053174,-0.4354937,9.116654,3.7328033,3
32585279431976,-0.43070808,9.145369,3.723232,3
32585281810830,-0.43070808,9.140582,3.737589,3
32585284189685,-0.39720857,9.131011,3.7280176,3
32585286568539,-0.39720857,9.111869,3.7280176,3
32585288947341,-0.40677986,9.126225,3.723232,3
32585291326195,-0.4019942,9.131011,3.7136607,3
32585293705049,-0.40677986,9.131011,3.723232,3
32585296083903,-0.41156548,9.12144,3.6993039,3
32585298463487,-0.42592242,9.131011,3.7184465,3
32585300841560,-0.44985065,9.135797,3.7280176,3
32585303220414,-0.49292147,9.159725,3.723232,3
32585305599268,-0.49292147,9.164511,3.7088752,3
32585307978070,-0.5072784,9.150154,3.7136607,3
32585310356924,-0.4881358,9.140582,3.737589,3
32585312735778,-0.5168497,9.12144,3.723232,3
32585315114632,-0.53599226,9.131011,3.7136607,3
32585317493435,-0.526421,9.12144,3.7088752,3
32585319872289,-0.5312066,9.116654,3.7280176,3
32585322251143,-0.5312066,9.140582,3.7280176,3
32585324629997,-0.5312066,9.135797,3.7328033,3
32585327008799,-0.52163535,9.102298,3.7328033,3
32585329387653,-0.52163535,9.12144,3.737589,3
32585331766507,-0.4833502,9.097511,3.7471602,3
32585334145362,-0.44506502,9.097511,3.7567315,3
32585336524164,-0.4354937,9.092726,3.751946,3
32585338903018,-0.41156548,9.073584,3.7423747,3
32585341281872,-0.38763726,9.064013,3.7423747,3
32585343660674,-0.38285163,9.092726,3.7567315,3
32585346039528,-0.38763726,9.102298,3.7663028,3
32585348418382,-0.37328035,9.107083,3.7615173,3
32585350797237,-0.33499518,9.111869,3.7663028,3
32585353176091,-0.33499518,9.111869,3.7663028,3
32585355554893,-0.3493521,9.131011,3.7950168,3
32585357933747,-0.3684947,9.116654,3.7950168,3
32585360312601,-0.38763726,9.102298,3.7710886,3
32585362691455,-0.38763726,9.12144,3.7758741,3
32585365070257,-0.40677986,9.102298,3.7663028,3
32585367449112,-0.41156548,9.12144,3.7663028,3
32585369827966,-0.4354937,9.111869,3.7663028,3
32585372206820,-0.43070808,9.083155,3.790231,3
32585374585622,-0.44027936,9.097511,3.7854455,3
32585376964476,-0.4211368,9.097511,3.7710886,3
32585379343330,-0.4354937,9.12144,3.7615173,3
32585381722132,-0.44506502,9.131011,3.751946,3
32585384100987,-0.4642076,9.111869,3.7567315,3
32585386479841,-0.4642076,9.097511,3.7663028,3
32585388858695,-0.44506502,9.102298,3.7615173,3
32585391237549,-0.4546363,9.107083,3.751946,3
32585393616351,-0.44985065,9.107083,3.751946,3
32585395995205,-0.4546363,9.08794,3.7471602,3
32585398374060,-0.44985065,9.08794,3.7423747,3
32585400752914,-0.4354937,9.092726,3.751946,3
32585403131716,-0.42592242,9.116654,3.7615173,3
32585405510570,-0.42592242,9.12144,3.7615173,3
32585407889424,-0.41635114,9.107083,3.7615173,3
32585410268226,-0.41156548,9.107083,3.7663028,3
32585412647080,-0.4019942,9.102298,3.7184465,3
32585415025935,-0.39720857,9.111869,3.7423747,3
32585417404789,-0.40677986,9.111869,3.7471602,3
32585419783643,-0.41635114,9.140582,3.7328033,3
32585422162393,-0.43070808,9.12144,3.7423747,3
32585424541299,-0.44027936,9.150154,3.7184465,3
32585426920153,-0.4211368,9.135797,3.7184465,3
32585429299007,-0.41635114,9.135797,3.7136607,3
32585431677810,-0.42592242,9.140582,3.723232,3
32585434056664,-0.4211368,9.135797,3.723232,3
32585436435518,-0.44027936,9.145369,3.7088752,3
32585438814320,-0.43070808,9.12144,3.7184465,3
32585441193174,-0.44027936,9.126225,3.694518,3
32585443571976,-0.4546363,9.159725,3.6897326,3
32585445950882,-0.4546363,9.169296,3.6849468,3
32585448329685,-0.4546363,9.15494,3.6753755,3
32585450708539,-0.4546363,9.140582,3.694518,3
32585453087393,-0.4642076,9.135797,3.6897326,3
32585455466247,-0.4881358,9.150154,3.6801612,3
32585457845101,-0.5072784,9.150154,3.694518,3
32585460223903,-0.52163535,9.135797,3.6849468,3
32585462602705,-0.5407779,9.135797,3.6993039,3
32585464981612,-0.5168497,9.159725,3.6993039,3
32585467360414,-0.5072784,9.145369,3.7040894,3
32585469739268,-0.5072784,9.159725,3.6993039,3
32585472118122,-0.49292147,9.15494,3.7136607,3
32585474496976,-0.4977071,9.140582,3.7040894,3
32585476875778,-0.47377887,9.131011,3.694518,3
32585479254632,-0.45942193,9.135797,3.6849468,3
32585481633487,-0.43070808,9.150154,3.6993039,3
32585484012341,-0.40677986,9.159725,3.6993039,3
32585486391143,-0.37806597,9.135797,3.7136607,3
32585488769997,-0.35413775,9.131011,3.7088752,3
32585491148851,-0.30149564,9.126225,3.6849468,3
32585493527705,-0.29671,9.126225,3.6849468,3
32585495906507,-0.29671,9.126225,3.6801612,3
32585498285362,-0.28235307,9.126225,3.6801612,3
32585500664216,-0.31106696,9.131011,3.6801612,3
32585503043070,-0.31585258,9.126225,3.6801612,3
32585505421872,-0.31585258,9.12144,3.6897326,3
32585507800726,-0.3397808,9.12144,3.7040894,3
32585510179580,-0.35413775,9.126225,3.7136607,3
32585512558435,-0.37328035,9.135797,3.723232,3
32585514937237,-0.38763726,9.116654,3.737589,3
32585517316091,-0.39720857,9.116654,3.7471602,3
32585519694945,-0.4211368,9.116654,3.751946,3
32585522073799,-0.45942193,9.111869,3.7567315,3
32585524452601,-0.47377887,9.116654,3.7471602,3
32585526831455,-0.4833502,9.111869,3.751946,3
32585529210257,-0.45942193,9.083155,3.7806597,3
32585531589164,-0.4881358,9.092726,3.7950168,3
32585533967966,-0.47856453,9.097511,3.7950168,3
32585536346820,-0.47377887,9.097511,3.790231,3
32585538725674,-0.46899325,9.073584,3.7950168,3
32585541104528,-0.46899325,9.068798,3.8093736,3
32585543483330,-0.4642076,9.078369,3.8141594,3
32585545862185,-0.4546363,9.049655,3.8285162,3
32585548241039,-0.44027936,9.059227,3.8285162,3
32585550619893,-0.43070808,9.049655,3.8141594,3
32585552998695,-0.41635114,9.049655,3.804588,3
32585555377549,-0.42592242,9.068798,3.8141594,3
32585557756403,-0.44506502,9.0544405,3.8285162,3
32585560135257,-0.42592242,9.059227,3.8333018,3
32585562514060,-0.4546363,9.068798,3.8333018,3
32585564892914,-0.4833502,9.064013,3.818945,3
32585567271768,-0.4881358,9.0544405,3.818945,3
32585569650622,-0.51206404,9.073584,3.8141594,3
32585572029424,-0.53599226,9.092726,3.8237305,3
32585574408278,-0.55513483,9.107083,3.818945,3
32585576787132,-0.55513483,9.111869,3.8237305,3
32585579165987,-0.57427746,9.111869,3.8237305,3
32585581544789,-0.5838487,9.097511,3.8141594,3
32585583923643,-0.5886344,9.097511,3.7950168,3
32585586302497,-0.60777694,9.111869,3.7950168,3
32585588681351,-0.60777694,9.116654,3.7998023,3
32585591060153,-0.5982057,9.116654,3.804588,3
32585593439007,-0.59342,9.135797,3.790231,3
32585595817862,-0.5694918,9.116654,3.7710886,3
32585598196716,-0.55034924,9.12144,3.7615173,3
32585600575518,-0.53599226,9.111869,3.7615173,3
32585602954372,-0.4977071,9.116654,3.7471602,3
32585605333226,-0.47856453,9.140582,3.7423747,3
32585607712080,-0.46899325,9.135797,3.7423747,3
32585610090882,-0.47377887,9.131011,3.751946,3
32585612469737,-0.4642076,9.126225,3.737589,3
32585614848591,-0.45942193,9.131011,3.7280176,3
32585617227445,-0.4642076,9.135797,3.7328033,3
32585619606247,-0.4833502,9.135797,3.7471602,3
32585621985101,-0.5072784,9.159725,3.7423747,3
32585624363955,-0.55513483,9.145369,3.723232,3
32585626742757,-0.5694918,9.15494,3.723232,3
32585629121612,-0.5838487,9.131011,3.723232,3
32585631500466,-0.6269195,9.140582,3.723232,3
32585633879320,-0.6412765,9.150154,3.7136607,3
32585636258174,-0.6412765,9.159725,3.7040894,3
32585638636976,-0.6412765,9.159725,3.7088752,3
32585641015830,-0.6412765,9.135797,3.7184465,3
32585643394685,-0.63170516,9.140582,3.723232,3
32585645773539,-0.6221339,9.145369,3.7184465,3
32585648152341,-0.6221339,9.145369,3.7136607,3
32585650531195,-0.57427746,9.135797,3.7088752,3
32585652910049,-0.55513483,9.140582,3.6897326,3
32585655288903,-0.5599205,9.145369,3.6801612,3
32585657667705,-0.55034924,9.126225,3.694518,3
32585660046560,-0.5072784,9.126225,3.694518,3
32585662425414,-0.47856453,9.131011,3.6897326,3
32585664804268,-0.45942193,9.135797,3.694518,3
32585667183070,-0.44985065,9.150154,3.6753755,3
32585669561924,-0.44985065,9.150154,3.6801612,3
32585671940778,-0.45942193,9.140582,3.6753755,3
32585674319632,-0.46899325,9.140582,3.6753755,3
32585676698435,-0.4642076,9.145369,3.694518,3
32585679077289,-0.47856453,9.164511,3.7136607,3
32585681456143,-0.49292147,9.164511,3.694518,3
32585683834997,-0.51206404,9.193225,3.7136607,3
32585686213799,-0.5599205,9.159725,3.694518,3
32585688592653,-0.57427746,9.135797,3.6753755,3
32585690971507,-0.6125626,9.159725,3.7040894,3
32585693350362,-0.6221339,9.159725,3.6993039,3
32585695729164,-0.6364908,9.174082,3.7088752,3
32585698108018,-0.6652047,9.145369,3.7040894,3
32585700486872,-0.6939186,9.145369,3.6897326,3
32585702865726,-0.6939186,9.12144,3.694518,3
32585705244528,-0.6939186,9.131011,3.6801612,3
32585707623382,-0.70348984,9.145369,3.6897326,3
32585710002237,-0.6891329,9.150154,3.694518,3
32585712381091,-0.6939186,9.12144,3.6801612,3
32585714759893,-0.6891329,9.145369,3.6897326,3
32585717138747,-0.6652047,9.116654,3.6849468,3
32585719517601,-0.65084773,9.12144,3.6993039,3
32585721896403,-0.6412765,9.111869,3.7040894,3
32585724275257,-0.63170516,9.083155,3.6801612,3
32585726654112,-0.6269195,9.111869,3.6897326,3
32585729032966,-0.5982057,9.12144,3.6993039,3
32585731411768,-0.5599205,9.107083,3.7040894,3
32585733790622,-0.56470615,9.116654,3.7040894,3
32585736169424,-0.5886344,9.150154,3.7040894,3
32585738548330,-0.5694918,9.135797,3.6993039,3
32585740927185,-0.55513483,9.131011,3.7088752,3
32585743305987,-0.55034924,9.140582,3.7088752,3
32585745684841,-0.55034924,9.159725,3.7088752,3
32585748063695,-0.55513483,9.150154,3.7088752,3
32585750442497,-0.56470615,9.145369,3.7280176,3
32585752821351,-0.5599205,9.140582,3.7280176,3
32585755200310,-0.5599205,9.135797,3.7184465,3
32585757579060,-0.5694918,9.159725,3.7184465,3
32585759957914,-0.5694918,9.159725,3.7088752,3
32585762336716,-0.5694918,9.145369,3.694518,3
32585764715570,-0.5838487,9.135797,3.6993039,3
32585767094424,-0.5886344,9.135797,3.7040894,3
32585769473278,-0.6029913,9.126225,3.7088752,3
32585771852080,-0.57427746,9.126225,3.7136607,3
32585774230935,-0.55513483,9.12144,3.6897326,3
32585776609789,-0.57427746,9.107083,3.6849468,3
32585778988643,-0.5838487,9.126225,3.694518,3
32585781367445,-0.5694918,9.116654,3.6849468,3
32585783746299,-0.56470615,9.107083,3.6993039,3
32585786125153,-0.5694918,9.116654,3.7088752,3
32585788503955,-0.53599226,9.140582,3.7328033,3
32585790882810,-0.53599226,9.116654,3.723232,3
32585793261664,-0.52163535,9.107083,3.737589,3
32585795640518,-0.526421,9.126225,3.7280176,3
32585798019372,-0.526421,9.135797,3.7328033,3
32585800398174,-0.4977071,9.116654,3.7471602,3
32585802777028,-0.5024927,9.140582,3.7471602,3
32585805155882,-0.4977071,9.131011,3.751946,3
32585807534737,-0.49292147,9.150154,3.7663028,3
32585809913539,-0.5024927,9.131011,3.7663028,3
32585812292393,-0.5024927,9.140582,3.7615173,3
32585814671247,-0.4977071,9.140582,3.7567315,3
32585817050101,-0.5072784,9.135797,3.7567315,3
32585819428903,-0.5072784,9.131011,3.7758741,3
32585821807757,-0.49292147,9.12144,3.7663028,3
32585824186612,-0.5024927,9.145369,3.7710886,3
32585826565414,-0.52163535,9.145369,3.7615173,3
32585828944268,-0.526421,9.135797,3.7806597,3
32585831323122,-0.51206404,9.12144,3.7758741,3
32585833701976,-0.51206404,9.097511,3.7567315,3
32585836080830,-0.526421,9.092726,3.7710886,3
32585838459632,-0.53599226,9.107083,3.7950168,3
32585840838487,-0.52163535,9.097511,3.7854455,3
32585843217341,-0.526421,9.08794,3.7567315,3
32585845596143,-0.4881358,9.08794,3.7710886,3
32585847974997,-0.5168497,9.092726,3.7663028,3
32585850353851,-0.4833502,9.092726,3.7758741,3
32585852732705,-0.4833502,9.097511,3.7615173,3
32585855111507,-0.47856453,9.107083,3.7806597,3
32585857490362,-0.46899325,9.111869,3.7950168,3
32585859869216,-0.45942193,9.097511,3.804588,3
32585862248018,-0.4211368,9.083155,3.8093736,3
32585864626872,-0.42592242,9.107083,3.7998023,3
32585867005726,-0.4354937,9.126225,3.7806597,3
32585869384580,-0.42592242,9.12144,3.7854455,3
32585871763435,-0.43070808,9.12144,3.7615173,3
32585874142237,-0.42592242,9.107083,3.7615173,3
32585876521091,-0.44506502,9.102298,3.7663028,3
32585878899945,-0.45942193,9.107083,3.7710886,3
32585881278799,-0.49292147,9.126225,3.7710886,3
32585883657601,-0.4881358,9.131011,3.7615173,3
32585886036455,-0.5072784,9.140582,3.7663028,3
32585888415310,-0.5024927,9.135797,3.7567315,3
32585890794164,-0.51206404,9.12144,3.7615173,3
32585893172966,-0.55513483,9.107083,3.751946,3
32585895551820,-0.5694918,9.083155,3.7567315,3
32585897930674,-0.5838487,9.097511,3.7567315,3
32585900309528,-0.5982057,9.102298,3.751946,3
32585902688330,-0.6029913,9.107083,3.7567315,3
32585905067185,-0.6029913,9.102298,3.7471602,3
32585907446039,-0.57906306,9.107083,3.7328033,3
32585909824893,-0.56470615,9.097511,3.7280176,3
32585912203695,-0.53599226,9.107083,3.723232,3
32585914582549,-0.5407779,9.102298,3.7088752,3
32585916961403,-0.5455636,9.083155,3.7184465,3
32585919340257,-0.526421,9.12144,3.737589,3
32585921719060,-0.5168497,9.097511,3.737589,3
32585924097914,-0.526421,9.111869,3.7184465,3
32585926476768,-0.5024927,9.097511,3.723232,3
32585928855622,-0.5072784,9.107083,3.7280176,3
32585931234424,-0.49292147,9.107083,3.7423747,3
32585933613278,-0.49292147,9.111869,3.737589,3
32585935992132,-0.51206404,9.131011,3.7328033,3
32585938370987,-0.5072784,9.131011,3.7280176,3
32585940749789,-0.49292147,9.12144,3.7328033,3
32585943128643,-0.5024927,9.116654,3.7280176,3
32585945507497,-0.5024927,9.111869,3.7136607,3
32585947886351,-0.52163535,9.116654,3.7088752,3
32585950265153,-0.4881358,9.145369,3.7088752,3
32585952644007,-0.49292147,9.164511,3.7136607,3
32585955022862,-0.4977071,9.164511,3.7136607,3
32585957401716,-0.526421,9.150154,3.7136607,3
32585959780518,-0.5024927,9.140582,3.7088752,3
32585962159372,-0.4881358,9.126225,3.7088752,3
32585964538226,-0.5024927,9.150154,3.7088752,3
32585966917080,-0.49292147,9.145369,3.7040894,3
32585969295882,-0.4881358,9.140582,3.6753755,3
32585971674737,-0.47856453,9.131011,3.6753755,3
32585974053591,-0.51206404,9.107083,3.67059,3
32585976432445,-0.5312066,9.140582,3.6897326,3
32585978811247,-0.526421,9.135797,3.6849468,3
32585981190101,-0.52163535,9.12144,3.7040894,3
32585983568955,-0.526421,9.116654,3.6897326,3
32585985947810,-0.53599226,9.102298,3.6897326,3
32585988326612,-0.526421,9.107083,3.6849468,3
32585990705466,-0.526421,9.116654,3.6849468,3
32585993084320,-0.5024927,9.102298,3.6801612,3
32585995463174,-0.5168497,9.140582,3.6897326,3
32585997841976,-0.5168497,9.116654,3.6753755,3
32586000220830,-0.5024927,9.12144,3.6897326,3
32586002599685,-0.5072784,9.131011,3.6897326,3
32586004978487,-0.5072784,9.135797,3.7040894,3
32586007357341,-0.51206404,9.145369,3.7136607,3
32586009736195,-0.5024927,9.140582,3.7040894,3
32586012115049,-0.4833502,9.159725,3.7088752,3
32586014493903,-0.4881358,9.164511,3.6897326,3
32586016872705,-0.49292147,9.15494,3.7088752,3
32586019251560,-0.4642076,9.145369,3.6993039,3
32586021630414,-0.4642076,9.145369,3.7040894,3
32586024009268,-0.4833502,9.140582,3.7088752,3
32586026388070,-0.47856453,9.145369,3.7088752,3
32586028766924,-0.4881358,9.140582,3.6849468,3
32586031145778,-0.49292147,9.135797,3.6993039,3
32586033524632,-0.4881358,9.126225,3.7136607,3
32586035903435,-0.52163535,9.126225,3.7040894,3
32586038282289,-0.53599226,9.102298,3.7088752,3
32586040661143,-0.5312066,9.131011,3.6993039,3
32586043039997,-0.55513483,9.135797,3.694518,3
32586045418799,-0.56470615,9.12144,3.6993039,3
32586047797653,-0.5982057,9.12144,3.7088752,3
32586050176507,-0.6029913,9.111869,3.7136607,3
32586052555362,-0.5982057,9.107083,3.723232,3
32586054934164,-0.6269195,9.12144,3.7328033,3
32586057313018,-0.5982057,9.131011,3.737589,3
32586059691872,-0.5982057,9.107083,3.723232,3
32586062070726,-0.60777694,9.102298,3.723232,3
32586064449528,-0.5838487,9.126225,3.7184465,3
32586066828382,-0.57906306,9.116654,3.7423747,3
32586069207185,-0.5599205,9.140582,3.7567315,3
32586071586091,-0.52163535,9.135797,3.7567315,3
32586073964893,-0.4881358,9.111869,3.7710886,3
32586076343695,-0.5024927,9.107083,3.7758741,3
32586078722549,-0.5024927,9.097511,3.7663028,3
32586081101455,-0.47856453,9.107083,3.7615173,3
32586083480257,-0.46899325,9.12144,3.7806597,3
32586085859112,-0.44985065,9.12144,3.7806597,3
32586088237966,-0.44985065,9.102298,3.7615173,3
32586090616768,-0.43070808,9.097511,3.7615173,3
32586092995622,-0.43070808,9.08794,3.7615173,3
32586095374476,-0.44985065,9.097511,3.7854455,3
32586097753330,-0.4642076,9.08794,3.790231,3
32586100132185,-0.44985065,9.08794,3.7758741,3
32586102510987,-0.4354937,9.102298,3.7615173,3
32586104889789,-0.4354937,9.107083,3.7758741,3
32586107268695,-0.44506502,9.092726,3.7710886,3
32586109647549,-0.4546363,9.097511,3.7758741,3
32586112026247,-0.4833502,9.097511,3.7615173,3
32586114405205,-0.47856453,9.12144,3.7471602,3
32586116784060,-0.4833502,9.116654,3.751946,3
32586119162862,-0.5024927,9.131011,3.7567315,3
32586121541716,-0.4833502,9.145369,3.7710886,3
32586123920570,-0.47377887,9.164511,3.751946,3
32586126299424,-0.47377887,9.174082,3.751946,3
32586128678226,-0.47856453,9.150154,3.7423747,3
32586131057080,-0.47377887,9.145369,3.7184465,3
32586133435935,-0.46899325,9.140582,3.7423747,3
32586135814789,-0.47856453,9.140582,3.7423747,3
32586138193643,-0.49292147,9.150154,3.7184465,3
32586140572445,-0.4881358,9.150154,3.7088752,3
32586142951299,-0.47377887,9.159725,3.694518,3
32586145330153,-0.4642076,9.169296,3.6897326,3
32586147709007,-0.45942193,9.150154,3.6993039,3
32586150087810,-0.4881358,9.15494,3.7088752,3
32586152466664,-0.5312066,9.150154,3.7088752,3
32586154845518,-0.55513483,9.135797,3.6993039,3
32586157224320,-0.5407779,9.150154,3.694518,3
32586159603174,-0.55034924,9.145369,3.7136607,3
32586161982028,-0.56470615,9.150154,3.7136607,3
32586164360882,-0.5886344,9.140582,3.7184465,3
32586166739737,-0.57906306,9.126225,3.7088752,3
32586169118539,-0.5886344,9.126225,3.737589,3
32586171497393,-0.59342,9.140582,3.737589,3
32586173876247,-0.5886344,9.116654,3.737589,3
32586176255049,-0.59342,9.102298,3.751946,3
32586178633903,-0.59342,9.116654,3.751946,3
32586181012757,-0.60777694,9.097511,3.7471602,3
32586183391612,-0.5886344,9.083155,3.7328033,3
32586185770414,-0.5694918,9.107083,3.7328033,3
32586188149268,-0.5455636,9.116654,3.737589,3
32586190528122,-0.51206404,9.078369,3.7423747,3
32586192906924,-0.49292147,9.092726,3.7663028,3
32586195285830,-0.47856453,9.097511,3.7710886,3
32586197664632,-0.44506502,9.073584,3.751946,3
32586200043487,-0.44027936,9.107083,3.751946,3
32586202422341,-0.4019942,9.08794,3.7471602,3
32586204801195,-0.38285163,9.102298,3.7423747,3
32586207179997,-0.37328035,9.111869,3.7471602,3
32586209558851,-0.3589234,9.097511,3.7615173,3
32586211937705,-0.37328035,9.107083,3.7567315,3
32586214316507,-0.35413775,9.102298,3.7615173,3
32586216695362,-0.3589234,9.111869,3.751946,3
32586219074216,-0.3684947,9.12144,3.7471602,3
32586221453070,-0.41156548,9.116654,3.7471602,3
32586223831872,-0.4354937,9.116654,3.7280176,3
32586226210726,-0.44506502,9.126225,3.737589,3
32586228589580,-0.47377887,9.116654,3.7423747,3
32586230968435,-0.51206404,9.135797,3.723232,3
32586233347237,-0.5168497,9.131011,3.7136607,3
32586235726091,-0.51206404,9.135797,3.723232,3
32586238104945,-0.51206404,9.135797,3.7280176,3
32586240483799,-0.526421,9.150154,3.7280176,3
32586242862601,-0.53599226,9.126225,3.7136607,3
32586245241455,-0.53599226,9.131011,3.723232,3
32586247620310,-0.4977071,9.111869,3.7184465,3
32586249999164,-0.5072784,9.102298,3.7136607,3
32586252378018,-0.5024927,9.111869,3.6993039,3
32586254756820,-0.4881358,9.12144,3.7088752,3
32586257135674,-0.4833502,9.135797,3.7328033,3
32586259514528,-0.45942193,9.12144,3.7280176,3
32586261893330,-0.44027936,9.131011,3.7136607,3
32586264272185,-0.39720857,9.15494,3.7280176,3
32586266651039,-0.40677986,9.140582,3.7280176,3
32586269029893,-0.41156548,9.12144,3.7040894,3
32586271408695,-0.4019942,9.140582,3.7184465,3
32586273787549,-0.3684947,9.131011,3.6993039,3
32586276166403,-0.3684947,9.12144,3.7136607,3
32586278545257,-0.37806597,9.097511,3.7184465,3
32586280924060,-0.3684947,9.12144,3.723232,3
32586283302914,-0.39720857,9.131011,3.7088752,3
32586285681768,-0.43070808,9.12144,3.7136607,3
32586288060622,-0.44506502,9.126225,3.723232,3
32586290439424,-0.4642076,9.140582,3.723232,3
32586292818278,-0.4881358,9.111869,3.7136607,3
32586295197132,-0.5024927,9.140582,3.723232,3
32586297575987,-0.52163535,9.150154,3.7280176,3
32586299954789,-0.52163535,9.126225,3.7280176,3
32586302333643,-0.5455636,9.12144,3.7328033,3
32586304712497,-0.55513483,9.116654,3.7280176,3
32586307091351,-0.5694918,9.111869,3.7280176,3
32586309470101,-0.55034924,9.111869,3.7280176,3
32586311849007,-0.5407779,9.126225,3.7471602,3
32586314227862,-0.526421,9.135797,3.751946,3
32586316606716,-0.5312066,9.126225,3.7423747,3
32586318985518,-0.5072784,9.135797,3.737589,3
32586321364372,-0.4977071,9.126225,3.7328033,3
32586323743226,-0.47377887,9.116654,3.751946,3
32586326122080,-0.4642076,9.107083,3.7567315,3
32586328500882,-0.4211368,9.107083,3.7471602,3
32586330879737,-0.39720857,9.111869,3.7567315,3
32586333258591,-0.39720857,9.131011,3.7615173,3
32586335637445,-0.4211368,9.135797,3.7710886,3
32586338016247,-0.4019942,9.145369,3.7615173,3
32586340395101,-0.42592242,9.131011,3.7567315,3
32586342773955,-0.4354937,9.131011,3.751946,3
32586345152810,-0.4354937,9.12144,3.7663028,3
32586347531612,-0.42592242,9.135797,3.7471602,3
32586349910466,-0.4354937,9.116654,3.751946,3
32586352289320,-0.44506502,9.140582,3.751946,3
32586354668174,-0.47377887,9.145369,3.7423747,3
32586357046976,-0.52163535,9.131011,3.751946,3
32586359425778,-0.55513483,9.135797,3.737589,3
32586361804685,-0.5312066,9.150154,3.7471602,3
32586364183539,-0.53599226,9.15494,3.737589,3
32586366562341,-0.526421,9.145369,3.737589,3
32586368941195,-0.52163535,9.145369,3.7280176,3
32586371320049,-0.55513483,9.135797,3.7328033,3
32586373698903,-0.5455636,9.140582,3.7423747,3
32586376077705,-0.53599226,9.126225,3.751946,3
32586378456560,-0.5024927,9.131011,3.7423747,3
32586380835414,-0.4833502,9.111869,3.737589,3
32586383214268,-0.45942193,9.12144,3.7136607,3
32586385593070,-0.44506502,9.12144,3.723232,3
32586387971924,-0.4211368,9.131011,3.737589,3
32586390350778,-0.41156548,9.131011,3.7567315,3
32586392729580,-0.4211368,9.135797,3.751946,3
32586395108435,-0.4211368,9.140582,3.7423747,3
32586397487289,-0.39720857,9.150154,3.723232,3
32586399866143,-0.38763726,9.145369,3.7040894,3
32586402244945,-0.4019942,9.135797,3.723232,3
32586404623799,-0.4019942,9.131011,3.751946,3
32586407002653,-0.43070808,9.140582,3.7567315,3
32586409381507,-0.45942193,9.116654,3.7471602,3
32586411760362,-0.47377887,9.135797,3.7423747,3
32586414139164,-0.4833502,9.131011,3.7328033,3
32586416518018,-0.47377887,9.107083,3.7136607,3
32586418896872,-0.4977071,9.102298,3.7184465,3
32586421275726,-0.52163535,9.111869,3.723232,3
32586423654528,-0.5024927,9.116654,3.7088752,3
32586426033382,-0.53599226,9.102298,3.7184465,3
32586428412237,-0.5168497,9.111869,3.7136607,3
32586430791091,-0.47377887,9.111869,3.7136607,3
32586433169893,-0.45942193,9.116654,3.6993039,3
32586435548747,-0.4642076,9.116654,3.7040894,3
32586437927601,-0.4642076,9.131011,3.7040894,3
32586440306403,-0.42592242,9.102298,3.7280176,3
32586442685257,-0.4211368,9.107083,3.7136607,3
32586445064112,-0.41635114,9.135797,3.7040894,3
32586447442966,-0.42592242,9.131011,3.7040894,3
32586449821768,-0.42592242,9.140582,3.7184465,3
32586452200622,-0.4211368,9.135797,3.723232,3
32586454579476,-0.4354937,9.131011,3.723232,3
32586456958330,-0.43070808,9.145369,3.7328033,3
32586459337132,-0.4642076,9.135797,3.737589,3
32586461715987,-0.44027936,9.135797,3.7280176,3
32586464094841,-0.46899325,9.140582,3.7088752,3
32586466473695,-0.49292147,9.140582,3.6897326,3
32586468852497,-0.49292147,9.126225,3.6993039,3
32586471231351,-0.5072784,9.12144,3.7040894,3
32586473610205,-0.5312066,9.145369,3.723232,3
32586475989060,-0.55513483,9.135797,3.737589,3
32586478367862,-0.55513483,9.126225,3.7040894,3
32586480746716,-0.5694918,9.126225,3.7136607,3
32586483125570,-0.5694918,9.116654,3.7040894,3
32586485504424,-0.57906306,9.140582,3.723232,3
32586487883226,-0.5886344,9.135797,3.7280176,3
32586490262080,-0.57427746,9.135797,3.7328033,3
32586492640882,-0.5694918,9.116654,3.7184465,3
32586495019789,-0.5838487,9.111869,3.7184465,3
32586497398591,-0.5599205,9.116654,3.7328033,3
32586499777445,-0.5838487,9.126225,3.7280176,3
32586502156299,-0.56470615,9.135797,3.7328033,3
32586504535153,-0.5694918,9.126225,3.737589,3
32586506914007,-0.5599205,9.116654,3.7423747,3
32586509292810,-0.55513483,9.102298,3.7280176,3
32586511671664,-0.5168497,9.116654,3.7328033,3
32586514050518,-0.5072784,9.102298,3.737589,3
32586516429320,-0.51206404,9.083155,3.7280176,3
32586518808174,-0.47377887,9.083155,3.7280176,3
32586521187028,-0.4881358,9.092726,3.751946,3
32586523565882,-0.4642076,9.107083,3.737589,3
32586525944737,-0.45942193,9.12144,3.723232,3
32586528323539,-0.44985065,9.116654,3.7184465,3
32586530702393,-0.44985065,9.12144,3.7280176,3
32586533081247,-0.4642076,9.116654,3.7471602,3
32586535460049,-0.47377887,9.116654,3.7328033,3
32586537838903,-0.4833502,9.126225,3.7328033,3
32586540217757,-0.51206404,9.135797,3.7280176,3
32586542596612,-0.5024927,9.126225,3.7328033,3
32586544975414,-0.49292147,9.131011,3.737589,3
32586547354268,-0.51206404,9.126225,3.7184465,3
32586549733122,-0.55513483,9.111869,3.7328033,3
32586552111976,-0.55513483,9.131011,3.7136607,3
32586554490726,-0.57427746,9.107083,3.723232,3
32586556869632,-0.5838487,9.12144,3.7088752,3
32586559248487,-0.56470615,9.116654,3.7136607,3
32586561627341,-0.55034924,9.126225,3.7136607,3
32586564006143,-0.5694918,9.12144,3.7184465,3
32586566384997,-0.5694918,9.111869,3.7088752,3
32586568763851,-0.56470615,9.111869,3.7184465,3
32586571142705,-0.5455636,9.102298,3.7040894,3
32586573521507,-0.53599226,9.102298,3.7136607,3
