t_ns,ax,ay,az,accuracy
21490043947046,-0.7513463,8.843872,4.106084,3
21490046326057,-0.7704889,8.863015,4.101298,3
21490048705067,-0.8662018,8.863015,4.1204405,3
21490051084130,-0.9236295,8.863015,4.173083,3
21490053463140,-0.95712906,8.85823,4.2161536,3
21490055842150,-1.0336994,8.863015,4.2448673,3
21490058221213,-1.105484,8.863015,4.240082,3
21490060600223,-1.1772687,8.886943,4.211368,3
21490062979234,-1.2107682,8.882157,4.1922255,3
21490065358296,-1.2490535,8.877372,4.2257247,3
21490067737307,-1.2442678,8.863015,4.254439,3
21490070116317,-1.2634103,8.867801,4.302295,3
21490072495380,-1.2586247,8.867801,4.345366,3
21490074874390,-1.2203395,8.85823,4.3357944,3
21490077253400,-1.1772687,8.867801,4.3070807,3
21490079632411,-1.1246266,8.853444,4.278367,3
21490082011473,-1.0815558,8.863015,4.287938,3
21490084390484,-1.0289137,8.85823,4.3118663,3
21490086769494,-0.971486,8.872586,4.331009,3
21490089148557,-0.9523434,8.85823,4.3357944,3
21490091527567,-0.91884387,8.85823,4.3070807,3
21490093906577,-0.90448695,8.867801,4.2448673,3
21490096285588,-0.8709874,8.877372,4.211368,3
21490098664650,-0.91405827,8.906086,4.211368,3
21490101043661,-0.9379865,8.9108715,4.2352962,3
21490103422671,-0.9762716,8.896515,4.254439,3
21490105801734,-0.9954142,8.886943,4.2687955,3
21490108180744,-1.0432707,8.882157,4.287938,3
21490110559755,-1.0815558,8.872586,4.26401,3
21490112938765,-1.1389836,8.867801,4.2448673,3
21490115317827,-1.1533405,8.853444,4.249653,3
21490117696838,-1.1772687,8.819944,4.2592244,3
21490120075848,-1.1964114,8.82473,4.273581,3
21490122454911,-1.1533405,8.829515,4.2831526,3
21490124833921,-1.1294123,8.82473,4.254439,3
21490127212880,-1.1294123,8.834301,4.254439,3
21490129591994,-1.1006985,8.848659,4.206582,3
21490131971005,-1.038485,8.853444,4.1874394,3
21490134349963,-1.0001999,8.848659,4.1874394,3
21490136729025,-0.9523434,8.834301,4.1778684,3
21490139108088,-0.9284152,8.843872,4.2017965,3
21490141487098,-0.9092726,8.853444,4.173083,3
21490143866109,-0.8853444,8.863015,4.173083,3
21490146245171,-0.85184485,8.853444,4.1587257,3
21490148624182,-0.8470592,8.853444,4.1491547,3
21490151003192,-0.8422736,8.843872,4.173083,3
21490153382202,-0.86141616,8.829515,4.2017965,3
21490155761265,-0.89491564,8.79123,4.2352962,3
21490158140275,-0.91405827,8.7673025,4.26401,3
21490160519286,-0.9236295,8.752945,4.278367,3
21490162898348,-0.9619147,8.772088,4.302295,3
21490165277359,-0.98584294,8.7673025,4.3118663,3
21490167656369,-1.0193424,8.7673025,4.287938,3
21490170035432,-1.052842,8.781659,4.273581,3
21490172414442,-1.0576276,8.800801,4.3070807,3
21490174793452,-1.0911272,8.819944,4.3070807,3
21490177172463,-1.0959128,8.829515,4.2975097,3
21490179551525,-1.1294123,8.848659,4.2831526,3
21490181930536,-1.1246266,8.867801,4.273581,3
21490184309546,-1.1102697,8.85823,4.2687955,3
21490186688557,-1.119841,8.843872,4.2592244,3
21490189067619,-1.0959128,8.848659,4.254439,3
21490191446630,-1.0815558,8.839087,4.2687955,3
21490193825640,-1.0671989,8.79123,4.2687955,3
21490196204702,-1.0576276,8.810373,4.2592244,3
21490198583713,-1.0432707,8.815159,4.254439,3
21490200962723,-1.0336994,8.810373,4.23051,3
21490203341786,-1.038485,8.829515,4.2257247,3
21490205720796,-1.0336994,8.853444,4.23051,3
21490208099807,-1.0624132,8.863015,4.2352962,3
21490210478817,-1.0671989,8.877372,4.249653,3
21490212857880,-1.119841,8.891729,4.240082,3
21490215236890,-1.1294123,8.886943,4.2448673,3
21490217615900,-1.1724831,8.9108715,4.26401,3
21490219994963,-1.1772687,8.9348,4.2592244,3
21490222373973,-1.1964114,8.891729,4.249653,3
21490224752932,-1.1916257,8.915657,4.240082,3
21490227132046,-1.1916257,8.930014,4.2448673,3
21490229511057,-1.1820544,8.906086,4.273581,3
21490231890067,-1.1676974,8.9013,4.302295,3
21490234269077,-1.134198,8.863015,4.316652,3
21490236648140,-1.0959128,8.834301,4.331009,3
21490239027150,-1.0911272,8.815159,4.359723,3
21490241406161,-1.052842,8.815159,4.3836513,3
21490243785171,-1.0145568,8.810373,4.3788652,3
21490246164234,-0.9523434,8.82473,4.3788652,3
21490248543244,-0.9092726,8.834301,4.359723,3
21490250922255,-0.8853444,8.843872,4.3070807,3
21490253301317,-0.8805587,8.872586,4.2927237,3
21490255680327,-0.8709874,8.877372,4.2592244,3
21490258059338,-0.8709874,8.867801,4.254439,3
21490260438400,-0.8709874,8.886943,4.249653,3
21490262817411,-0.9236295,8.872586,4.2161536,3
21490265196421,-0.95712906,8.877372,4.2161536,3
21490267575432,-0.9810573,8.877372,4.1778684,3
21490269954494,-1.0289137,8.85823,4.1587257,3
21490272333505,-1.0624132,8.834301,4.125226,3
21490274712515,-1.0719845,8.839087,4.1108694,3
21490277091577,-1.1006985,8.815159,4.1108694,3
21490279470588,-1.1294123,8.805588,4.0965123,3
21490281849598,-1.1581261,8.819944,4.0773697,3
21490284228661,-1.1629118,8.82473,4.0869412,3
21490286607671,-1.1772687,8.82473,4.101298,3
21490288986682,-1.1820544,8.834301,4.106084,3
21490291365692,-1.1724831,8.848659,4.1204405,3
21490293744755,-1.1294123,8.834301,4.139583,3
21490296123765,-1.1437693,8.863015,4.173083,3
21490298502775,-1.105484,8.882157,4.1778684,3
21490300881838,-1.0767702,8.891729,4.182654,3
21490303260848,-1.0241281,8.877372,4.197011,3
21490305639859,-0.9810573,8.877372,4.220939,3
21490308018921,-0.94755775,8.877372,4.254439,3
21490310397932,-0.91405827,8.843872,4.316652,3
21490312776942,-0.91884387,8.839087,4.354937,3
21490315155952,-0.89491564,8.829515,4.369294,3
21490317535015,-0.8757731,8.805588,4.388437,3
21490319914025,-0.8709874,8.786445,4.3932223,3
21490322293036,-0.8757731,8.786445,4.4075794,3
21490324672098,-0.8662018,8.796016,4.398008,3
21490327051109,-0.8805587,8.805588,4.3788652,3
21490329430119,-0.91884387,8.819944,4.359723,3
21490331809130,-0.94277215,8.834301,4.3357944,3
21490334188192,-0.98584294,8.839087,4.3070807,3
21490336567202,-1.0336994,8.863015,4.287938,3
21490338946213,-1.0767702,8.9013,4.26401,3
21490341325275,-1.119841,8.891729,4.26401,3
21490343704286,-1.1724831,8.867801,4.254439,3
21490346083296,-1.1964114,8.882157,4.23051,3
21490348462307,-1.2107682,8.872586,4.2161536,3
21490350841369,-1.2299109,8.867801,4.15394,3
21490353220380,-1.2442678,8.886943,4.1443686,3
21490355599390,-1.2490535,8.863015,4.139583,3
21490357978452,-1.2442678,8.863015,4.1443686,3
21490360357463,-1.2203395,8.843872,4.168297,3
21490362736473,-1.1437693,8.853444,4.1922255,3
21490365115536,-1.1294123,8.853444,4.206582,3
21490367494546,-1.1006985,8.853444,4.197011,3
21490369873557,-1.0863415,8.872586,4.173083,3
21490372252619,-1.0480564,8.853444,4.168297,3
21490374631630,-1.0145568,8.85823,4.1587257,3
21490377010640,-1.0145568,8.867801,4.15394,3
21490379389650,-1.0049855,8.877372,4.1635113,3
21490381768713,-1.0193424,8.891729,4.173083,3
21490384147723,-1.0241281,8.891729,4.2161536,3
21490386526734,-1.0480564,8.882157,4.2161536,3
21490388905744,-1.0432707,8.886943,4.2161536,3
21490391284807,-1.038485,8.906086,4.2352962,3
21490393663817,-1.0480564,8.891729,4.254439,3
21490396042827,-1.0624132,8.872586,4.2831526,3
21490398421890,-1.0671989,8.839087,4.3070807,3
21490400800900,-1.0671989,8.82473,4.3118663,3
21490403179911,-1.0576276,8.829515,4.3262234,3
21490405558973,-1.0289137,8.829515,4.3501515,3
21490407937984,-1.0145568,8.82473,4.3501515,3
21490410316994,-1.0049855,8.805588,4.3357944,3
21490412696005,-0.9762716,8.82473,4.345366,3
21490415075067,-0.95712906,8.815159,4.3501515,3
21490417454077,-0.9523434,8.79123,4.345366,3
21490419833088,-0.91884387,8.772088,4.2975097,3
21490422212150,-0.91884387,8.805588,4.254439,3
21490424591161,-0.94277215,8.805588,4.1874394,3
21490426970171,-0.95712906,8.819944,4.168297,3
21490429349234,-0.9810573,8.848659,4.139583,3
21490431728244,-0.9906286,8.863015,4.1347976,3
21490434107255,-1.0480564,8.853444,4.130012,3
21490436486265,-1.0863415,8.867801,4.1204405,3
21490438865275,-1.1102697,8.872586,4.106084,3
21490441244338,-1.1676974,8.863015,4.0869412,3
21490443623348,-1.1964114,8.877372,4.0965123,3
21490446002411,-1.2107682,8.863015,4.130012,3
21490448381421,-1.2107682,8.834301,4.168297,3
21490450760432,-1.2059826,8.829515,4.197011,3
21490453139442,-1.2011969,8.800801,4.23051,3
21490455518505,-1.1916257,8.800801,4.254439,3
21490457897515,-1.1629118,8.781659,4.2592244,3
21490460276525,-1.1389836,8.762517,4.254439,3
21490462655588,-1.105484,8.7673025,4.249653,3
21490465034598,-1.0863415,8.776874,4.2592244,3
21490467413609,-1.0719845,8.786445,4.2975097,3
21490469792671,-1.0480564,8.79123,4.321438,3
21490472171682,-1.0336994,8.819944,4.321438,3
21490474550692,-1.0145568,8.819944,4.321438,3
21490476929702,-1.0049855,8.843872,4.302295,3
21490479308765,-1.0001999,8.853444,4.302295,3
21490481687775,-1.0193424,8.877372,4.2831526,3
21490484066786,-1.0241281,8.877372,4.3070807,3
21490486445848,-1.0336994,8.867801,4.3070807,3
21490488824859,-1.0624132,8.848659,4.331009,3
21490491203869,-1.0863415,8.886943,4.345366,3
21490493582880,-1.134198,8.872586,4.354937,3
21490495961942,-1.1437693,8.853444,4.3501515,3
21490498340952,-1.1533405,8.85823,4.331009,3
21490500719963,-1.1772687,8.829515,4.3501515,3
21490503098973,-1.1772687,8.872586,4.331009,3
21490505478036,-1.18684,8.891729,4.3405805,3
21490507857046,-1.1629118,8.891729,4.302295,3
21490510236109,-1.1389836,8.891729,4.254439,3
21490512615119,-1.105484,8.906086,4.2017965,3
21490514994130,-1.0815558,8.925228,4.168297,3
21490517373192,-1.0480564,8.915657,4.1635113,3
21490519752202,-1.0193424,8.920443,4.173083,3
21490522131213,-0.98584294,8.925228,4.1587257,3
21490524510223,-0.971486,8.930014,4.15394,3
21490526889286,-0.93320084,8.920443,4.130012,3
21490529268296,-0.91405827,8.906086,4.101298,3
21490531647307,-0.9236295,8.896515,4.0965123,3
21490534026369,-0.9236295,8.877372,4.125226,3
21490536405380,-0.9236295,8.82473,4.168297,3
21490538784390,-0.89491564,8.82473,4.2161536,3
21490541163400,-0.8853444,8.819944,4.2592244,3
21490543542463,-0.8805587,8.79123,4.26401,3
21490545921473,-0.8757731,8.805588,4.278367,3
21490548300484,-0.8709874,8.776874,4.2975097,3
21490550679546,-0.85184485,8.786445,4.321438,3
21490553058557,-0.83748794,8.776874,4.3357944,3
21490555437567,-0.8135597,8.7673025,4.345366,3
21490557816630,-0.8135597,8.786445,4.3262234,3
21490560195640,-0.80877405,8.800801,4.287938,3
21490562574650,-0.81834537,8.834301,4.249653,3
21490564953661,-0.81834537,8.85823,4.1922255,3
21490567332723,-0.8279166,8.872586,4.1778684,3
21490569711734,-0.85184485,8.877372,4.182654,3
21490572090744,-0.91405827,8.877372,4.2017965,3
21490574469807,-1.0001999,8.9013,4.240082,3
21490576848817,-1.0576276,8.9013,4.2352962,3
21490579227827,-1.0959128,8.920443,4.23051,3
21490581606838,-1.1485549,8.896515,4.23051,3
21490583985900,-1.1629118,8.867801,4.249653,3
21490586364911,-1.2059826,8.863015,4.26401,3
21490588743921,-1.2107682,8.85823,4.2831526,3
21490591122984,-1.18684,8.829515,4.3070807,3
21490593501942,-1.1724831,8.834301,4.321438,3
21490595881005,-1.1581261,8.805588,4.3070807,3
21490598260067,-1.1102697,8.796016,4.316652,3
21490600639077,-1.1006985,8.805588,4.3070807,3
21490603018088,-1.0671989,8.805588,4.2975097,3
21490605397098,-1.0336994,8.815159,4.287938,3
21490607776161,-1.0097711,8.829515,4.2448673,3
21490610155171,-0.9810573,8.85823,4.2257247,3
21490612534182,-1.0001999,8.906086,4.206582,3
21490614913244,-1.0241281,8.920443,4.173083,3
21490617292255,-1.0863415,8.925228,4.182654,3
21490619671265,-1.1150553,8.9108715,4.182654,3
21490622050327,-1.1772687,8.9013,4.197011,3
21490624429338,-1.2251252,8.9013,4.2161536,3
21490626808348,-1.282553,8.863015,4.220939,3
21490629187359,-1.3256238,8.82473,4.254439,3
21490631566421,-1.3830515,8.79123,4.287938,3
21490633945432,-1.4069797,8.7673025,4.321438,3
21490636324442,-1.402194,8.7577305,4.3645086,3
21490638703505,-1.3974084,8.776874,4.345366,3
21490641082515,-1.3782659,8.79123,4.302295,3
21490643461525,-1.3304094,8.796016,4.254439,3
21490645840536,-1.2969099,8.819944,4.2448673,3
21490648219598,-1.268196,8.839087,4.23051,3
21490650598609,-1.2059826,8.853444,4.23051,3
21490652977619,-1.1676974,8.85823,4.2448673,3
21490655356682,-1.1246266,8.877372,4.206582,3
21490657735692,-1.0815558,8.915657,4.1778684,3
21490660114650,-1.0671989,8.939586,4.1587257,3
21490662493765,-1.0432707,8.925228,4.1635113,3
21490664872775,-1.0049855,8.9108715,4.1587257,3
21490667251786,-1.0097711,8.9013,4.1587257,3
21490669630796,-0.9954142,8.867801,4.1778684,3
21490672009859,-0.98584294,8.848659,4.1874394,3
21490674388869,-0.98584294,8.843872,4.220939,3
21490676767880,-0.98584294,8.79123,4.240082,3
21490679146942,-0.98584294,8.7577305,4.2831526,3
21490681525952,-0.971486,8.743374,4.321438,3
21490683904963,-0.95712906,8.738588,4.359723,3
21490686284025,-0.9762716,8.748159,4.354937,3
21490688663036,-0.9810573,8.738588,4.3070807,3
21490691042046,-0.9523434,8.776874,4.2687955,3
21490693421109,-0.9762716,8.82473,4.2161536,3
21490695800119,-0.9762716,8.863015,4.173083,3
21490698179130,-0.9954142,8.882157,4.182654,3
21490700558140,-1.0097711,8.925228,4.182654,3
21490702937202,-1.0624132,8.949157,4.1778684,3
21490705316213,-1.1006985,8.939586,4.1587257,3
21490707695223,-1.1006985,8.939586,4.130012,3
21490710074286,-1.1150553,8.944371,4.1108694,3
21490712453296,-1.1150553,8.939586,4.1204405,3
21490714832307,-1.1485549,8.939586,4.1587257,3
21490717211317,-1.134198,8.920443,4.1922255,3
21490719590380,-1.1389836,8.886943,4.2161536,3
21490721969390,-1.1246266,8.863015,4.2448673,3
21490724348400,-1.105484,8.872586,4.26401,3
21490726727463,-1.0719845,8.829515,4.2975097,3
21490729106473,-1.0624132,8.79123,4.3357944,3
21490731485484,-1.0336994,8.7577305,4.369294,3
21490733864546,-1.0289137,8.738588,4.3932223,3
21490736243557,-1.0336994,8.743374,4.402794,3
21490738622567,-1.0241281,8.748159,4.369294,3
21490741001577,-1.038485,8.7673025,4.3262234,3
21490743380640,-1.052842,8.772088,4.2831526,3
21490745759650,-1.105484,8.800801,4.220939,3
21490748138661,-1.1772687,8.834301,4.2161536,3
21490750517723,-1.2251252,8.877372,4.220939,3
21490752896734,-1.282553,8.872586,4.240082,3
21490755275744,-1.3256238,8.867801,4.249653,3
21490757654807,-1.3830515,8.886943,4.273581,3
21490760033817,-1.416551,8.872586,4.278367,3
21490762412827,-1.430908,8.85823,4.302295,3
21490764791838,-1.4644074,8.829515,4.3118663,3
21490767170900,-1.4691931,8.819944,4.331009,3
21490769549911,-1.4596218,8.796016,4.3501515,3
21490771928973,-1.4117653,8.79123,4.3788652,3
21490774307984,-1.3734802,8.805588,4.398008,3
21490776686994,-1.3160524,8.805588,4.426722,3
21490779066005,-1.2442678,8.815159,4.465007,3
21490781445067,-1.1629118,8.872586,4.4315076,3
21490783824077,-1.1006985,8.9013,4.398008,3
21490786203088,-1.0097711,8.963513,4.354937,3
21490788582150,-0.9284152,8.987442,4.3118663,3
21490790961161,-0.8279166,8.987442,4.287938,3
21490793340171,-0.79441714,9.016156,4.2448673,3
21490795719182,-0.7848458,8.992228,4.240082,3
21490798098244,-0.7513463,8.9826565,4.2161536,3
21490800477255,-0.72741807,8.987442,4.206582,3
21490802856265,-0.7082755,8.953942,4.173083,3
21490805235327,-0.70348984,8.925228,4.139583,3
21490807614338,-0.7178468,8.886943,4.101298,3
21490809993348,-0.72741807,8.839087,4.1108694,3
21490812372411,-0.76570326,8.805588,4.130012,3
21490814751421,-0.7752745,8.781659,4.1491547,3
21490817130432,-0.8135597,8.781659,4.182654,3
21490819509442,-0.8135597,8.781659,4.206582,3
21490821888505,-0.80877405,8.7673025,4.2352962,3
21490824267515,-0.7800602,8.752945,4.2448673,3
21490826646525,-0.7848458,8.7577305,4.23051,3
21490829025588,-0.7704889,8.7577305,4.23051,3
21490831404598,-0.75613195,8.79123,4.2352962,3
21490833783609,-0.74177504,8.839087,4.2161536,3
21490836162671,-0.7465607,8.867801,4.1778684,3
21490838541682,-0.7369894,8.891729,4.15394,3
21490840920692,-0.7369894,8.9108715,4.115655,3
21490843299702,-0.7322037,8.915657,4.082155,3
21490845678765,-0.72741807,8.877372,4.091727,3
21490848057775,-0.72263247,8.810373,4.115655,3
21490850436786,-0.71306115,8.776874,4.1491547,3
21490852815848,-0.7178468,8.729017,4.1778684,3
21490855194859,-0.7465607,8.671589,4.2161536,3
21490857573869,-0.76570326,8.63809,4.2352962,3
21490859952880,-0.7848458,8.575876,4.2687955,3
21490862331942,-0.7848458,8.547162,4.3357944,3
21490864710952,-0.8470592,8.508878,4.412365,3
21490867090015,-0.8662018,8.513663,4.493721,3
21490869469025,-0.8997013,8.575876,4.5320063,3
21490871848036,-0.9092726,8.618947,4.5224347,3
21490874227046,-0.94277215,8.657232,4.4841495,3
21490876606109,-0.94277215,8.729017,4.4554358,3
21490878985119,-0.9619147,8.796016,4.4745784,3
21490881364130,-0.9619147,8.863015,4.503292,3
21490883743192,-0.9906286,8.939586,4.4841495,3
21490886122202,-1.0241281,9.020942,4.398008,3
21490888501161,-1.0767702,9.08794,4.3118663,3
21490890880223,-1.0959128,9.083155,4.2448673,3
21490893259286,-1.1485549,9.078369,4.2257247,3
21490895638296,-1.1820544,9.102298,4.249653,3
21490898017307,-1.2394822,9.092726,4.2927237,3
21490900396369,-1.2873386,9.092726,4.2687955,3
21490902775380,-1.3208381,9.102298,4.2257247,3
21490905154390,-1.3112668,9.116654,4.182654,3
21490907533452,-1.3064811,9.126225,4.139583,3
21490909912463,-1.3016955,9.140582,4.115655,3
21490912291473,-1.282553,9.131011,4.1347976,3
21490914670484,-1.2586247,9.107083,4.220939,3
21490917049494,-1.2490535,9.068798,4.2831526,3
21490919428557,-1.18684,9.035298,4.2975097,3
21490921807567,-1.1150553,9.01137,4.26401,3
21490924186630,-1.0480564,9.01137,4.211368,3
21490926565640,-0.971486,8.977871,4.15394,3
21490928944650,-0.8805587,8.915657,4.130012,3
21490931323713,-0.80877405,8.863015,4.1635113,3
21490933702723,-0.7369894,8.834301,4.1874394,3
21490936081734,-0.66999036,8.800801,4.2017965,3
21490938460744,-0.61734825,8.79123,4.173083,3
21490940839807,-0.55034924,8.762517,4.125226,3
21490943218817,-0.4881358,8.776874,4.0965123,3
21490945597827,-0.47856453,8.7577305,4.101298,3
21490947976890,-0.4881358,8.752945,4.1347976,3
21490950355900,-0.49292147,8.752945,4.2017965,3
21490952734911,-0.52163535,8.724232,4.249653,3
21490955113973,-0.57427746,8.729017,4.26401,3
21490957492984,-0.6269195,8.738588,4.23051,3
21490959871994,-0.71306115,8.743374,4.2448673,3
21490962251057,-0.79441714,8.733803,4.26401,3
21490964630067,-0.8470592,8.733803,4.287938,3
21490967009077,-0.9092726,8.7577305,4.3070807,3
21490969388140,-0.9523434,8.776874,4.2975097,3
21490971767150,-0.9810573,8.810373,4.26401,3
21490974146161,-0.98584294,8.829515,4.2257247,3
21490976525171,-0.9810573,8.843872,4.206582,3
21490978904234,-0.9667004,8.853444,4.2017965,3
21490981283244,-0.94277215,8.877372,4.2017965,3
21490983662255,-0.9092726,8.896515,4.206582,3
21490986041317,-0.8662018,8.915657,4.1922255,3
21490988420327,-0.83748794,8.906086,4.1491547,3
21490990799286,-0.7800602,8.896515,4.1347976,3
21490993178348,-0.7609176,8.915657,4.1347976,3
21490995557411,-0.7704889,8.920443,4.1635113,3
21490997936421,-0.7848458,8.896515,4.1922255,3
21491000315432,-0.7752745,8.886943,4.2592244,3
21491002694494,-0.79441714,8.877372,4.3070807,3
21491005073505,-0.8470592,8.85823,4.3357944,3
21491007452515,-0.89013004,8.848659,4.3740797,3
21491009831577,-0.9284152,8.829515,4.369294,3
21491012210588,-0.98584294,8.810373,4.359723,3
21491014589598,-1.0432707,8.776874,4.398008,3
21491016968661,-1.105484,8.762517,4.4315076,3
21491019347671,-1.1533405,8.781659,4.4602213,3
21491021726682,-1.1820544,8.7577305,4.4889355,3
21491024105744,-1.2203395,8.7673025,4.4410787,3
21491026484755,-1.2442678,8.748159,4.3788652,3
21491028863765,-1.2346965,8.738588,4.3262234,3
21491031242775,-1.2299109,8.752945,4.331009,3
21491033621838,-1.1964114,8.7577305,4.345366,3
21491036000848,-1.1772687,8.752945,4.3645086,3
21491038379859,-1.1437693,8.772088,4.3357944,3
21491040758921,-1.1006985,8.829515,4.2687955,3
21491043137932,-1.0432707,8.82473,4.1922255,3
21491045516942,-0.9762716,8.800801,4.125226,3
21491047896005,-0.94277215,8.752945,4.082155,3
21491050275015,-0.9762716,8.810373,4.1874394,3
21491052654025,-0.91405827,8.733803,4.273581,3
21491055032984,-0.9667004,8.79123,4.369294,3
21491057412098,-0.971486,8.800801,4.321438,3
21491059791109,-0.94755775,8.839087,4.168297,3
21491062170119,-0.9619147,8.9013,4.0390844,3
21491064549182,-1.052842,8.953942,4.0677986,3
21491066928192,-1.0719845,8.915657,4.220939,3
21491069307202,-1.1150553,8.925228,4.388437,3
21491071686265,-1.0911272,8.997013,4.4602213,3
21491074065275,-1.119841,9.01137,4.398008,3
21491076444286,-1.1150553,9.030513,4.2927237,3
21491078823296,-1.0911272,9.08794,4.1922255,3
21491081202359,-1.0767702,9.107083,4.1587257,3
21491083581369,-1.0241281,9.078369,4.173083,3
21491085960380,-1.0336994,9.111869,4.302295,3
21491088339442,-0.94277215,9.030513,4.398008,3
21491090718452,-0.8805587,8.987442,4.465007,3
21491093097463,-0.7800602,9.025727,4.421936,3
21491095476525,-0.7513463,9.049655,4.359723,3
21491097855536,-0.6412765,8.9013,4.240082,3
21491100234546,-0.5886344,8.843872,4.211368,3
21491102613609,-0.4881358,8.867801,4.2831526,3
21491104992619,-0.4833502,8.810373,4.354937,3
21491107371630,-0.47856453,8.748159,4.4075794,3
21491109750640,-0.47377887,8.738588,4.4171505,3
21491112129702,-0.47377887,8.7577305,4.3645086,3
21491114508713,-0.5168497,8.695518,4.287938,3
21491116887723,-0.57906306,8.738588,4.249653,3
21491119266786,-0.6221339,8.805588,4.1204405,3
21491121645796,-0.6891329,8.776874,4.0677986,3
21491124024807,-0.79920274,8.800801,4.0869412,3
21491126403869,-0.8039884,8.810373,4.1443686,3
21491128782880,-0.8997013,8.719446,4.2687955,3
21491131161890,-0.93320084,8.79123,4.321438,3
21491133540952,-0.9619147,8.9108715,4.1874394,3
21491135919963,-0.9810573,8.853444,4.024728,3
21491138298973,-1.038485,8.896515,3.9864426,3
21491140677984,-0.9284152,8.843872,3.7854455,3
21491143057046,-1.0145568,8.786445,3.8907297,3
21491145436057,-0.971486,8.618947,4.240082,3
21491147815067,-0.91405827,8.628518,4.685147,3
21491150194130,-0.8757731,8.60459,4.74736,3
21491152573140,-0.8135597,8.618947,4.402794,3
21491154952150,-0.6652047,8.7577305,3.8955152,3
21491157331213,-0.6269195,8.815159,3.6179478,3
21491159710223,-0.61734825,8.796016,3.7423747,3
21491162089182,-0.5312066,8.810373,4.101298,3
21491164468244,-0.5886344,8.853444,4.493721,3
21491166847307,-0.6556334,8.839087,4.7282176,3
21491169226317,-0.66041905,8.810373,4.6803613,3
21491171605380,-0.7082755,8.891729,4.4410787,3
21491173984390,-0.7896315,8.939586,4.101298,3
21491176363400,-0.91405827,8.9108715,3.9481573,3
21491178742411,-1.0145568,8.9348,4.139583,3
21491181121473,-1.105484,8.9826565,4.4554358,3
21491183500484,-1.2394822,8.920443,4.709075,3
21491185879494,-1.3304094,8.9826565,4.7856455,3
21491188258557,-1.3926228,9.030513,4.5894337,3
21491190637567,-1.4596218,9.025727,4.3405805,3
21491193016577,-1.5553347,9.035298,4.2687955,3
21491195395640,-1.564906,9.102298,4.4410787,3
21491197774650,-1.5936198,9.140582,4.7042894,3
21491200153661,-1.5361922,9.164511,4.8191447,3
21491202532671,-1.3974084,9.159725,4.6372905,3
21491204911734,-1.282553,9.126225,4.26401,3
21491207290744,-1.2155539,9.020942,3.900301,3
21491209669755,-1.1102697,8.9013,3.804588,3
21491212048817,-1.0863415,8.867801,4.101298,3
21491214427827,-0.9954142,8.676374,4.421936,3
21491216806838,-1.0480564,8.700303,4.867001,3
21491219185900,-0.8853444,8.647661,4.8526444,3
21491221564911,-0.8470592,8.724232,4.4554358,3
21491223943921,-0.7465607,8.805588,3.8524444,3
21491226322932,-0.67477596,8.839087,3.4648073,3
21491228701994,-0.5982057,8.805588,3.4791641,3
21491231081005,-0.61734825,8.748159,3.8237305,3
21491233460015,-0.6221339,8.709874,4.3070807,3
21491235839077,-0.6652047,8.63809,4.599005,3
21491238218088,-0.66041905,8.652447,4.575077,3
21491240597098,-0.65084773,8.657232,4.26401,3
21491242976161,-0.6412765,8.719446,3.9242291,3
21491245355171,-0.64606214,8.738588,3.737589,3
21491247734182,-0.63170516,8.772088,3.8668015,3
21491250113244,-0.5982057,8.752945,4.182654,3
21491252492255,-0.5982057,8.743374,4.465007,3
21491254871265,-0.56470615,8.79123,4.5224347,3
21491257250327,-0.49292147,8.843872,4.3118663,3
21491259629338,-0.4546363,8.886943,4.0103707,3
21491262008348,-0.39720857,8.930014,3.842873,3
21491264387359,-0.38763726,8.9348,3.9242291,3
21491266766421,-0.37806597,8.906086,4.1922255,3
21491269145432,-0.3924229,8.891729,4.4554358,3
21491271524442,-0.38763726,8.9013,4.570291,3
21491273903505,-0.4019942,8.944371,4.4410787,3
21491276282515,-0.42592242,8.9826565,4.1922255,3
21491278661525,-0.4833502,8.997013,3.991228,3
21491281040536,-0.5599205,9.025727,3.9673,3
21491283419598,-0.64606214,8.997013,4.125226,3
21491285798609,-0.76570326,8.939586,4.345366,3
21491288177619,-0.89491564,8.872586,4.4745784,3
21491290556682,-0.9810573,8.867801,4.436293,3
21491292935692,-1.1150553,8.815159,4.2592244,3
21491295314650,-1.2107682,8.79123,4.130012,3
21491297693765,-1.2969099,8.819944,4.048656,3
21491300072775,-1.3926228,8.752945,4.130012,3
21491302451786,-1.430908,8.5423765,4.354937,3
21491304830848,-1.4835501,8.504091,4.6372905,3
21491307209859,-1.5074782,8.690732,4.847859,3
21491309588869,-1.4739788,8.532805,4.5559344,3
21491311967932,-1.4883357,8.705089,4.3070807,3
21491314346942,-1.4596218,8.690732,4.0103707,3
21491316725952,-1.4787644,8.819944,4.1108694,3
21491319105015,-1.430908,8.642876,4.1778684,3
21491321484025,-1.4213367,8.709874,4.4458647,3
21491323863036,-1.4739788,8.7673025,4.5894337,3
21491326242046,-1.3782659,8.819944,4.584648,3
21491328621109,-1.430908,8.819944,4.3357944,3
21491331000119,-1.3878372,8.944371,4.1108694,3
21491333379130,-1.3639089,8.930014,3.9960139,3
21491335758192,-1.2729816,8.992228,4.1108694,3
21491338137202,-1.3591232,9.068798,4.321438,3
21491340516213,-1.282553,9.064013,4.4985065,3
21491342895275,-1.282553,9.064013,4.508078,3
21491345274286,-1.2251252,9.0544405,4.3357944,3
21491347653296,-1.268196,9.107083,4.197011,3
21491350032359,-1.1629118,9.107083,4.101298,3
21491352411369,-1.1150553,9.131011,4.082155,3
21491354790380,-1.0815558,9.178867,4.1635113,3
21491357169390,-0.94755775,9.174082,4.254439,3
21491359548452,-0.8566305,9.193225,4.254439,3
21491361927463,-0.7752745,9.174082,4.0677986,3
21491364306473,-0.66041905,9.097511,3.7998023,3
21491366685536,-0.5455636,9.083155,3.6897326,3
21491369064546,-0.47856453,8.997013,3.790231,3
21491371443557,-0.43070808,8.896515,4.0773697,3
21491373822619,-0.3684947,8.772088,4.316652,3
21491376201630,-0.3684947,8.623733,4.3405805,3
21491378580640,-0.4019942,8.63809,4.302295,3
21491380959702,-0.4833502,8.537591,4.220939,3
21491383338713,-0.46899325,8.609376,4.2352962,3
21491385717723,-0.55034924,8.609376,4.1204405,3
21491388096734,-0.6221339,8.705089,4.2161536,3
21491390475796,-0.6795616,8.685946,4.3788652,3
21491392854807,-0.7178468,8.700303,4.6468616,3
21491395233817,-0.79920274,8.724232,4.709075,3
21491397612880,-0.81834537,8.762517,4.570291,3
21491399991890,-0.8279166,8.839087,4.369294,3
21491402370900,-0.8422736,8.85823,4.197011,3
21491404749963,-0.8757731,8.853444,4.1108694,3
21491407128973,-0.90448695,8.7673025,4.1491547,3
21491409507984,-0.94755775,8.776874,4.331009,3
21491411887046,-0.9762716,8.719446,4.426722,3
21491414266057,-1.0145568,8.738588,4.354937,3
21491416645067,-1.0336994,8.709874,4.058227,3
21491419024130,-1.1150553,8.71466,3.7663028,3
21491421403140,-1.1772687,8.695518,3.7184465,3
21491423782150,-1.2203395,8.705089,3.9050865,3
21491426161161,-1.3016955,8.71466,4.182654,3
21491428540223,-1.3543376,8.810373,4.3501515,3
21491430919234,-1.3639089,8.834301,4.182654,3
21491433298296,-1.3447664,8.872586,3.8620157,3
21491435677307,-1.3734802,8.925228,3.6514473,3
21491438056317,-1.3686945,8.949157,3.737589,3
21491440435327,-1.3926228,8.958728,3.991228,3
21491442814390,-1.3782659,8.9108715,4.249653,3
21491445193400,-1.3686945,8.939586,4.4410787,3
21491447572411,-1.3016955,8.915657,4.4841495,3
21491449951473,-1.1820544,8.920443,4.4315076,3
21491452330484,-1.0336994,8.872586,4.249653,3
21491454709494,-0.8757731,8.867801,4.125226,3
21491457088557,-0.72263247,8.695518,4.0438704,3
21491459467567,-0.71306115,9.221938,4.7138605,3
21491461846577,-0.3684947,8.642876,4.2257247,3
21491464225588,-0.7704889,8.446664,3.885944,3
21491466604650,-0.12921242,9.064013,4.3501515,3
21491468983661,-0.6412765,9.250652,5.6757755,3
21491471362671,-0.02871387,8.126026,4.74736,3
21491473741734,-0.6125626,9.078369,4.2927237,3
21491476120744,-0.18664017,9.174082,3.359523,3
21491478499755,-0.61734825,9.016156,4.173083,3
21491480878817,-0.043070808,8.805588,4.948357,3
21491483257827,-0.75613195,8.953942,5.4987063,3
21491485636838,-0.25842485,8.882157,4.814359,3
21491488015848,-0.72741807,8.925228,4.2161536,3
21491490394911,-0.47856453,9.049655,4.063013,3
21491492773921,-0.6987042,8.953942,4.5798626,3
21491495152932,-0.5407779,8.829515,4.685147,3
21491497531994,-0.7369894,8.642876,4.345366,3
21491499911005,-0.71306115,8.997013,4.3405805,3
21491502290015,-0.6652047,8.609376,4.4889355,3
21491504669077,-0.6029913,8.56152,4.9196434,3
21491507048088,-0.5455636,8.432307,4.694718,3
21491509427098,-0.6221339,8.571091,4.115655,3
21491511806161,-0.52163535,8.46102,3.7854455,3
21491514185171,-0.55034924,8.475378,4.1874394,3
21491516564182,-0.5455636,8.346166,4.694718,3
21491518943244,-0.6364908,8.566305,4.895715,3
21491521322255,-0.6987042,8.34138,4.206582,3
21491523701265,-0.8135597,8.681161,3.8620157,3
21491526080275,-0.89491564,8.724232,3.8285162,3
21491528459338,-0.9762716,8.705089,4.168297,3
21491530838348,-1.1294123,8.652447,4.273581,3
21491533217359,-1.1916257,8.829515,4.130012,3
21491535596421,-1.2873386,8.906086,3.9768713,3
21491537975432,-1.3591232,8.915657,4.1108694,3
21491540354442,-1.4787644,8.867801,4.2017965,3
21491542733505,-1.5218352,8.997013,4.125226,3
21491545112515,-1.6414764,8.920443,3.804588,3
21491547491525,-1.6366907,8.953942,3.7280176,3
21491549870588,-1.727618,9.044869,3.9577286,3
21491552249598,-1.7419748,8.939586,4.2257247,3
21491554628609,-1.8424734,8.872586,4.1874394,3
21491557007671,-1.7706888,9.01137,3.8333018,3
21491559386682,-1.8520447,9.035298,3.4504502,3
21491561765692,-1.7850457,9.078369,3.5413775,3
21491564144702,-1.7946169,8.949157,3.7328033,3
21491566523765,-1.6941184,9.044869,3.9577286,3
21491568902775,-1.6701902,8.949157,3.8524444,3
21491571281838,-1.5314065,8.958728,3.8285162,3
21491573660848,-1.3974084,9.001799,3.8620157,3
21491576039859,-1.2299109,8.963513,3.9433718,3
21491578418869,-1.0193424,8.82473,3.8141594,3
21491580797932,-0.86141616,8.9013,3.6658044,3
21491583176942,-0.6795616,8.891729,3.5700915,3
21491585555952,-0.6029913,8.834301,3.7758741,3
21491587935015,-0.40677986,8.776874,4.0390844,3
21491590314025,-0.34456646,8.719446,4.072584,3
21491592693036,-0.26799613,8.882157,4.0151563,3
21491595072098,-0.10049855,8.834301,3.8524444,3
21491597451109,-0.08135597,8.9826565,4.058227,3
21491599830119,0.047856454,8.920443,4.2017965,3
21491602209182,0.22492532,8.992228,4.3357944,3
21491604588192,0.34456646,9.083155,4.273581,3
21491606967202,0.31106696,9.221938,4.2448673,3
21491609346213,0.44506502,9.193225,4.2831526,3
21491611725275,0.49292147,9.274581,4.4410787,3
21491614104286,0.5455636,9.30808,4.398008,3
21491616483296,0.4881358,9.298509,4.302295,3
21491618862359,0.4546363,9.269794,4.3070807,3
21491621241369,0.39720857,9.332008,4.517649,3
21491623620380,0.32063824,9.322437,4.6803613,3
21491625999442,0.27756742,9.19801,4.575077,3
21491628378452,0.22492532,9.226724,4.398008,3
21491630757463,0.20578274,9.312865,4.316652,3
21491633136525,0.14356937,9.19801,4.3501515,3
21491635515536,0.05742774,9.102298,4.4889355,3
21491637894546,0.033499517,9.068798,4.5272202,3
21491640273609,-0.076570325,9.092726,4.4841495,3
21491642652619,-0.1052842,9.020942,4.3788652,3
21491645031630,-0.23928227,9.035298,4.4171505,3
21491647410692,-0.21535404,8.987442,4.4171505,3
21491649789702,-0.33020952,8.939586,4.4075794,3
21491652168713,-0.3062813,8.9108715,4.3501515,3
21491654547723,-0.41635114,8.949157,4.3932223,3
21491656926786,-0.35413775,8.886943,4.517649,3
21491659305796,-0.3589234,8.853444,4.56072,3
21491661684807,-0.3397808,8.877372,4.4315076,3
21491664063869,-0.33020952,8.891729,4.2592244,3
21491666442880,-0.3062813,8.9013,4.240082,3
21491668821890,-0.2727818,8.863015,4.3262234,3
21491671200952,-0.28713873,8.848659,4.45065,3
21491673579963,-0.23449662,8.800801,4.45065,3
21491675958973,-0.2632105,8.834301,4.4075794,3
21491678338036,-0.23449662,8.839087,4.3645086,3
21491680717046,-0.22492532,8.796016,4.3740797,3
21491683096057,-0.22971097,8.762517,4.345366,3
21491685475119,-0.26799613,8.7673025,4.3070807,3
21491687854130,-0.29671,8.7673025,4.2927237,3
21491690233140,-0.33020952,8.738588,4.3262234,3
21491692612202,-0.37328035,8.729017,4.436293,3
21491694991213,-0.43070808,8.695518,4.45065,3
21491697370223,-0.52163535,8.676374,4.3501515,3
21491699749234,-0.5838487,8.647661,4.273581,3
21491702128296,-0.66041905,8.685946,4.2927237,3
21491704507307,-0.7465607,8.647661,4.354937,3
21491706886317,-0.8327023,8.599805,4.436293,3
21491709265380,-0.89491564,8.609376,4.4075794,3
21491711644390,-0.9619147,8.666803,4.354937,3
21491714023400,-1.0001999,8.681161,4.3405805,3
21491716402463,-1.0289137,8.690732,4.3405805,3
21491718781473,-1.0576276,8.676374,4.331009,3
21491721160484,-1.1006985,8.733803,4.369294,3
21491723539546,-1.0336994,8.738588,4.3645086,3
21491725918557,-1.0432707,8.776874,4.4458647,3
21491728297567,-1.0001999,8.796016,4.4602213,3
21491730676577,-0.94755775,8.796016,4.4602213,3
21491733055640,-0.9284152,8.834301,4.3788652,3
21491735434650,-0.9092726,8.848659,4.3262234,3
21491737813661,-0.85184485,8.877372,4.3740797,3
21491740192723,-0.8039884,8.843872,4.4171505,3
21491742571734,-0.82313097,8.848659,4.465007,3
21491744950744,-0.79920274,8.853444,4.4458647,3
21491747329807,-0.8039884,8.886943,4.426722,3
21491749708817,-0.80877405,8.896515,4.3740797,3
21491752087827,-0.8422736,8.9013,4.3932223,3
21491754466890,-0.8709874,8.85823,4.3645086,3
21491756845900,-0.9284152,8.886943,4.3740797,3
21491759224911,-0.9236295,8.886943,4.3836513,3
21491761603973,-0.94755775,8.891729,4.426722,3
21491763982984,-0.95712906,8.877372,4.4171505,3
21491766361942,-0.94755775,8.877372,4.3836513,3
21491768741057,-0.971486,8.877372,4.3118663,3
21491771120067,-0.9523434,8.882157,4.2592244,3
21491773499077,-0.91884387,8.891729,4.26401,3
21491775878088,-0.90448695,8.85823,4.3070807,3
21491778257150,-0.83748794,8.834301,4.3070807,3
21491780636161,-0.79920274,8.839087,4.2831526,3
21491783015171,-0.7848458,8.853444,4.2592244,3
21491785394234,-0.7369894,8.867801,4.249653,3
21491787773244,-0.6795616,8.867801,4.2448673,3
21491790152255,-0.64606214,8.882157,4.23051,3
21491792531317,-0.6125626,8.896515,4.2161536,3
21491794910327,-0.6029913,8.891729,4.240082,3
21491797289338,-0.57906306,8.906086,4.273581,3
21491799668400,-0.5886344,8.9013,4.273581,3
21491802047411,-0.5694918,8.920443,4.254439,3
21491804426421,-0.5599205,8.915657,4.2352962,3
21491806805484,-0.55513483,8.944371,4.2257247,3
21491809184494,-0.5838487,8.939586,4.2448673,3
21491811563505,-0.59342,8.949157,4.3070807,3
21491813942567,-0.59342,8.9108715,4.3070807,3
21491816321577,-0.61734825,8.930014,4.316652,3
21491818700536,-0.64606214,8.9013,4.302295,3
21491821079650,-0.66999036,8.930014,4.3070807,3
21491823458661,-0.6843473,8.925228,4.321438,3
21491825837671,-0.6987042,8.9348,4.3405805,3
21491828216734,-0.7082755,8.920443,4.3262234,3
21491830595744,-0.6843473,8.925228,4.345366,3
21491832974755,-0.6843473,8.9013,4.3740797,3
21491835353765,-0.6652047,8.882157,4.398008,3
21491837732827,-0.6269195,8.886943,4.369294,3
21491840111838,-0.6029913,8.863015,4.359723,3
21491842490848,-0.59342,8.82473,4.3501515,3
21491844869911,-0.55513483,8.800801,4.4075794,3
21491847248921,-0.55034924,8.743374,4.421936,3
21491849627932,-0.55513483,8.729017,4.412365,3
21491852006994,-0.526421,8.71466,4.398008,3
21491854386005,-0.5886344,8.700303,4.4075794,3
21491856765015,-0.63170516,8.685946,4.4075794,3
21491859144077,-0.6843473,8.690732,4.4410787,3
21491861523088,-0.72263247,8.729017,4.4554358,3
21491863902098,-0.81834537,8.733803,4.465007,3
21491866281161,-0.8757731,8.738588,4.4985065,3
21491868660171,-0.9619147,8.752945,4.5320063,3
21491871039182,-1.0049855,8.7673025,4.56072,3
21491873418244,-1.0863415,8.7673025,4.56072,3
21491875797255,-1.0719845,8.796016,4.5559344,3
21491878176265,-1.1294123,8.781659,4.5559344,3
21491880555275,-1.1246266,8.781659,4.575077,3
21491882934338,-1.0959128,8.762517,4.5559344,3
21491885313348,-1.0719845,8.796016,4.6037908,3
21491887692411,-0.9906286,8.79123,4.546363,3
21491890071369,-0.8997013,8.843872,4.5272202,3
21491892450432,-0.7896315,8.877372,4.508078,3
21491894829442,-0.6987042,8.872586,4.4841495,3
21491897208505,-0.6125626,8.843872,4.4554358,3
21491899587515,-0.53599226,8.834301,4.465007,3
21491901966525,-0.4642076,8.819944,4.4458647,3
21491904345588,-0.4211368,8.834301,4.465007,3
21491906724598,-0.38763726,8.834301,4.4458647,3
21491909103609,-0.3589234,8.853444,4.4171505,3
21491911482671,-0.3589234,8.82473,4.3740797,3
21491913861682,-0.3397808,8.805588,4.3740797,3
21491916240692,-0.3589234,8.7673025,4.3932223,3
21491918619755,-0.3684947,8.800801,4.398008,3
21491920998765,-0.40677986,8.815159,4.3788652,3
21491923377775,-0.43070808,8.810373,4.388437,3
21491925756838,-0.4546363,8.776874,4.3740797,3
21491928135848,-0.47856453,8.810373,4.3740797,3
21491930514859,-0.53599226,8.796016,4.369294,3
21491932893921,-0.5599205,8.829515,4.3836513,3
21491935272932,-0.5838487,8.834301,4.359723,3
21491937651942,-0.59342,8.839087,4.3405805,3
21491940031005,-0.57427746,8.819944,4.3357944,3
21491942410015,-0.57427746,8.805588,4.302295,3
21491944789025,-0.5599205,8.810373,4.287938,3
21491947168036,-0.52163535,8.839087,4.2687955,3
21491949547098,-0.49292147,8.85823,4.249653,3
21491951926109,-0.47856453,8.834301,4.23051,3
21491954305171,-0.44027936,8.82473,4.1874394,3
21491956684182,-0.4354937,8.839087,4.139583,3
21491959063192,-0.44985065,8.839087,4.1108694,3
21491961442202,-0.47377887,8.805588,4.063013,3
21491963821265,-0.49292147,8.805588,4.0390844,3
21491966200275,-0.526421,8.772088,4.0390844,3
21491968579286,-0.57906306,8.796016,4.034299,3
21491970958348,-0.64606214,8.748159,4.0007997,3
21491973337359,-0.6843473,8.738588,4.0007997,3
21491975716317,-0.75613195,8.7577305,3.9768713,3
21491978095432,-0.80877405,8.762517,3.952943,3
21491980474442,-0.8997013,8.7673025,3.9625144,3
21491982853452,-0.93320084,8.781659,3.9816568,3
21491985232515,-0.98584294,8.796016,3.9960139,3
21491987611525,-1.038485,8.853444,4.0295134,3
21491989990536,-1.0863415,8.872586,4.034299,3
21491992369546,-1.1006985,8.925228,4.048656,3
21491994748609,-1.1102697,8.987442,4.0534415,3
21491997127619,-1.1102697,9.049655,4.0677986,3
21491999506630,-1.0911272,9.044869,4.106084,3
21492001885692,-1.0432707,9.102298,4.15394,3
21492004264702,-1.0049855,9.12144,4.1874394,3
21492006643765,-0.9523434,9.145369,4.2017965,3
21492009022775,-0.89013004,9.178867,4.2161536,3
21492011401786,-0.8039884,9.150154,4.23051,3
21492013780796,-0.7513463,9.131011,4.23051,3
21492016159859,-0.70348984,9.078369,4.254439,3
21492018538869,-0.6652047,9.044869,4.273581,3
21492020917880,-0.61734825,8.992228,4.2927237,3
21492023296942,-0.5694918,8.9348,4.287938,3
21492025675900,-0.5599205,8.9108715,4.273581,3
21492028054963,-0.5599205,8.877372,4.2592244,3
21492030434025,-0.5599205,8.815159,4.249653,3
21492032813036,-0.6029913,8.781659,4.254439,3
21492035192046,-0.64606214,8.748159,4.2831526,3
21492037571109,-0.6652047,8.743374,4.278367,3
21492039950119,-0.7082755,8.748159,4.2448673,3
21492042329130,-0.7752745,8.748159,4.2592244,3
21492044708192,-0.8135597,8.743374,4.254439,3
21492047087202,-0.8470592,8.7577305,4.26401,3
21492049466213,-0.89491564,8.776874,4.2687955,3
21492051845275,-0.9236295,8.800801,4.273581,3
21492054224286,-0.95712906,8.829515,4.26401,3
21492056603296,-0.9762716,8.819944,4.26401,3
21492058982307,-0.9906286,8.848659,4.273581,3
21492061361369,-0.9810573,8.872586,4.2831526,3
21492063740380,-1.0001999,8.891729,4.273581,3
21492066119442,-1.0097711,8.886943,4.2831526,3
21492068498452,-1.0145568,8.9108715,4.302295,3
21492070877463,-0.9906286,8.9108715,4.2927237,3
21492073256473,-1.0049855,8.930014,4.321438,3
21492075635536,-0.9810573,8.939586,4.321438,3
21492078014546,-0.9810573,8.939586,4.3262234,3
21492080393557,-0.95712906,8.968299,4.3070807,3
21492082772619,-0.9667004,8.977871,4.2975097,3
21492085151630,-0.9954142,8.992228,4.287938,3
21492087530640,-0.9810573,9.006584,4.273581,3
21492089909702,-0.9667004,8.992228,4.26401,3
21492092288713,-0.9762716,9.006584,4.23051,3
21492094667723,-0.9906286,9.01137,4.206582,3
21492097046786,-0.9810573,9.006584,4.197011,3
21492099425796,-0.9619147,8.997013,4.1491547,3
21492101804807,-0.9810573,9.016156,4.1204405,3
21492104183869,-1.0001999,9.001799,4.101298,3
21492106562880,-0.9954142,9.025727,4.082155,3
21492108941890,-0.9906286,9.016156,4.058227,3
21492111320952,-0.9906286,9.016156,4.0295134,3
21492113699963,-1.0049855,8.997013,4.019942,3
21492116078973,-1.0193424,8.973084,3.9960139,3
21492118458036,-1.0193424,8.977871,3.9816568,3
21492120837046,-0.971486,8.958728,3.9864426,3
21492123216057,-0.95712906,8.9826565,3.9816568,3
21492125595119,-0.9619147,8.9826565,3.9625144,3
21492127974130,-0.93320084,8.987442,3.9577286,3
21492130353140,-0.9284152,8.953942,3.938586,3
21492132732150,-0.9092726,8.968299,3.938586,3
21492135111213,-0.8805587,8.963513,3.9625144,3
21492137490223,-0.8997013,8.992228,3.9720855,3
21492139869234,-0.8997013,8.997013,4.0007997,3
21492142248296,-0.91405827,9.01137,4.005585,3
21492144627307,-0.8997013,9.025727,3.991228,3
21492147006317,-0.8997013,9.0544405,3.9864426,3
21492149385380,-0.89491564,9.073584,3.9768713,3
21492151764390,-0.8757731,9.083155,3.9673,3
21492154143400,-0.8757731,9.097511,3.9960139,3
21492156522463,-0.8709874,9.102298,4.019942,3
21492158901473,-0.8997013,9.102298,4.058227,3
21492161280484,-0.89491564,9.068798,4.0677986,3
21492163659546,-0.8709874,9.0544405,4.091727,3
21492166038557,-0.8422736,9.025727,4.082155,3
21492168417567,-0.8135597,8.968299,4.0534415,3
21492170796630,-0.76570326,8.963513,4.034299,3
21492173175640,-0.7322037,8.939586,4.0438704,3
21492175554650,-0.67477596,8.882157,4.063013,3
21492177933713,-0.61734825,8.819944,4.0773697,3
21492180312723,-0.57427746,8.762517,4.115655,3
21492182691734,-0.5024927,8.738588,4.1108694,3
21492185070796,-0.4546363,8.719446,4.115655,3
21492187449807,-0.41156548,8.681161,4.115655,3
21492189828817,-0.35413775,8.681161,4.0869412,3
21492192207880,-0.33020952,8.652447,4.091727,3
21492194586890,-0.30149564,8.657232,4.115655,3
21492196965900,-0.26799613,8.666803,4.1347976,3
21492199344911,-0.24885355,8.623733,4.1874394,3
21492201723973,-0.2105684,8.647661,4.206582,3
21492204102984,-0.18185452,8.666803,4.197011,3
21492206482046,-0.16271193,8.719446,4.1778684,3
21492208861057,-0.12921242,8.719446,4.1587257,3
21492211240067,-0.15314065,8.752945,4.206582,3
21492213619077,-0.22013968,8.85823,4.287938,3
21492215998140,-0.11006984,8.733803,4.1874394,3
21492218377150,-0.24885355,8.85823,4.3070807,3
21492220756161,-0.15314065,8.796016,4.316652,3
21492223135223,-0.25842485,8.805588,4.3357944,3
21492225514234,-0.22492532,8.800801,4.2687955,3
21492227893244,-0.27756742,8.882157,4.278367,3
21492230272307,-0.22013968,8.882157,4.273581,3
21492232651317,-0.29192436,8.9013,4.2687955,3
21492235030327,-0.3062813,8.9348,4.26401,3
21492237409390,-0.2632105,8.82473,4.26401,3
21492239788400,-0.32063824,8.724232,4.359723,3
21492242167411,-0.27756742,8.82473,4.331009,3
21492244546473,-0.33499518,8.953942,4.1874394,3
21492246925484,-0.4019942,8.987442,4.058227,3
21492249304494,-0.4211368,8.992228,4.058227,3
21492251683557,-0.42592242,9.035298,4.211368,3
21492254062567,-0.47856453,8.843872,4.3070807,3
21492256441577,-0.4881358,8.867801,4.4410787,3
21492258820640,-0.4211368,8.786445,4.4075794,3
21492261199650,-0.4354937,8.79123,4.3070807,3
21492263578661,-0.4546363,8.839087,4.139583,3
21492265957723,-0.4642076,8.9108715,3.991228,3
21492268336734,-0.55034924,8.863015,3.9338005,3
21492270715744,-0.6125626,8.796016,4.101298,3
21492273094807,-0.64606214,8.800801,4.316652,3
21492275473817,-0.71306115,8.867801,4.4745784,3
21492277852827,-0.7752745,8.863015,4.436293,3
21492280231838,-0.8039884,8.953942,4.273581,3
21492282610900,-0.75613195,9.0544405,4.0869412,3
21492284989911,-0.7896315,9.12144,4.0390844,3
21492287368973,-0.8279166,9.111869,4.130012,3
21492289747984,-0.8422736,9.12144,4.354937,3
21492292126994,-0.80877405,9.064013,4.503292,3
21492294506057,-0.8470592,9.150154,4.599005,3
21492296885067,-0.86141616,9.159725,4.5128636,3
21492299264077,-0.8853444,9.174082,4.3645086,3
21492301643140,-0.83748794,9.126225,4.220939,3
21492304022150,-0.7609176,9.102298,4.254439,3
21492306401161,-0.7369894,9.049655,4.426722,3
21492308780223,-0.70348984,8.939586,4.613362,3
21492311159234,-0.63170516,8.891729,4.7138605,3
21492313538244,-0.52163535,8.853444,4.6325045,3
21492315917255,-0.45942193,8.829515,4.4889355,3
21492318296317,-0.3924229,8.800801,4.3645086,3
21492320675327,-0.3493521,8.733803,4.3405805,3
21492323054390,-0.28713873,8.666803,4.436293,3
21492325433400,-0.2727818,8.647661,4.599005,3
21492327812411,-0.2632105,8.6141615,4.6803613,3
21492330191421,-0.23928227,8.566305,4.6564326,3
21492332570484,-0.21535404,8.580662,4.5224347,3
21492334949494,-0.16271193,8.595019,4.402794,3
21492337328505,-0.14356937,8.60459,4.3262234,3
21492339707567,-0.13878371,8.618947,4.3740797,3
21492342086577,-0.148355,8.628518,4.4985065,3
21492344465588,-0.15314065,8.671589,4.570291,3
21492346844650,-0.16271193,8.700303,4.5559344,3
21492349223661,-0.18185452,8.729017,4.4745784,3
21492351602671,-0.22013968,8.781659,4.3740797,3
21492353981734,-0.23928227,8.800801,4.3070807,3
21492356360744,-0.28713873,8.819944,4.359723,3
21492358739755,-0.31106696,8.805588,4.469793,3
21492361118817,-0.3397808,8.805588,4.5224347,3
21492363497827,-0.3397808,8.819944,4.517649,3
21492365876838,-0.32542387,8.829515,4.4410787,3
21492368255900,-0.32542387,8.867801,4.3262234,3
21492370634911,-0.33020952,8.85823,4.2161536,3
21492373013921,-0.32542387,8.877372,4.211368,3
21492375392984,-0.32063824,8.891729,4.273581,3
21492377771994,-0.32542387,8.877372,4.331009,3
21492380151005,-0.3924229,8.848659,4.3788652,3
21492382530067,-0.38763726,8.882157,4.359723,3
21492384909077,-0.3924229,8.896515,4.287938,3
21492387288088,-0.40677986,8.9108715,4.2161536,3
21492389667098,-0.4354937,8.939586,4.1922255,3
21492392046161,-0.42592242,8.939586,4.197011,3
21492394425171,-0.44506502,8.925228,4.23051,3
21492396804182,-0.43070808,8.915657,4.249653,3
21492399183244,-0.44506502,8.9013,4.2592244,3
21492401562255,-0.42592242,8.882157,4.254439,3
21492403941265,-0.44506502,8.896515,4.254439,3
21492406320327,-0.44027936,8.886943,4.2448673,3
21492408699338,-0.41635114,8.85823,4.211368,3
21492411078348,-0.4211368,8.839087,4.2161536,3
21492413457411,-0.40677986,8.79123,4.2352962,3
21492415836421,-0.38285163,8.733803,4.26401,3
21492418215484,-0.3924229,8.676374,4.278367,3
21492420594494,-0.3589234,8.652447,4.2927237,3
21492422973505,-0.3589234,8.657232,4.2592244,3
21492425352515,-0.3589234,8.647661,4.2161536,3
21492427731577,-0.3924229,8.647661,4.168297,3
21492430110588,-0.41635114,8.676374,4.139583,3
21492432489598,-0.45942193,8.685946,4.182654,3
21492434868661,-0.4977071,8.700303,4.249653,3
21492437247671,-0.52163535,8.752945,4.3118663,3
21492439626682,-0.5407779,8.810373,4.331009,3
21492442005744,-0.5886344,8.886943,4.3118663,3
21492444384702,-0.63170516,8.953942,4.254439,3
21492446763765,-0.6652047,9.020942,4.2352962,3
21492449142827,-0.6652047,9.035298,4.2448673,3
21492451521838,-0.6795616,9.020942,4.3070807,3
21492453900848,-0.7082755,9.016156,4.3836513,3
21492456279911,-0.7465607,9.044869,4.4458647,3
21492458658921,-0.75613195,9.0544405,4.4410787,3
21492461037932,-0.7322037,9.0544405,4.4171505,3
21492463416994,-0.72741807,9.01137,4.345366,3
21492465796005,-0.7465607,8.997013,4.3118663,3
21492468175015,-0.7752745,8.973084,4.3118663,3
21492470554077,-0.7848458,8.963513,4.3740797,3
21492472933088,-0.7848458,8.9348,4.4602213,3
21492475312098,-0.7369894,8.906086,4.4602213,3
21492477691161,-0.7178468,8.9348,4.3932223,3
21492480070171,-0.6795616,8.9108715,4.302295,3
21492482449182,-0.6412765,8.896515,4.254439,3
21492484828244,-0.6412765,8.863015,4.2592244,3
21492487207255,-0.6029913,8.829515,4.3262234,3
21492489586265,-0.526421,8.781659,4.421936,3
21492491965327,-0.4833502,8.7577305,4.4602213,3
21492494344286,-0.44985065,8.733803,4.388437,3
21492496723348,-0.40677986,8.733803,4.287938,3
21492499102411,-0.41156548,8.748159,4.220939,3
21492501481421,-0.3924229,8.772088,4.1922255,3
21492503860432,-0.4019942,8.748159,4.249653,3
21492506239494,-0.39720857,8.738588,4.3405805,3
21492508618505,-0.43070808,8.748159,4.3932223,3
21492510997515,-0.45942193,8.786445,4.369294,3
21492513376577,-0.44985065,8.843872,4.287938,3
21492515755588,-0.44985065,8.848659,4.211368,3
21492518134598,-0.4881358,8.853444,4.1635113,3
21492520513661,-0.5312066,8.891729,4.173083,3
21492522892671,-0.5455636,8.891729,4.2448673,3
21492525271682,-0.5886344,8.915657,4.2687955,3
21492527650744,-0.6269195,8.915657,4.2592244,3
21492530029755,-0.6556334,8.930014,4.206582,3
21492532408765,-0.6843473,8.9348,4.1108694,3
21492534787775,-0.7369894,8.958728,4.058227,3
21492537166838,-0.7369894,8.958728,4.0773697,3
21492539545848,-0.7752745,8.963513,4.115655,3
21492541924859,-0.7609176,8.963513,4.15394,3
21492544303921,-0.74177504,8.992228,4.15394,3
21492546682932,-0.7322037,8.977871,4.1108694,3
21492549061942,-0.71306115,9.001799,4.072584,3
21492551440952,-0.65084773,9.01137,4.0295134,3
21492553820015,-0.6412765,9.040084,4.0295134,3
21492556199025,-0.60777694,9.044869,4.034299,3
21492558578088,-0.60777694,9.025727,4.091727,3
21492560957098,-0.5599205,8.987442,4.1108694,3
21492563336161,-0.5694918,8.977871,4.1347976,3
21492565715171,-0.55513483,8.949157,4.106084,3
21492568094182,-0.526421,8.9348,4.091727,3
21492570473244,-0.5072784,8.872586,4.082155,3
21492572852255,-0.4833502,8.872586,4.082155,3
21492575231265,-0.45942193,8.843872,4.0869412,3
21492577610275,-0.43070808,8.800801,4.101298,3
21492579989338,-0.4642076,8.776874,4.130012,3
21492582368348,-0.4833502,8.781659,4.125226,3
21492584747359,-0.52163535,8.805588,4.115655,3
21492587126421,-0.53599226,8.82473,4.125226,3
21492589505432,-0.56470615,8.834301,4.130012,3
21492591884442,-0.6125626,8.872586,4.1491547,3
21492594263505,-0.6221339,8.886943,4.15394,3
21492596642515,-0.6556334,8.915657,4.2257247,3
21492599021525,-0.6556334,8.920443,4.3070807,3
21492601400588,-0.65084773,8.949157,4.388437,3
21492603779598,-0.64606214,8.973084,4.3788652,3
21492606158609,-0.6364908,9.035298,4.3405805,3
21492608537671,-0.6364908,9.083155,4.2687955,3
21492610916630,-0.6795616,9.097511,4.2352962,3
21492613295692,-0.6891329,9.078369,4.302295,3
21492615674755,-0.66999036,9.040084,4.421936,3
21492618053765,-0.6987042,9.049655,4.536792,3
21492620432775,-0.66041905,9.016156,4.546363,3
21492622811838,-0.6221339,9.01137,4.4745784,3
21492625190848,-0.55513483,8.9826565,4.345366,3
21492627569859,-0.5024927,8.9348,4.2831526,3
21492629948921,-0.47856453,8.877372,4.273581,3
21492632327932,-0.43070808,8.810373,4.3405805,3
21492634706942,-0.44027936,8.7577305,4.4410787,3
21492637086005,-0.42592242,8.738588,4.469793,3
21492639465015,-0.4211368,8.695518,4.412365,3
21492641844025,-0.41635114,8.700303,4.3118663,3
21492644223088,-0.4211368,8.690732,4.23051,3
21492646602098,-0.40677986,8.657232,4.220939,3
21492648981109,-0.39720857,8.681161,4.2687955,3
21492651360171,-0.38285163,8.671589,4.3501515,3
21492653739182,-0.34456646,8.666803,4.3836513,3
21492656118192,-0.30149564,8.657232,4.345366,3
21492658497255,-0.27756742,8.695518,4.2592244,3
21492660876265,-0.2440679,8.719446,4.1587257,3
21492663255275,-0.22971097,8.71466,4.1635113,3
21492665634338,-0.2105684,8.700303,4.197011,3
21492668013348,-0.2105684,8.729017,4.26401,3
21492670392359,-0.22013968,8.786445,4.278367,3
21492672771421,-0.21535404,8.810373,4.302295,3
21492675150432,-0.2440679,8.867801,4.240082,3
21492677529442,-0.2536392,8.944371,4.182654,3
21492679908505,-0.23928227,8.9826565,4.1443686,3
21492682287463,-0.2632105,8.987442,4.206582,3
21492684666473,-0.27756742,9.006584,4.2975097,3
21492687045588,-0.27756742,9.020942,4.359723,3
21492689424598,-0.29192436,9.030513,4.345366,3
21492691803609,-0.29192436,9.040084,4.2352962,3
21492694182671,-0.2632105,9.073584,4.1587257,3
21492696561682,-0.22971097,9.097511,4.115655,3
21492698940692,-0.2105684,9.092726,4.1491547,3
21492701319755,-0.19142582,9.092726,4.23051,3
21492703698765,-0.148355,9.073584,4.2831526,3
21492706077775,-0.09571291,9.059227,4.26401,3
21492708456838,-0.02871387,9.040084,4.220939,3
21492710835848,0.014356935,9.040084,4.1874394,3
21492713214859,0.076570325,8.992228,4.101298,3
21492715593921,0.11006984,8.973084,4.0965123,3
21492717972932,0.148355,8.953942,4.1443686,3
21492720351942,0.148355,8.939586,4.206582,3
21492722731005,0.17706887,8.915657,4.211368,3
21492725110015,0.15314065,8.896515,4.173083,3
21492727489025,0.12921242,8.867801,4.106084,3
21492729868088,0.10049855,8.886943,4.0677986,3
21492732247098,0.062213387,8.886943,4.0677986,3
21492734626109,-0.014356935,8.882157,4.1108694,3
21492737005171,-0.062213387,8.930014,4.173083,3
21492739384182,-0.10049855,8.953942,4.1874394,3
21492741763192,-0.13878371,8.997013,4.1922255,3
21492744142255,-0.16271193,9.020942,4.1587257,3
21492746521265,-0.17228323,9.068798,4.1347976,3
21492748900275,-0.18185452,9.116654,4.1443686,3
21492751279338,-0.22492532,9.164511,4.182654,3
21492753658348,-0.25842485,9.183653,4.249653,3
21492756037359,-0.28713873,9.140582,4.331009,3
21492758416421,-0.32063824,9.159725,4.3645086,3
21492760795432,-0.3062813,9.164511,4.345366,3
21492763174442,-0.34456646,9.145369,4.2927237,3
21492765553452,-0.3589234,9.164511,4.2448673,3
21492767932515,-0.37328035,9.159725,4.2687955,3
21492770311525,-0.3684947,9.116654,4.2975097,3
21492772690588,-0.36370903,9.107083,4.3501515,3
21492775069598,-0.34456646,9.073584,4.3740797,3
21492777448609,-0.35413775,9.016156,4.331009,3
21492779827671,-0.33499518,8.992228,4.2831526,3
21492782206682,-0.28713873,8.9348,4.254439,3
21492784585692,-0.2727818,8.891729,4.240082,3
21492786964755,-0.2727818,8.829515,4.26401,3
21492789343765,-0.27756742,8.7673025,4.316652,3
21492791722775,-0.28713873,8.719446,4.345366,3
21492794101838,-0.29671,8.681161,4.331009,3
21492796480848,-0.28235307,8.676374,4.321438,3
21492798859859,-0.28713873,8.671589,4.2927237,3
21492801238921,-0.29671,8.63809,4.249653,3
21492803617932,-0.29192436,8.628518,4.240082,3
21492805996942,-0.27756742,8.628518,4.26401,3
21492808376005,-0.27756742,8.63809,4.3070807,3
21492810755015,-0.28713873,8.662018,4.3405805,3
21492813134025,-0.3062813,8.724232,4.3501515,3
21492815513036,-0.29192436,8.776874,4.3501515,3
21492817892098,-0.29671,8.786445,4.3118663,3
21492820271109,-0.32542387,8.815159,4.2975097,3
21492822650171,-0.3397808,8.877372,4.287938,3
21492825029182,-0.37328035,8.896515,4.2975097,3
21492827408192,-0.38285163,8.906086,4.2831526,3
21492829787202,-0.4019942,8.930014,4.2831526,3
21492832166265,-0.38763726,8.944371,4.278367,3
21492834545275,-0.39720857,8.949157,4.249653,3
21492836924338,-0.44027936,8.953942,4.2161536,3
21492839303348,-0.43070808,8.9348,4.182654,3
21492841682359,-0.4546363,8.915657,4.173083,3
21492844061369,-0.4833502,8.872586,4.1587257,3
21492846440432,-0.5312066,8.843872,4.139583,3
21492848819442,-0.5407779,8.853444,4.1347976,3
21492851198505,-0.59342,8.863015,4.1204405,3
21492853577515,-0.63170516,8.848659,4.082155,3
21492855956525,-0.6652047,8.839087,4.0534415,3
21492858335536,-0.6891329,8.834301,4.058227,3
21492860714598,-0.6987042,8.843872,4.0677986,3
21492863093609,-0.7369894,8.877372,4.0773697,3
21492865472671,-0.7513463,8.906086,4.082155,3
21492867851682,-0.7704889,8.925228,4.0677986,3
21492870230692,-0.76570326,8.977871,4.0677986,3
21492872609755,-0.75613195,8.973084,4.063013,3
21492874988765,-0.7178468,8.9826565,4.063013,3
21492877367775,-0.6939186,8.963513,4.0773697,3
21492879746786,-0.74177504,8.973084,4.1204405,3
21492882125848,-0.6891329,8.953942,4.125226,3
21492884504859,-0.6652047,8.9108715,4.130012,3
21492886883921,-0.6556334,8.819944,4.130012,3
21492889262932,-0.6029913,8.867801,4.1347976,3
21492891641942,-0.5312066,8.891729,4.082155,3
21492894020952,-0.56470615,9.016156,4.106084,3
21492896400015,-0.5455636,9.01137,4.106084,3
21492898779025,-0.55513483,8.987442,4.1204405,3
21492901158088,-0.5072784,9.006584,4.1443686,3
21492903537098,-0.5599205,9.025727,4.168297,3
21492905916109,-0.59342,9.020942,4.1922255,3
21492908295171,-0.6412765,9.040084,4.2257247,3
21492910674182,-0.6125626,9.111869,4.2017965,3
21492913053192,-0.64606214,9.174082,4.197011,3
21492915432202,-0.6987042,9.159725,4.1922255,3
21492917811265,-0.6795616,9.159725,4.197011,3
21492920190275,-0.6795616,9.15494,4.2448673,3
21492922569338,-0.63170516,9.131011,4.302295,3
21492924948348,-0.6556334,9.102298,4.3357944,3
21492927327359,-0.6412765,9.116654,4.331009,3
21492929706421,-0.60777694,9.097511,4.287938,3
21492932085432,-0.57906306,9.083155,4.26401,3
21492934464442,-0.55513483,9.0544405,4.220939,3
21492936843452,-0.5455636,9.001799,4.2257247,3
21492939222515,-0.5168497,8.930014,4.2831526,3
21492941601525,-0.45942193,8.915657,4.3070807,3
21492943980588,-0.42592242,8.886943,4.316652,3
21492946359598,-0.3924229,8.834301,4.2975097,3
21492948738609,-0.33020952,8.843872,4.2592244,3
21492951117671,-0.3062813,8.805588,4.23051,3
21492953496682,-0.29671,8.7577305,4.23051,3
21492955875692,-0.2727818,8.729017,4.2592244,3
21492958254702,-0.27756742,8.71466,4.2927237,3
21492960633765,-0.26799613,8.705089,4.278367,3
21492963012775,-0.27756742,8.705089,4.2448673,3
21492965391838,-0.2727818,8.71466,4.211368,3
21492967770848,-0.2632105,8.690732,4.197011,3
21492970149859,-0.29192436,8.709874,4.211368,3
21492972528921,-0.28235307,8.719446,4.249653,3
21492974907932,-0.31585258,8.752945,4.26401,3
21492977286942,-0.3397808,8.7673025,4.254439,3
21492979665952,-0.35413775,8.819944,4.2257247,3
21492982045015,-0.38763726,8.848659,4.182654,3
21492984424025,-0.41156548,8.886943,4.125226,3
21492986803088,-0.45942193,8.886943,4.139583,3
21492989182098,-0.4833502,8.9013,4.173083,3
21492991561057,-0.5072784,8.915657,4.1778684,3
21492993940119,-0.526421,8.930014,4.173083,3
21492996319182,-0.5072784,8.9348,4.1443686,3
21492998698192,-0.51206404,8.939586,4.091727,3
21493001077255,-0.526421,8.920443,4.0534415,3
21493003456265,-0.55513483,8.930014,4.058227,3
21493005835275,-0.5455636,8.9348,4.0773697,3
21493008214338,-0.57427746,8.9348,4.082155,3
21493010593348,-0.6029913,8.944371,4.082155,3
21493012972307,-0.66041905,8.9348,4.063013,3
21493015351421,-0.6939186,8.944371,4.034299,3
21493017730432,-0.72263247,8.939586,4.0151563,3
21493020109442,-0.7322037,8.958728,4.0295134,3
21493022488505,-0.75613195,8.987442,4.0438704,3
21493024867515,-0.7513463,8.977871,4.058227,3
21493027246525,-0.76570326,8.997013,4.115655,3
21493029625588,-0.7465607,8.963513,4.125226,3
21493032004598,-0.7369894,8.944371,4.0869412,3
21493034383609,-0.7513463,8.958728,4.072584,3
21493036762671,-0.6843473,8.915657,4.0677986,3
21493039141682,-0.71306115,8.886943,4.101298,3
21493041520692,-0.6987042,8.853444,4.1204405,3
21493043899755,-0.7082755,8.863015,4.1491547,3
21493046278765,-0.6843473,8.829515,4.1347976,3
21493048657775,-0.70348984,8.810373,4.125226,3
21493051036838,-0.6795616,8.834301,4.106084,3
21493053415848,-0.66041905,8.863015,4.1204405,3
21493055794859,-0.66041905,8.9013,4.1347976,3
21493058173921,-0.6652047,8.944371,4.1443686,3
21493060552932,-0.6987042,8.949157,4.1635113,3
21493062931942,-0.7178468,8.992228,4.1922255,3
21493065310952,-0.7369894,9.035298,4.2257247,3
21493067690015,-0.7704889,9.08794,4.254439,3
21493070069025,-0.7896315,9.08794,4.2927237,3
21493072448088,-0.80877405,9.097511,4.331009,3
21493074827098,-0.79920274,9.150154,4.345366,3
21493077206109,-0.7752745,9.126225,4.3501515,3
21493079585171,-0.75613195,9.08794,4.354937,3
21493081964182,-0.7465607,9.097511,4.3788652,3
21493084343192,-0.7082755,9.083155,4.3836513,3
21493086722202,-0.6795616,9.035298,4.3645086,3
21493089101265,-0.6364908,9.001799,4.388437,3
21493091480275,-0.57427746,8.958728,4.3788652,3
21493093859338,-0.5312066,8.9013,4.359723,3
21493096238296,-0.4642076,8.877372,4.354937,3
21493098617359,-0.42592242,8.82473,4.3501515,3
21493100996421,-0.3924229,8.79123,4.3788652,3
21493103375432,-0.30149564,8.7673025,4.369294,3
21493105754442,-0.26799613,8.748159,4.354937,3
21493108133505,-0.2105684,8.738588,4.3118663,3
21493110512515,-0.16271193,8.719446,4.287938,3
21493112891525,-0.13878371,8.743374,4.2831526,3
21493115270588,-0.13878371,8.752945,4.2975097,3
21493117649598,-0.14356937,8.7577305,4.2975097,3
21493120028609,-0.17706887,8.781659,4.331009,3
21493122407671,-0.2009971,8.786445,4.302295,3
21493124786682,-0.22013968,8.819944,4.2687955,3
21493127165692,-0.27756742,8.834301,4.254439,3
21493129544755,-0.32063824,8.867801,4.23051,3
21493131923765,-0.3589234,8.920443,4.23051,3
21493134302775,-0.40677986,8.944371,4.240082,3
21493136681838,-0.44985065,8.968299,4.2257247,3
21493139060848,-0.49292147,9.01137,4.206582,3
21493141439859,-0.53599226,9.025727,4.130012,3
21493143818921,-0.55034924,9.035298,4.072584,3
21493146197932,-0.5599205,9.020942,4.0390844,3
21493148576942,-0.5838487,9.020942,4.058227,3
21493150956005,-0.5694918,9.001799,4.0677986,3
21493153335015,-0.57906306,8.992228,4.048656,3
21493155714025,-0.5838487,9.025727,4.0103707,3
21493158093088,-0.57906306,9.025727,3.9481573,3
21493160472098,-0.55034924,9.006584,3.900301,3
21493162851109,-0.5455636,9.01137,3.8907297,3
21493165230171,-0.5455636,8.997013,3.9098723,3
21493167609182,-0.53599226,8.968299,3.9577286,3
21493169988192,-0.526421,8.968299,3.9625144,3
21493172367255,-0.52163535,8.9826565,3.9768713,3
21493174746265,-0.49292147,9.016156,3.9194436,3
21493177125275,-0.4881358,9.006584,3.8811584,3
21493179504338,-0.4833502,8.987442,3.871587,3
21493181883348,-0.46899325,8.963513,3.9146578,3
21493184262359,-0.4642076,8.939586,3.9673,3
21493186641421,-0.43070808,8.915657,3.9864426,3
21493189020432,-0.44027936,8.886943,3.991228,3
21493191399442,-0.4211368,8.839087,3.991228,3
21493193778505,-0.38285163,8.82473,3.9673,3
21493196157515,-0.37328035,8.810373,3.9338005,3
21493198536525,-0.37328035,8.810373,3.9625144,3
21493200915588,-0.37806597,8.843872,4.0007997,3
21493203294598,-0.37806597,8.853444,4.0390844,3
21493205673609,-0.37328035,8.891729,4.072584,3
21493208052671,-0.38285163,8.944371,4.0869412,3
21493210431682,-0.38285163,8.963513,4.0773697,3
21493212810692,-0.38285163,8.997013,4.125226,3
21493215189755,-0.3589234,9.040084,4.1491547,3
21493217568765,-0.3589234,9.083155,4.1778684,3
21493219947775,-0.33499518,9.107083,4.206582,3
21493222326838,-0.32542387,9.126225,4.2448673,3
21493224705848,-0.3397808,9.131011,4.2831526,3
21493227084859,-0.34456646,9.131011,4.302295,3
21493229463921,-0.35413775,9.126225,4.3262234,3
21493231842932,-0.3589234,9.131011,4.316652,3
21493234221942,-0.37328035,9.097511,4.3357944,3
21493236601005,-0.37806597,9.059227,4.316652,3
21493238980015,-0.37328035,9.016156,4.321438,3
21493241359025,-0.36370903,8.973084,4.345366,3
21493243738036,-0.3493521,8.9348,4.345366,3
21493246117098,-0.3589234,8.891729,4.3357944,3
21493248496057,-0.36370903,8.863015,4.3405805,3
21493250875171,-0.34456646,8.829515,4.359723,3
21493253254182,-0.33020952,8.7673025,4.354937,3
21493255633192,-0.32063824,8.729017,4.345366,3
21493258012255,-0.34456646,8.729017,4.3357944,3
21493260391265,-0.3062813,8.738588,4.3501515,3
21493262770275,-0.29192436,8.724232,4.359723,3
21493265149338,-0.2632105,8.729017,4.3740797,3
21493267528348,-0.26799613,8.719446,4.3740797,3
21493269907411,-0.2440679,8.724232,4.359723,3
21493272286421,-0.22013968,8.743374,4.354937,3
21493274665432,-0.19621146,8.7577305,4.3357944,3
21493277044442,-0.17706887,8.79123,4.302295,3
21493279423505,-0.16271193,8.829515,4.3118663,3
21493281802515,-0.15792629,8.848659,4.331009,3
21493284181577,-0.17228323,8.85823,4.345366,3
21493286560588,-0.16749759,8.853444,4.3501515,3
21493288939598,-0.16749759,8.872586,4.321438,3
21493291318609,-0.17228323,8.920443,4.287938,3
21493293697671,-0.16271193,8.949157,4.2448673,3
21493296076682,-0.18185452,8.958728,4.23051,3
21493298455744,-0.22971097,8.963513,4.2448673,3
21493300834755,-0.2440679,8.973084,4.26401,3
21493303213765,-0.2536392,8.968299,4.2687955,3
21493305592827,-0.28713873,8.968299,4.240082,3
21493307971838,-0.30149564,8.992228,4.211368,3
21493310350848,-0.30149564,9.016156,4.1874394,3
21493312729911,-0.3062813,9.01137,4.168297,3
21493315108921,-0.31585258,9.01137,4.168297,3
21493317487932,-0.27756742,8.997013,4.1874394,3
21493319866994,-0.23928227,8.987442,4.197011,3
21493322246005,-0.20578274,8.973084,4.182654,3
21493324625015,-0.18185452,8.977871,4.1443686,3
21493327004077,-0.16749759,8.944371,4.1347976,3
21493329383088,-0.14356937,8.920443,4.091727,3
21493331762098,-0.16271193,8.977871,4.15394,3
21493334141161,-0.10049855,8.906086,4.15394,3
21493336520171,-0.15314065,8.9108715,4.1587257,3
21493338899182,-0.124426775,8.891729,4.139583,3
21493341278244,-0.124426775,8.891729,4.106084,3
21493343657255,-0.15314065,8.891729,4.091727,3
21493346036265,-0.14356937,8.867801,4.101298,3
21493348415327,-0.15792629,8.882157,4.115655,3
21493350794234,-0.16271193,8.853444,4.125226,3
21493353173348,-0.21535404,8.843872,4.130012,3
21493355552411,-0.20578274,8.863015,4.106084,3
21493357931421,-0.22971097,8.85823,4.063013,3
21493360310432,-0.2440679,8.882157,4.0534415,3
21493362689494,-0.2440679,8.9108715,4.048656,3
21493365068452,-0.29192436,8.9108715,4.082155,3
21493367447515,-0.28235307,8.9348,4.115655,3
21493369826577,-0.32063824,8.968299,4.1635113,3
21493372205588,-0.31585258,8.987442,4.1491547,3
21493374584598,-0.32542387,9.01137,4.130012,3
21493376963661,-0.32542387,9.0544405,4.1204405,3
21493379342671,-0.31585258,9.092726,4.139583,3
21493381721682,-0.3062813,9.102298,4.1778684,3
21493384100744,-0.32542387,9.111869,4.206582,3
21493386479755,-0.34456646,9.116654,4.2161536,3
21493388858765,-0.3684947,9.102298,4.2161536,3
21493391237775,-0.38285163,9.107083,4.2448673,3
21493393616838,-0.39720857,9.073584,4.2448673,3
21493395995848,-0.39720857,9.044869,4.254439,3
21493398374911,-0.3924229,9.020942,4.2831526,3
21493400753921,-0.3589234,8.987442,4.3118663,3
21493403132932,-0.31585258,8.958728,4.3118663,3
21493405511994,-0.2727818,8.906086,4.302295,3
21493407890952,-0.23449662,8.848659,4.302295,3
21493410270015,-0.2009971,8.82473,4.331009,3
21493412649077,-0.148355,8.786445,4.3405805,3
21493415028088,-0.124426775,8.772088,4.3788652,3
21493417407098,-0.086141616,8.738588,4.398008,3
21493419786161,-0.019142581,8.733803,4.388437,3
21493422165171,0.033499517,8.724232,4.3836513,3
21493424544182,0.06699903,8.729017,4.3932223,3
21493426923244,0.10049855,8.733803,4.4075794,3
21493429302255,0.086141616,8.724232,4.4171505,3
21493431681317,0.07178468,8.733803,4.4315076,3
21493434060327,0.05742774,8.748159,4.421936,3
21493436439338,0.047856454,8.805588,4.436293,3
21493438818348,0.019142581,8.834301,4.398008,3
21493441197411,-0.047856454,8.886943,4.345366,3
21493443576421,-0.11485548,8.9108715,4.321438,3
21493445955432,-0.16271193,8.9108715,4.3357944,3
21493448334494,-0.23449662,8.944371,4.345366,3
21493450713505,-0.28713873,8.920443,4.345366,3
21493453092567,-0.3589234,8.944371,4.3501515,3
21493455471577,-0.38763726,8.944371,4.2927237,3
21493457850588,-0.4546363,8.949157,4.2352962,3
21493460229598,-0.47377887,8.958728,4.2017965,3
21493462608661,-0.5072784,8.944371,4.182654,3
21493464987671,-0.526421,8.968299,4.1922255,3
21493467366734,-0.55034924,8.925228,4.211368,3
21493469745744,-0.5694918,8.944371,4.2161536,3
21493472124755,-0.57427746,8.944371,4.2017965,3
21493474503765,-0.55034924,8.953942,4.1635113,3
21493476882827,-0.5455636,8.958728,4.1443686,3
21493479261838,-0.4977071,8.9826565,4.139583,3
21493481640900,-0.4833502,8.9826565,4.15394,3
21493484019911,-0.4354937,8.977871,4.173083,3
21493486398921,-0.39720857,8.973084,4.206582,3
21493488777984,-0.38763726,9.001799,4.2161536,3
21493491156994,-0.33499518,8.992228,4.2017965,3
21493493536005,-0.28713873,8.977871,4.1635113,3
21493495915067,-0.2632105,8.958728,4.1491547,3
21493498294077,-0.22971097,8.949157,4.1778684,3
21493500673088,-0.23449662,8.915657,4.197011,3
21493503052150,-0.21535404,8.853444,4.1874394,3
21493505431161,-0.20578274,8.834301,4.197011,3
21493507810171,-0.19621146,8.79123,4.173083,3
21493510189234,-0.20578274,8.772088,4.1443686,3
21493512568244,-0.22971097,8.772088,4.125226,3
21493514947255,-0.24885355,8.762517,4.125226,3
21493517326317,-0.29671,8.79123,4.1635113,3
21493519705327,-0.34456646,8.805588,4.1922255,3
21493522084338,-0.38763726,8.839087,4.2352962,3
21493524463400,-0.42592242,8.863015,4.23051,3
21493526842411,-0.44985065,8.9348,4.2257247,3
21493529221421,-0.4546363,8.977871,4.1922255,3
21493531600484,-0.51206404,8.977871,4.1874394,3
21493533979494,-0.526421,9.030513,4.23051,3
21493536358505,-0.5312066,9.049655,4.2927237,3
21493538737567,-0.5838487,9.064013,4.331009,3
21493541116577,-0.5886344,9.059227,4.3501515,3
21493543495588,-0.59342,9.064013,4.3357944,3
21493545874650,-0.5838487,9.064013,4.331009,3
21493548253661,-0.57906306,9.025727,4.3070807,3
21493550632671,-0.5694918,8.9826565,4.3070807,3
21493553011734,-0.5407779,8.949157,4.3357944,3
21493555390744,-0.526421,8.915657,4.359723,3
21493557769755,-0.5407779,8.896515,4.398008,3
21493560148817,-0.5407779,8.829515,4.388437,3
21493562527827,-0.526421,8.781659,4.369294,3
21493564906890,-0.4977071,8.748159,4.359723,3
21493567285900,-0.5312066,8.724232,4.369294,3
21493569664911,-0.5312066,8.695518,4.3740797,3
21493572043921,-0.5407779,8.695518,4.3836513,3
21493574422932,-0.5407779,8.666803,4.4075794,3
21493576801994,-0.55034924,8.671589,4.421936,3
21493579181005,-0.56470615,8.652447,4.4075794,3
21493581560067,-0.5455636,8.676374,4.388437,3
21493583939077,-0.5407779,8.685946,4.3932223,3
21493586318140,-0.5455636,8.700303,4.388437,3
21493588697150,-0.5072784,8.729017,4.402794,3
21493591076161,-0.5024927,8.748159,4.4315076,3
21493593455171,-0.4881358,8.7673025,4.4075794,3
21493595834234,-0.52163535,8.776874,4.4075794,3
21493598213244,-0.52163535,8.819944,4.3740797,3
21493600592307,-0.5599205,8.853444,4.354937,3
21493602971317,-0.5407779,8.882157,4.331009,3
21493605350327,-0.5886344,8.9108715,4.3118663,3
21493607729390,-0.60777694,8.925228,4.316652,3
21493610108400,-0.6556334,8.9108715,4.2927237,3
21493612487411,-0.6891329,8.920443,4.2927237,3
21493614866473,-0.75613195,8.930014,4.287938,3
21493617245484,-0.7800602,8.9108715,4.2592244,3
21493619624494,-0.7752745,8.925228,4.2161536,3
21493622003557,-0.7704889,8.920443,4.1778684,3
21493624382567,-0.7800602,8.939586,4.1491547,3
21493626761577,-0.79441714,8.958728,4.15394,3
21493629140640,-0.7704889,8.9348,4.1587257,3
21493631519650,-0.7704889,8.9108715,4.168297,3
21493633898661,-0.7322037,8.939586,4.1778684,3
21493636277723,-0.6891329,8.953942,4.1587257,3
21493638656734,-0.66041905,8.939586,4.130012,3
21493641035744,-0.6221339,8.939586,4.1204405,3
21493643414807,-0.57906306,8.925228,4.139583,3
21493645793817,-0.5407779,8.925228,4.139583,3
21493648172827,-0.51206404,8.944371,4.1874394,3
21493650551890,-0.47856453,8.944371,4.206582,3
21493652930900,-0.4354937,8.930014,4.173083,3
21493655309911,-0.4354937,8.963513,4.139583,3
21493657688973,-0.39720857,8.958728,4.1204405,3
21493660067984,-0.4354937,8.968299,4.125226,3
21493662446994,-0.43070808,8.939586,4.139583,3
21493664826057,-0.44506502,8.939586,4.1778684,3
21493667205067,-0.45942193,8.925228,4.211368,3
21493669584077,-0.47377887,8.920443,4.1874394,3
21493671963140,-0.4881358,8.925228,4.1778684,3
21493674342150,-0.5072784,8.877372,4.1635113,3
21493676721161,-0.53599226,8.867801,4.15394,3
21493679100171,-0.5455636,8.843872,4.1587257,3
21493681479234,-0.55513483,8.796016,4.1922255,3
21493683858244,-0.526421,8.7673025,4.2257247,3
21493686237307,-0.55513483,8.772088,4.2257247,3
21493688616317,-0.55513483,8.796016,4.2161536,3
21493690995327,-0.526421,8.815159,4.211368,3
21493693374390,-0.4977071,8.800801,4.220939,3
21493695753400,-0.47856453,8.834301,4.2448673,3
21493698132463,-0.45942193,8.863015,4.2831526,3
21493700511473,-0.44985065,8.863015,4.316652,3
21493702890484,-0.4211368,8.915657,4.359723,3
21493705269546,-0.37806597,8.953942,4.354937,3
21493707648557,-0.4019942,9.006584,4.3262234,3
21493710027567,-0.37806597,9.030513,4.3118663,3
21493712406630,-0.37806597,9.040084,4.345366,3
21493714785640,-0.39720857,9.035298,4.3836513,3
21493717164650,-0.40677986,9.040084,4.4315076,3
21493719543713,-0.4211368,9.025727,4.4602213,3
21493721922723,-0.44985065,9.01137,4.4554358,3
21493724301734,-0.4833502,8.977871,4.4410787,3
21493726680796,-0.5024927,8.949157,4.4075794,3
21493729059807,-0.526421,8.920443,4.388437,3
21493731438817,-0.55034924,8.853444,4.388437,3
21493733817880,-0.5886344,8.800801,4.402794,3
21493736196890,-0.6221339,8.772088,4.426722,3
21493738575900,-0.59342,8.733803,4.412365,3
21493740954963,-0.61734825,8.700303,4.398008,3
21493743333973,-0.6269195,8.685946,4.3645086,3
21493745712984,-0.57427746,8.676374,4.331009,3
21493748091994,-0.5599205,8.681161,4.3118663,3
21493750471057,-0.56470615,8.695518,4.331009,3
21493752850067,-0.5407779,8.709874,4.3501515,3
21493755229130,-0.4977071,8.719446,4.3501515,3
21493757608140,-0.4977071,8.748159,4.3262234,3
21493759987150,-0.4354937,8.748159,4.3118663,3
21493762366213,-0.4354937,8.796016,4.2831526,3
21493764745223,-0.40677986,8.82473,4.316652,3
21493767124234,-0.40677986,8.853444,4.2975097,3
21493769503296,-0.39720857,8.882157,4.287938,3
21493771882307,-0.4354937,8.915657,4.273581,3
21493774261317,-0.4642076,8.953942,4.254439,3
21493776640380,-0.46899325,8.958728,4.23051,3
21493779019390,-0.4977071,9.006584,4.206582,3
21493781398400,-0.55513483,9.016156,4.2017965,3
21493783777463,-0.57906306,9.001799,4.1922255,3
21493786156473,-0.5982057,9.001799,4.206582,3
21493788535484,-0.6269195,8.977871,4.2161536,3
21493790914546,-0.6556334,8.997013,4.168297,3
21493793293557,-0.6652047,8.987442,4.1347976,3
21493795672619,-0.6556334,8.973084,4.115655,3
21493798051630,-0.6556334,8.953942,4.101298,3
21493800430640,-0.6221339,8.953942,4.106084,3
21493802809702,-0.59342,8.939586,4.1204405,3
21493805188713,-0.526421,8.925228,4.125226,3
21493807567723,-0.46899325,8.9108715,4.130012,3
21493809946786,-0.4211368,8.886943,4.115655,3
21493812325796,-0.3397808,8.906086,4.0869412,3
21493814704807,-0.2727818,8.896515,4.082155,3
21493817083869,-0.23449662,8.920443,4.1108694,3
21493819462880,-0.16271193,8.886943,4.15394,3
21493821841890,-0.11964113,8.877372,4.1587257,3
21493824220900,-0.1052842,8.886943,4.182654,3
21493826599963,-0.07178468,8.867801,4.1778684,3
21493828978973,-0.06699903,8.853444,4.1778684,3
21493831358036,-0.07178468,8.867801,4.1587257,3
21493833737046,-0.08135597,8.85823,4.1587257,3
21493836116057,-0.11485548,8.82473,4.1635113,3
21493838495119,-0.124426775,8.815159,4.197011,3
21493840874130,-0.15314065,8.810373,4.220939,3
21493843253140,-0.2105684,8.819944,4.2161536,3
21493845632202,-0.23928227,8.82473,4.2161536,3
21493848011213,-0.28235307,8.853444,4.197011,3
21493850390223,-0.28713873,8.9013,4.197011,3
21493852769286,-0.31106696,8.891729,4.1874394,3
21493855148296,-0.31585258,8.915657,4.2017965,3
21493857527307,-0.33020952,8.920443,4.2448673,3
21493859906369,-0.34456646,8.953942,4.2592244,3
21493862285380,-0.3589234,9.001799,4.2687955,3
21493864664390,-0.34456646,9.001799,4.2687955,3
21493867043452,-0.33020952,9.025727,4.2927237,3
21493869422463,-0.30149564,9.030513,4.278367,3
21493871801473,-0.29192436,9.059227,4.2975097,3
21493874180536,-0.28713873,9.068798,4.3118663,3
21493876559546,-0.29192436,9.073584,4.331009,3
21493878938557,-0.29671,9.049655,4.331009,3
21493881317619,-0.31585258,9.035298,4.3357944,3
21493883696630,-0.32542387,9.001799,4.316652,3
21493886075640,-0.3397808,8.958728,4.2975097,3
21493888454702,-0.3589234,8.930014,4.287938,3
21493890833713,-0.3589234,8.9013,4.2927237,3
21493893212723,-0.37328035,8.886943,4.278367,3
21493895591786,-0.3589234,8.848659,4.287938,3
21493897970796,-0.37806597,8.82473,4.302295,3
21493900349807,-0.38763726,8.800801,4.273581,3
21493902728869,-0.38763726,8.776874,4.2592244,3
21493905107880,-0.37806597,8.796016,4.254439,3
21493907486890,-0.37328035,8.781659,4.249653,3
21493909865952,-0.37806597,8.781659,4.273581,3
21493912244963,-0.41156548,8.810373,4.26401,3
21493914624025,-0.41156548,8.800801,4.254439,3
21493917003036,-0.41635114,8.82473,4.2352962,3
21493919382046,-0.43070808,8.853444,4.2017965,3
21493921761109,-0.44027936,8.85823,4.1874394,3
21493924140119,-0.44506502,8.882157,4.197011,3
21493926519130,-0.4546363,8.9013,4.240082,3
21493928898192,-0.45942193,8.915657,4.249653,3
21493931277202,-0.4546363,8.953942,4.23051,3
21493933656213,-0.45942193,8.958728,4.2017965,3
21493936035275,-0.4977071,8.973084,4.1778684,3
21493938414286,-0.526421,8.9826565,4.1347976,3
21493940793296,-0.56470615,8.9826565,4.125226,3
21493943172359,-0.56470615,8.997013,4.1347976,3
21493945551369,-0.57906306,9.001799,4.1778684,3
21493947930380,-0.57906306,8.997013,4.1874394,3
21493950309442,-0.59342,8.9826565,4.15394,3
21493952688452,-0.63170516,8.992228,4.101298,3
21493955067463,-0.64606214,8.992228,4.0965123,3
21493957446525,-0.63170516,8.968299,4.101298,3
21493959825536,-0.60777694,8.944371,4.139583,3
21493962204546,-0.5982057,8.920443,4.1587257,3
21493964583609,-0.57906306,8.9348,4.1778684,3
21493966962619,-0.56470615,8.930014,4.173083,3
21493969341630,-0.526421,8.949157,4.168297,3
21493971720640,-0.49292147,8.963513,4.1491547,3
21493974099702,-0.4833502,8.958728,4.139583,3
21493976478713,-0.4546363,8.9348,4.1635113,3
21493978857775,-0.4211368,8.930014,4.206582,3
21493981236786,-0.39720857,8.944371,4.23051,3
21493983615796,-0.3589234,8.9348,4.26401,3
21493985994859,-0.33499518,8.9013,4.249653,3
21493988373869,-0.32063824,8.9013,4.220939,3
21493990752932,-0.3062813,8.891729,4.206582,3
21493993131942,-0.31106696,8.843872,4.211368,3
21493995510952,-0.32542387,8.810373,4.206582,3
21493997889963,-0.34456646,8.82473,4.2161536,3
21494000269025,-0.3493521,8.829515,4.2257247,3
21494002648036,-0.39720857,8.82473,4.240082,3
21494005027098,-0.41156548,8.829515,4.240082,3
21494007406109,-0.44985065,8.848659,4.254439,3
21494009785119,-0.4642076,8.848659,4.254439,3
21494012164182,-0.4881358,8.867801,4.273581,3
21494014543192,-0.4833502,8.867801,4.3118663,3
21494016922202,-0.4977071,8.891729,4.3405805,3
21494019301265,-0.5024927,8.915657,4.359723,3
21494021680275,-0.5072784,8.953942,4.359723,3
21494024059286,-0.5168497,8.9826565,4.3357944,3
21494026438348,-0.5168497,9.01137,4.3405805,3
21494028817359,-0.52163535,8.992228,4.354937,3
21494031196369,-0.4977071,8.997013,4.3932223,3
21494033575432,-0.5072784,8.973084,4.402794,3
21494035954442,-0.4977071,8.973084,4.4171505,3
21494038333452,-0.4881358,8.968299,4.398008,3
21494040712515,-0.4642076,8.939586,4.359723,3
21494043091525,-0.4354937,8.9108715,4.345366,3
21494045470536,-0.39720857,8.886943,4.359723,3
21494047849598,-0.41156548,8.839087,4.3645086,3
21494050228609,-0.4211368,8.815159,4.3932223,3
21494052607619,-0.4019942,8.800801,4.412365,3
21494054986682,-0.39720857,8.776874,4.3740797,3
21494057365692,-0.4354937,8.7577305,4.354937,3
21494059744702,-0.4546363,8.776874,4.321438,3
21494062123713,-0.49292147,8.743374,4.316652,3
21494064502775,-0.51206404,8.7577305,4.316652,3
21494066881786,-0.5024927,8.738588,4.3262234,3
21494069260848,-0.5312066,8.79123,4.331009,3
21494071639859,-0.53599226,8.79123,4.3405805,3
21494074018869,-0.55513483,8.800801,4.3070807,3
21494076397932,-0.55034924,8.848659,4.2831526,3
21494078776942,-0.55513483,8.886943,4.273581,3
21494081156005,-0.55513483,8.891729,4.240082,3
21494083535015,-0.57906306,8.896515,4.2592244,3
21494085914025,-0.5886344,8.920443,4.273581,3
21494088293088,-0.5886344,8.953942,4.2687955,3
21494090672098,-0.57906306,8.958728,4.254439,3
21494093051109,-0.55034924,8.9348,4.23051,3
21494095430171,-0.55513483,8.9348,4.206582,3
21494097809182,-0.55513483,8.949157,4.2017965,3
21494100188192,-0.526421,8.977871,4.182654,3
21494102567255,-0.526421,8.953942,4.1874394,3
21494104946265,-0.56470615,8.953942,4.197011,3
21494107325275,-0.59342,8.958728,4.211368,3
21494109704338,-0.56470615,8.958728,4.211368,3
21494112083348,-0.5455636,8.925228,4.1874394,3
21494114462359,-0.55034924,8.930014,4.1635113,3
21494116841421,-0.5407779,8.944371,4.168297,3
21494119220432,-0.526421,8.920443,4.1778684,3
21494121599442,-0.5168497,8.920443,4.1874394,3
21494123978505,-0.4977071,8.9108715,4.197011,3
21494126357515,-0.46899325,8.896515,4.220939,3
21494128736525,-0.42592242,8.891729,4.23051,3
21494131115588,-0.38763726,8.9013,4.211368,3
21494133494598,-0.3684947,8.9013,4.211368,3
21494135873609,-0.36370903,8.886943,4.206582,3
21494138252671,-0.35413775,8.853444,4.2257247,3
21494140631682,-0.3493521,8.848659,4.2352962,3
21494143010692,-0.33020952,8.829515,4.254439,3
21494145389755,-0.3493521,8.829515,4.2592244,3
21494147768765,-0.33020952,8.839087,4.273581,3
21494150147775,-0.33020952,8.819944,4.254439,3
21494152526838,-0.35413775,8.819944,4.249653,3
21494154905848,-0.35413775,8.819944,4.254439,3
21494157284859,-0.36370903,8.805588,4.23051,3
21494159663921,-0.38285163,8.786445,4.2448673,3
21494162042932,-0.38763726,8.810373,4.2831526,3
21494164421942,-0.39720857,8.810373,4.316652,3
21494166801005,-0.4354937,8.829515,4.3405805,3
21494169180015,-0.44506502,8.853444,4.331009,3
21494171559077,-0.44506502,8.877372,4.3262234,3
21494173938088,-0.4354937,8.906086,4.3118663,3
21494176317098,-0.46899325,8.920443,4.331009,3
21494178696161,-0.4833502,8.9348,4.3740797,3
21494181075171,-0.4977071,8.958728,4.412365,3
21494183454182,-0.51206404,8.997013,4.436293,3
21494185833244,-0.4642076,9.006584,4.421936,3
21494188212255,-0.4642076,9.016156,4.4075794,3
21494190591265,-0.47377887,8.9826565,4.369294,3
21494192970327,-0.47856453,8.963513,4.354937,3
21494195349338,-0.45942193,8.953942,4.388437,3
21494197728348,-0.44985065,8.939586,4.4075794,3
21494200107411,-0.45942193,8.906086,4.436293,3
21494202486421,-0.45942193,8.9013,4.4410787,3
21494204865432,-0.45942193,8.891729,4.402794,3
21494207244494,-0.46899325,8.839087,4.3645086,3
21494209623505,-0.47377887,8.834301,4.3501515,3
21494212002515,-0.4833502,8.805588,4.3501515,3
21494214381577,-0.4833502,8.776874,4.3740797,3
21494216760588,-0.49292147,8.7673025,4.3788652,3
21494219139598,-0.5072784,8.733803,4.3788652,3
21494221518609,-0.5072784,8.738588,4.369294,3
21494223897671,-0.52163535,8.7673025,4.321438,3
21494226276682,-0.53599226,8.7673025,4.2927237,3
21494228655744,-0.5312066,8.772088,4.2975097,3
21494231034755,-0.5407779,8.79123,4.3118663,3
21494233413817,-0.5455636,8.796016,4.3357944,3
21494235792827,-0.5407779,8.82473,4.331009,3
21494238171838,-0.5455636,8.882157,4.302295,3
21494240550848,-0.57906306,8.882157,4.2592244,3
21494242929911,-0.5838487,8.896515,4.2352962,3
21494245308921,-0.56470615,8.891729,4.240082,3
21494247687932,-0.5599205,8.9108715,4.2687955,3
21494250066994,-0.5407779,8.9108715,4.2831526,3
21494252446005,-0.55034924,8.939586,4.287938,3
21494254825015,-0.53599226,8.944371,4.2687955,3
21494257204077,-0.5312066,8.953942,4.2017965,3
21494259583088,-0.5168497,8.968299,4.168297,3
21494261962150,-0.5312066,8.9348,4.1635113,3
21494264341161,-0.55034924,8.939586,4.211368,3
21494266720171,-0.5455636,8.925228,4.249653,3
21494269099234,-0.56470615,8.930014,4.254439,3
21494271478244,-0.5407779,8.949157,4.220939,3
21494273857255,-0.526421,8.9013,4.173083,3
21494276236317,-0.526421,8.915657,4.139583,3
21494278615327,-0.526421,8.9108715,4.1635113,3
21494280994338,-0.4977071,8.9013,4.2161536,3
21494283373400,-0.4881358,8.867801,4.249653,3
21494285752411,-0.4642076,8.882157,4.2687955,3
21494288131421,-0.4354937,8.9108715,4.2831526,3
21494290510484,-0.39720857,8.896515,4.2448673,3
21494292889494,-0.38285163,8.882157,4.211368,3
21494295268505,-0.37806597,8.9013,4.206582,3
21494297647567,-0.3684947,8.9013,4.23051,3
21494300026525,-0.3397808,8.867801,4.2592244,3
21494302405588,-0.33499518,8.867801,4.302295,3
21494304784650,-0.30149564,8.872586,4.2927237,3
21494307163661,-0.31585258,8.853444,4.2687955,3
21494309542671,-0.31106696,8.834301,4.2352962,3
21494311921734,-0.3062813,8.819944,4.220939,3
21494314300744,-0.28235307,8.82473,4.206582,3
21494316679755,-0.29192436,8.834301,4.2352962,3
21494319058817,-0.29671,8.819944,4.2448673,3
21494321437827,-0.31106696,8.810373,4.278367,3
21494323816838,-0.3493521,8.819944,4.2831526,3
21494326195900,-0.38285163,8.834301,4.278367,3
21494328574911,-0.4211368,8.848659,4.254439,3
21494330953921,-0.44985065,8.85823,4.249653,3
21494333332984,-0.47377887,8.872586,4.2448673,3
21494335711994,-0.4833502,8.906086,4.249653,3
21494338091005,-0.526421,8.958728,4.2975097,3
21494340470067,-0.53599226,8.987442,4.331009,3
21494342849077,-0.53599226,9.01137,4.354937,3
21494345228140,-0.55034924,9.001799,4.3405805,3
21494347607150,-0.5455636,9.006584,4.345366,3
21494349986161,-0.51206404,9.020942,4.321438,3
21494352365223,-0.51206404,9.001799,4.3070807,3
21494354744182,-0.5312066,8.968299,4.3070807,3
21494357123244,-0.52163535,8.939586,4.3357944,3
21494359502307,-0.5168497,8.9013,4.369294,3
21494361881317,-0.49292147,8.882157,4.354937,3
21494364260327,-0.47377887,8.872586,4.3405805,3
21494366639390,-0.4642076,8.863015,4.2975097,3
21494369018400,-0.45942193,8.843872,4.26401,3
21494371397411,-0.4546363,8.796016,4.254439,3
21494373776473,-0.44506502,8.786445,4.273581,3
21494376155484,-0.44027936,8.748159,4.3070807,3
21494378534494,-0.4354937,8.752945,4.3118663,3
21494380913557,-0.41635114,8.7673025,4.3118663,3
21494383292567,-0.42592242,8.786445,4.2975097,3
21494385671577,-0.4211368,8.7673025,4.254439,3
21494388050640,-0.44506502,8.781659,4.220939,3
21494390429650,-0.47377887,8.776874,4.240082,3
21494392808661,-0.44985065,8.810373,4.278367,3
21494395187723,-0.44985065,8.839087,4.2927237,3
21494397566734,-0.4546363,8.867801,4.316652,3
21494399945744,-0.44027936,8.891729,4.321438,3
21494402324807,-0.4354937,8.925228,4.2687955,3
21494404703817,-0.44985065,8.925228,4.220939,3
21494407082880,-0.4211368,8.925228,4.1874394,3
21494409461890,-0.4354937,8.920443,4.206582,3
21494411840900,-0.4354937,8.9108715,4.2592244,3
21494414219911,-0.44506502,8.930014,4.2831526,3
21494416598973,-0.4354937,8.915657,4.278367,3
21494418977984,-0.4211368,8.906086,4.249653,3
21494421357046,-0.4211368,8.920443,4.173083,3
21494423736057,-0.4354937,8.930014,4.1108694,3
21494426115067,-0.44027936,8.925228,4.115655,3
21494428494130,-0.46899325,8.906086,4.1874394,3
21494430873140,-0.46899325,8.882157,4.2257247,3
21494433252150,-0.46899325,8.891729,4.2448673,3
21494435631213,-0.4881358,8.906086,4.2352962,3
21494438010223,-0.47377887,8.920443,4.1922255,3
21494440389234,-0.46899325,8.915657,4.168297,3
21494442768296,-0.4642076,8.920443,4.1778684,3
21494445147307,-0.44985065,8.930014,4.2017965,3
21494447526317,-0.44027936,8.9348,4.2592244,3
21494449905380,-0.40677986,8.920443,4.3070807,3
21494452284390,-0.39720857,8.891729,4.2975097,3
21494454663400,-0.3397808,8.9013,4.2592244,3
21494457042463,-0.3062813,8.9108715,4.2257247,3
21494459421473,-0.29671,8.891729,4.2257247,3
21494461800484,-0.29192436,8.882157,4.249653,3
21494464179546,-0.29671,8.867801,4.273581,3
21494466558557,-0.29671,8.834301,4.287938,3
21494468937567,-0.29192436,8.815159,4.3118663,3
21494471316630,-0.3062813,8.79123,4.273581,3
21494473695640,-0.31106696,8.810373,4.2352962,3
21494476074650,-0.3493521,8.810373,4.2017965,3
21494478453713,-0.3493521,8.82473,4.211368,3
21494480832723,-0.37328035,8.867801,4.23051,3
21494483211734,-0.3924229,8.843872,4.2448673,3
21494485590796,-0.4211368,8.82473,4.254439,3
21494487969807,-0.46899325,8.848659,4.254439,3
21494490348817,-0.49292147,8.9013,4.26401,3
21494492727880,-0.5312066,8.939586,4.26401,3
21494495106890,-0.5407779,8.977871,4.2687955,3
21494497485900,-0.5407779,9.01137,4.278367,3
21494499864963,-0.57906306,9.016156,4.278367,3
21494502243973,-0.5982057,9.040084,4.316652,3
21494504622984,-0.5982057,9.044869,4.331009,3
21494507002046,-0.60777694,9.059227,4.359723,3
21494509381057,-0.5982057,9.073584,4.354937,3
21494511760119,-0.5886344,9.059227,4.3405805,3
21494514139130,-0.56470615,9.0544405,4.3262234,3
21494516518140,-0.57427746,9.025727,4.316652,3
21494518897202,-0.56470615,9.016156,4.321438,3
21494521276213,-0.53599226,8.968299,4.3357944,3
21494523655223,-0.51206404,8.944371,4.321438,3
21494526034286,-0.49292147,8.925228,4.331009,3
21494528413296,-0.47856453,8.886943,4.2975097,3
21494530792307,-0.4546363,8.863015,4.2831526,3
21494533171369,-0.43070808,8.834301,4.26401,3
21494535550380,-0.41156548,8.79123,4.2592244,3
21494537929390,-0.41156548,8.79123,4.273581,3
21494540308452,-0.38763726,8.7673025,4.2927237,3
21494542687463,-0.35413775,8.752945,4.287938,3
21494545066473,-0.33499518,8.743374,4.273581,3
21494547445432,-0.3493521,8.729017,4.2448673,3
21494549824546,-0.3589234,8.743374,4.2448673,3
21494552203557,-0.3684947,8.7673025,4.211368,3
21494554582619,-0.3684947,8.762517,4.211368,3
21494556961630,-0.36370903,8.800801,4.23051,3
21494559340640,-0.36370903,8.829515,4.254439,3
21494561719702,-0.3589234,8.843872,4.240082,3
21494564098713,-0.37328035,8.896515,4.2161536,3
21494566477723,-0.4019942,8.925228,4.1778684,3
21494568856786,-0.40677986,8.939586,4.125226,3
21494571235796,-0.42592242,8.949157,4.125226,3
21494573614859,-0.44027936,8.963513,4.1587257,3
21494575993869,-0.4546363,8.977871,4.1922255,3
21494578372880,-0.4546363,8.992228,4.1874394,3
21494580751942,-0.45942193,9.001799,4.139583,3
21494583130952,-0.47856453,9.006584,4.0773697,3
21494585509963,-0.47856453,9.016156,4.024728,3
21494587888973,-0.47377887,9.01137,4.019942,3
21494590268036,-0.5024927,9.01137,4.048656,3
21494592647046,-0.4881358,8.997013,4.0965123,3
21494595026109,-0.4833502,9.016156,4.125226,3
21494597405119,-0.4977071,8.992228,4.0773697,3
21494599784130,-0.4833502,8.997013,4.063013,3
21494602163192,-0.4642076,8.992228,4.0295134,3
21494604542202,-0.4211368,8.987442,4.0534415,3
21494606921213,-0.4019942,8.968299,4.1108694,3
21494609300275,-0.3924229,8.963513,4.1491547,3
21494611679286,-0.4019942,8.968299,4.168297,3
21494614058296,-0.3589234,8.915657,4.168297,3
21494616437359,-0.33020952,8.9013,4.130012,3
21494618816369,-0.33499518,8.9013,4.1347976,3
21494621195380,-0.35413775,8.891729,4.130012,3
21494623574442,-0.3397808,8.877372,4.1587257,3
21494625953452,-0.33020952,8.839087,4.206582,3
21494628332463,-0.33499518,8.805588,4.2352962,3
21494630711525,-0.33020952,8.810373,4.2352962,3
21494633090536,-0.3493521,8.79123,4.220939,3
21494635469546,-0.3397808,8.796016,4.206582,3
21494637848609,-0.3493521,8.82473,4.182654,3
21494640227619,-0.3684947,8.82473,4.1635113,3
21494642606630,-0.39720857,8.815159,4.206582,3
21494644985692,-0.4019942,8.839087,4.2687955,3
21494647364702,-0.44506502,8.896515,4.331009,3
21494649743713,-0.4642076,8.944371,4.3262234,3
21494652122775,-0.47377887,8.9826565,4.3070807,3
21494654501786,-0.5072784,9.020942,4.273581,3
21494656880796,-0.5407779,9.030513,4.26401,3
21494659259859,-0.55034924,9.025727,4.316652,3
21494661638869,-0.56470615,9.040084,4.388437,3
21494664017880,-0.5694918,9.059227,4.4410787,3
21494666396942,-0.5982057,9.044869,4.4602213,3
21494668775952,-0.5982057,9.0544405,4.398008,3
21494671155015,-0.57906306,9.049655,4.345366,3
21494673534025,-0.60777694,9.035298,4.3357944,3
21494675913036,-0.60777694,8.992228,4.3501515,3
21494678292046,-0.59342,8.968299,4.398008,3
21494680671109,-0.5694918,8.896515,4.4458647,3
21494683050119,-0.55034924,8.877372,4.4410787,3
21494685429182,-0.5168497,8.82473,4.4171505,3
21494687808192,-0.4977071,8.800801,4.354937,3
21494690187202,-0.4546363,8.7673025,4.3070807,3
21494692566265,-0.43070808,8.752945,4.331009,3
21494694945275,-0.41156548,8.71466,4.3501515,3
21494697324286,-0.38763726,8.705089,4.3836513,3
21494699703348,-0.38763726,8.681161,4.3836513,3
21494702082359,-0.36370903,8.695518,4.3740797,3
21494704461369,-0.3493521,8.685946,4.331009,3
21494706840432,-0.3589234,8.709874,4.2831526,3
21494709219442,-0.3589234,8.743374,4.26401,3
21494711598452,-0.37328035,8.752945,4.278367,3
21494713977515,-0.37806597,8.776874,4.2975097,3
21494716356525,-0.37806597,8.786445,4.3070807,3
21494718735536,-0.40677986,8.82473,4.302295,3
21494721114598,-0.38763726,8.877372,4.26401,3
21494723493609,-0.4019942,8.906086,4.220939,3
21494725872619,-0.4211368,8.9348,4.1874394,3
21494728251630,-0.43070808,8.963513,4.1443686,3
21494730630692,-0.45942193,8.968299,4.168297,3
21494733009702,-0.4546363,8.977871,4.1922255,3
21494735388765,-0.4546363,8.958728,4.2017965,3
21494737767775,-0.4881358,8.9348,4.168297,3
21494740146786,-0.4881358,8.963513,4.106084,3
21494742525848,-0.47377887,8.963513,4.0295134,3
21494744904859,-0.4546363,9.001799,3.9816568,3
21494747283869,-0.45942193,9.006584,3.9720855,3
21494749662932,-0.4833502,8.997013,4.005585,3
21494752041942,-0.47856453,9.001799,4.0534415,3
21494754421005,-0.47377887,9.006584,4.058227,3
21494756800015,-0.44985065,9.006584,4.034299,3
21494759179025,-0.45942193,9.040084,4.0103707,3
21494761558088,-0.45942193,9.049655,3.9673,3
21494763937098,-0.4354937,9.0544405,3.9864426,3
21494766316109,-0.38763726,9.059227,4.0151563,3
21494768695171,-0.38285163,9.040084,4.0677986,3
21494771074182,-0.33499518,9.030513,4.0965123,3
21494773453192,-0.29192436,9.040084,4.106084,3
21494775832255,-0.24885355,9.044869,4.058227,3
21494778211265,-0.22492532,9.020942,4.048656,3
21494780590275,-0.19621146,8.997013,4.024728,3
21494782969338,-0.16749759,8.977871,4.034299,3
21494785348348,-0.148355,8.9348,4.058227,3
21494787727359,-0.12921242,8.925228,4.082155,3
21494790106421,-0.13399807,8.920443,4.0965123,3
21494792485432,-0.14356937,8.9013,4.072584,3
21494794864442,-0.14356937,8.915657,4.072584,3
21494797243505,-0.12921242,8.906086,4.0390844,3
21494799622515,-0.14356937,8.891729,4.0295134,3
21494802001525,-0.18185452,8.877372,4.0534415,3
21494804380588,-0.2105684,8.867801,4.0773697,3
21494806759598,-0.24885355,8.872586,4.0773697,3
21494809138609,-0.28235307,8.872586,4.072584,3
21494811517671,-0.31106696,8.906086,4.106084,3
21494813896682,-0.3589234,8.915657,4.0869412,3
21494816275692,-0.3924229,8.958728,4.1108694,3
21494818654755,-0.40677986,8.949157,4.1443686,3
21494821033765,-0.41635114,9.001799,4.220939,3
21494823412827,-0.44027936,9.030513,4.2448673,3
21494825791838,-0.4354937,9.059227,4.2687955,3
21494828170848,-0.42592242,9.068798,4.254439,3
21494830549859,-0.4354937,9.073584,4.240082,3
21494832928921,-0.44985065,9.097511,4.254439,3
21494835307932,-0.4546363,9.097511,4.302295,3
21494837686994,-0.4642076,9.083155,4.359723,3
21494840066005,-0.45942193,9.064013,4.3645086,3
21494842445015,-0.44985065,9.044869,4.354937,3
21494844824077,-0.4642076,9.025727,4.3070807,3
21494847203088,-0.4642076,8.9826565,4.287938,3
21494849582098,-0.4546363,8.930014,4.2687955,3
21494851961161,-0.45942193,8.877372,4.3070807,3
21494854340171,-0.44985065,8.810373,4.3405805,3
21494856719182,-0.47377887,8.781659,4.359723,3
21494859098244,-0.4881358,8.752945,4.3405805,3
21494861477255,-0.4977071,8.729017,4.316652,3
21494863856265,-0.4977071,8.719446,4.2927237,3
21494866235327,-0.5168497,8.700303,4.287938,3
21494868614338,-0.526421,8.671589,4.3118663,3
21494870993348,-0.5455636,8.666803,4.354937,3
21494873372411,-0.55513483,8.676374,4.3645086,3
21494875751421,-0.57427746,8.709874,4.369294,3
21494878130432,-0.57906306,8.724232,4.359723,3
21494880509494,-0.59342,8.743374,4.3262234,3
21494882888505,-0.6029913,8.772088,4.3501515,3
21494885267515,-0.57906306,8.82473,4.354937,3
21494887646577,-0.56470615,8.877372,4.354937,3
21494890025588,-0.56470615,8.906086,4.3262234,3
21494892404598,-0.57906306,8.925228,4.331009,3
21494894783661,-0.5838487,8.925228,4.287938,3
21494897162671,-0.5838487,8.920443,4.26401,3
21494899541682,-0.57906306,8.939586,4.249653,3
21494901920744,-0.56470615,8.953942,4.273581,3
21494904299755,-0.56470615,8.939586,4.26401,3
21494906678765,-0.59342,8.953942,4.2352962,3
21494909057827,-0.5886344,8.968299,4.1587257,3
21494911436838,-0.59342,8.973084,4.139583,3
21494913815900,-0.6029913,8.973084,4.115655,3
21494916194911,-0.6029913,8.953942,4.1491547,3
21494918573921,-0.60777694,8.925228,4.168297,3
21494920952932,-0.6221339,8.920443,4.197011,3
21494923331994,-0.6269195,8.9348,4.182654,3
21494925711005,-0.6364908,8.944371,4.139583,3
21494928090067,-0.5886344,8.963513,4.1204405,3
21494930469077,-0.5407779,8.987442,4.115655,3
21494932848088,-0.52163535,8.987442,4.1347976,3
21494935227098,-0.4833502,8.958728,4.197011,3
21494937606161,-0.45942193,8.925228,4.220939,3
21494939985171,-0.4211368,8.915657,4.211368,3
21494942364234,-0.34456646,8.886943,4.173083,3
21494944743244,-0.32063824,8.906086,4.1491547,3
21494947122255,-0.29192436,8.848659,4.130012,3
21494949501317,-0.2536392,8.810373,4.1491547,3
21494951880327,-0.28235307,8.786445,4.1635113,3
21494954259338,-0.23928227,8.772088,4.1587257,3
21494956638400,-0.24885355,8.7673025,4.1635113,3
21494959017411,-0.22013968,8.7577305,4.1347976,3
21494961396421,-0.25842485,8.776874,4.1204405,3
21494963775484,-0.26799613,8.762517,4.101298,3
21494966154494,-0.32542387,8.815159,4.125226,3
21494968533505,-0.3589234,8.843872,4.1491547,3
21494970912567,-0.41156548,8.9108715,4.1922255,3
21494973291577,-0.4642076,8.953942,4.23051,3
21494975670588,-0.4833502,9.001799,4.2257247,3
21494978049650,-0.51206404,9.068798,4.2352962,3
21494980428661,-0.5455636,9.12144,4.249653,3
21494982807671,-0.5694918,9.174082,4.254439,3
21494985186734,-0.57906306,9.19801,4.278367,3
21494987565744,-0.6029913,9.183653,4.3501515,3
21494989944755,-0.59342,9.164511,4.3932223,3
21494992323817,-0.57906306,9.164511,4.4075794,3
21494994702775,-0.5455636,9.150154,4.3740797,3
21494997081838,-0.5168497,9.111869,4.3262234,3
21494999460900,-0.47856453,9.064013,4.316652,3
21495001839911,-0.4546363,8.997013,4.321438,3
21495004218973,-0.41156548,8.953942,4.3405805,3
21495006597984,-0.37806597,8.863015,4.3501515,3
21495008976994,-0.34456646,8.800801,4.359723,3
21495011356005,-0.3589234,8.772088,4.3262234,3
21495013735015,-0.33020952,8.738588,4.321438,3
21495016114025,-0.32063824,8.700303,4.3118663,3
21495018493088,-0.3397808,8.671589,4.316652,3
21495020872150,-0.33499518,8.657232,4.316652,3
21495023251161,-0.3684947,8.63809,4.3262234,3
21495025630223,-0.41156548,8.666803,4.3501515,3
21495028009234,-0.46899325,8.676374,4.3357944,3
21495030388244,-0.4833502,8.700303,4.3501515,3
21495032767307,-0.52163535,8.733803,4.359723,3
21495035146317,-0.5312066,8.748159,4.369294,3
21495037525327,-0.5455636,8.7577305,4.3740797,3
21495039904390,-0.56470615,8.748159,4.3357944,3
21495042283400,-0.5694918,8.819944,4.3262234,3
21495044662411,-0.6029913,8.872586,4.316652,3
21495047041473,-0.61734825,8.896515,4.302295,3
21495049420484,-0.63170516,8.896515,4.3262234,3
21495051799494,-0.65084773,8.882157,4.3501515,3
21495054178557,-0.66041905,8.9013,4.345366,3
21495056557567,-0.64606214,8.920443,4.316652,3
21495058936577,-0.64606214,8.9108715,4.249653,3
21495061315640,-0.6412765,8.925228,4.206582,3
21495063694650,-0.6412765,8.920443,4.182654,3
21495066073661,-0.6269195,8.930014,4.206582,3
21495068452723,-0.6652047,8.9108715,4.240082,3
21495070831734,-0.6652047,8.886943,4.26401,3
21495073210744,-0.6364908,8.891729,4.2687955,3
21495075589807,-0.6221339,8.906086,4.206582,3
21495077968817,-0.5838487,8.925228,4.139583,3
21495080347827,-0.59342,8.9108715,4.125226,3
21495082726838,-0.5599205,8.886943,4.1874394,3
21495085105900,-0.5407779,8.886943,4.249653,3
21495087484911,-0.4881358,8.872586,4.2975097,3
21495089863973,-0.44985065,8.867801,4.2975097,3
21495092242984,-0.43070808,8.85823,4.2687955,3
21495094621994,-0.4019942,8.877372,4.2352962,3
21495097001057,-0.38763726,8.848659,4.2017965,3
21495099380067,-0.39720857,8.85823,4.206582,3
21495101759077,-0.3589234,8.834301,4.2687955,3
21495104138140,-0.32542387,8.815159,4.2975097,3
21495106517150,-0.35413775,8.805588,4.302295,3
21495108896213,-0.33020952,8.79123,4.26401,3
21495111275223,-0.3397808,8.810373,4.2352962,3
21495113654234,-0.32063824,8.79123,4.2161536,3
21495116033244,-0.34456646,8.748159,4.2352962,3
21495118412307,-0.34456646,8.743374,4.2448673,3
21495120791317,-0.3684947,8.748159,4.273581,3
21495123170327,-0.36370903,8.738588,4.2687955,3
21495125549390,-0.37328035,8.7673025,4.2352962,3
21495127928400,-0.4211368,8.79123,4.206582,3
21495130307463,-0.45942193,8.819944,4.182654,3
21495132686473,-0.4833502,8.867801,4.2352962,3
21495135065484,-0.5168497,8.891729,4.3070807,3
21495137444546,-0.5168497,8.925228,4.3501515,3
21495139823557,-0.5312066,8.953942,4.3740797,3
21495142202515,-0.5694918,9.035298,4.359723,3
21495144581630,-0.5694918,9.078369,4.321438,3
21495146960640,-0.6029913,9.092726,4.3118663,3
21495149339650,-0.64606214,9.131011,4.3645086,3
21495151718661,-0.6364908,9.116654,4.436293,3
21495154097723,-0.6556334,9.097511,4.493721,3
21495156476734,-0.65084773,9.08794,4.493721,3
21495158855796,-0.64606214,9.049655,4.4315076,3
21495161234807,-0.61734825,9.040084,4.3836513,3
21495163613817,-0.5982057,8.997013,4.3357944,3
21495165992880,-0.57427746,8.930014,4.3645086,3
21495168371890,-0.5312066,8.863015,4.426722,3
21495170750900,-0.51206404,8.819944,4.45065,3
21495173129963,-0.47856453,8.781659,4.4554358,3
21495175508973,-0.4642076,8.748159,4.3788652,3
21495177887984,-0.47377887,8.700303,4.316652,3
21495180267046,-0.44027936,8.681161,4.2592244,3
21495182646057,-0.47856453,8.642876,4.287938,3
21495185025067,-0.49292147,8.628518,4.345366,3
21495187404130,-0.5168497,8.628518,4.3932223,3
21495189783140,-0.52163535,8.652447,4.421936,3
21495192162150,-0.5312066,8.657232,4.3836513,3
21495194541213,-0.56470615,8.71466,4.3357944,3
21495196920223,-0.5694918,8.733803,4.273581,3
21495199299234,-0.57427746,8.772088,4.2927237,3
21495201678296,-0.6125626,8.796016,4.3645086,3
21495204057307,-0.66041905,8.815159,4.426722,3
21495206436317,-0.6843473,8.843872,4.426722,3
21495208815380,-0.6843473,8.9013,4.3645086,3
21495211194390,-0.6939186,8.930014,4.2975097,3
21495213573452,-0.7322037,8.949157,4.249653,3
21495215952463,-0.76570326,8.949157,4.240082,3
21495218331473,-0.76570326,8.920443,4.2687955,3
21495220710536,-0.7322037,8.930014,4.3118663,3
21495223089546,-0.7082755,8.920443,4.3118663,3
21495225468557,-0.70348984,8.915657,4.254439,3
21495227847619,-0.71306115,8.925228,4.1778684,3
21495230226630,-0.7082755,8.939586,4.125226,3
21495232605640,-0.6891329,8.944371,4.101298,3
21495234984702,-0.6843473,8.944371,4.1347976,3
21495237363713,-0.6987042,8.949157,4.2017965,3
21495239742723,-0.67477596,8.925228,4.2257247,3
21495242121786,-0.64606214,8.944371,4.211368,3
21495244500796,-0.61734825,8.958728,4.173083,3
21495246879807,-0.5982057,8.977871,4.1204405,3
21495249258869,-0.5312066,8.992228,4.1204405,3
21495251637880,-0.46899325,8.9826565,4.173083,3
21495254016890,-0.44985065,8.944371,4.2257247,3
21495256395952,-0.4211368,8.920443,4.2352962,3
21495258774963,-0.39720857,8.9013,4.2352962,3
21495261153973,-0.3924229,8.891729,4.182654,3
21495263533036,-0.3924229,8.877372,4.1587257,3
21495265912046,-0.37806597,8.863015,4.1443686,3
21495268291057,-0.34456646,8.810373,4.1491547,3
21495270670067,-0.40677986,8.810373,4.23051,3
21495273049130,-0.3589234,8.786445,4.2161536,3
21495275428140,-0.3924229,8.79123,4.2017965,3
21495277807202,-0.3924229,8.743374,4.139583,3
21495280186213,-0.42592242,8.7673025,4.115655,3
21495282565223,-0.4354937,8.786445,4.106084,3
21495284944286,-0.47377887,8.781659,4.139583,3
21495287323296,-0.52163535,8.79123,4.1874394,3
21495289702307,-0.5312066,8.867801,4.2352962,3
21495292081369,-0.5694918,8.915657,4.254439,3
21495294460380,-0.57906306,8.953942,4.23051,3
21495296839442,-0.59342,9.020942,4.2161536,3
21495299218452,-0.60777694,9.073584,4.2448673,3
21495301597411,-0.61734825,9.116654,4.287938,3
21495303976525,-0.6556334,9.150154,4.359723,3
21495306355536,-0.65084773,9.169296,4.398008,3
21495308734546,-0.6795616,9.183653,4.421936,3
21495311113609,-0.6939186,9.19801,4.426722,3
21495313492619,-0.6939186,9.174082,4.398008,3
21495315871630,-0.6795616,9.107083,4.3788652,3
21495318250692,-0.6364908,9.059227,4.3932223,3
21495320629702,-0.63170516,9.001799,4.3836513,3
21495323008713,-0.60777694,8.958728,4.3788652,3
21495325387775,-0.5599205,8.872586,4.3740797,3
21495327766786,-0.5407779,8.79123,4.3645086,3
21495330145796,-0.5312066,8.748159,4.345366,3
21495332524859,-0.5312066,8.700303,4.3405805,3
21495334903869,-0.4881358,8.671589,4.345366,3
21495337282880,-0.47377887,8.666803,4.3405805,3
21495339661942,-0.46899325,8.623733,4.321438,3
21495342040952,-0.45942193,8.6141615,4.345366,3
21495344419963,-0.4211368,8.595019,4.331009,3
21495346799025,-0.4642076,8.666803,4.3645086,3
21495349178036,-0.4546363,8.63809,4.321438,3
21495351556994,-0.47856453,8.685946,4.354937,3
21495353936109,-0.47856453,8.690732,4.3262234,3
21495356315119,-0.526421,8.762517,4.3501515,3
21495358694130,-0.57427746,8.7673025,4.3070807,3
21495361073192,-0.6221339,8.848659,4.345366,3
21495363452202,-0.6556334,8.872586,4.3501515,3
21495365831213,-0.66999036,8.9013,4.3501515,3
21495368210275,-0.6843473,8.9348,4.273581,3
21495370589286,-0.6939186,9.001799,4.2448673,3
21495372968296,-0.7082755,8.963513,4.182654,3
21495375347359,-0.74177504,8.9826565,4.1778684,3
21495377726369,-0.7322037,8.9826565,4.1491547,3
21495380105380,-0.7513463,9.016156,4.2017965,3
21495382484442,-0.74177504,8.973084,4.168297,3
21495384863452,-0.7322037,8.992228,4.1491547,3
21495387242463,-0.70348984,8.987442,4.091727,3
21495389621525,-0.72263247,9.01137,4.0438704,3
21495392000536,-0.6891329,8.992228,4.0007997,3
21495394379546,-0.6556334,8.997013,4.0151563,3
21495396758609,-0.6221339,8.968299,4.0534415,3
21495399137619,-0.5838487,8.997013,4.0965123,3
21495401516577,-0.5982057,9.01137,4.106084,3
21495403895692,-0.5407779,9.030513,4.091727,3
21495406274702,-0.51206404,9.035298,4.0677986,3
21495408653765,-0.46899325,9.001799,4.063013,3
21495411032775,-0.42592242,8.992228,4.0773697,3
21495413411786,-0.41156548,8.963513,4.130012,3
21495415790848,-0.38763726,8.963513,4.1922255,3
21495418169859,-0.36370903,8.977871,4.2017965,3
21495420548869,-0.33499518,8.944371,4.1491547,3
21495422927880,-0.3062813,8.9108715,4.101298,3
21495425306942,-0.27756742,8.877372,4.0534415,3
21495427685952,-0.28713873,8.867801,4.1108694,3
21495430064963,-0.28235307,8.834301,4.1443686,3
21495432444025,-0.28713873,8.805588,4.168297,3
21495434823036,-0.3397808,8.772088,4.1778684,3
21495437202098,-0.32063824,8.7577305,4.1204405,3
21495439581109,-0.3684947,8.762517,4.082155,3
21495441960119,-0.3924229,8.738588,4.024728,3
21495444339182,-0.41156548,8.776874,4.0534415,3
21495446718192,-0.44985065,8.772088,4.1443686,3
21495449097202,-0.45942193,8.79123,4.182654,3
21495451476265,-0.4977071,8.829515,4.2017965,3
21495453855275,-0.51206404,8.882157,4.1778684,3
21495456234286,-0.5312066,8.958728,4.173083,3
21495458613348,-0.5407779,9.016156,4.173083,3
21495460992359,-0.5886344,9.083155,4.2352962,3
21495463371369,-0.60777694,9.116654,4.3118663,3
21495465750432,-0.6029913,9.159725,4.3501515,3
21495468129442,-0.6125626,9.19801,4.3501515,3
21495470508452,-0.65084773,9.183653,4.354937,3
21495472887463,-0.67477596,9.188439,4.354937,3
21495475266525,-0.6652047,9.188439,4.3405805,3
21495477645536,-0.6795616,9.159725,4.369294,3
21495480024598,-0.6795616,9.102298,4.398008,3
21495482403609,-0.66999036,9.059227,4.426722,3
21495484782619,-0.66999036,9.001799,4.3836513,3
21495487161682,-0.64606214,8.958728,4.3405805,3
21495489540692,-0.61734825,8.882157,4.3118663,3
21495491919702,-0.6029913,8.79123,4.302295,3
21495494298765,-0.6029913,8.719446,4.3357944,3
21495496677775,-0.56470615,8.681161,4.3788652,3
21495499056838,-0.5312066,8.657232,4.369294,3
21495501435848,-0.4977071,8.63809,4.369294,3
21495503814859,-0.5168497,8.628518,4.331009,3
21495506193869,-0.51206404,8.618947,4.302295,3
21495508572932,-0.5312066,8.628518,4.3070807,3
21495510951942,-0.5072784,8.623733,4.354937,3
21495513331005,-0.49292147,8.618947,4.412365,3
21495515710015,-0.5024927,8.681161,4.4602213,3
21495518089025,-0.49292147,8.642876,4.412365,3
21495520468088,-0.52163535,8.71466,4.369294,3
21495522847098,-0.526421,8.776874,4.2831526,3
21495525226109,-0.5694918,8.834301,4.249653,3
21495527605171,-0.60777694,8.848659,4.2592244,3
21495529984182,-0.65084773,8.882157,4.3262234,3
21495532363192,-0.6843473,8.882157,4.3405805,3
21495534742255,-0.6987042,8.9348,4.321438,3
21495537121265,-0.7178468,8.944371,4.2352962,3
21495539500275,-0.74177504,8.944371,4.173083,3
21495541879338,-0.7513463,8.958728,4.125226,3
21495544258348,-0.75613195,8.968299,4.139583,3
21495546637359,-0.7513463,8.958728,4.1635113,3
21495549016369,-0.7800602,8.949157,4.197011,3
21495551395432,-0.7896315,8.958728,4.1922255,3
21495553774442,-0.7704889,8.9826565,4.1347976,3
21495556153505,-0.72263247,8.973084,4.0965123,3
21495558532515,-0.6843473,8.992228,4.082155,3
21495560911525,-0.6652047,8.9826565,4.091727,3
21495563290588,-0.6269195,8.963513,4.1491547,3
21495565669598,-0.56470615,8.963513,4.168297,3
21495568048609,-0.5455636,8.944371,4.168297,3
21495570427671,-0.4881358,8.963513,4.1491547,3
21495572806682,-0.41156548,8.949157,4.1347976,3
21495575185692,-0.36370903,8.949157,4.125226,3
21495577564755,-0.3397808,8.930014,4.1778684,3
21495579943765,-0.29671,8.896515,4.206582,3
21495582322775,-0.2727818,8.829515,4.220939,3
21495584701838,-0.26799613,8.829515,4.220939,3
21495587080848,-0.2727818,8.800801,4.197011,3
21495589459859,-0.29192436,8.796016,4.1922255,3
21495591838921,-0.3062813,8.748159,4.15394,3
21495594217932,-0.33499518,8.685946,4.1443686,3
21495596596942,-0.4019942,8.705089,4.2161536,3
21495598976005,-0.3589234,8.709874,4.249653,3
21495601355015,-0.44506502,8.752945,4.2975097,3
21495603734077,-0.44985065,8.700303,4.23051,3
21495606112984,-0.47856453,8.762517,4.206582,3
21495608492098,-0.47856453,8.819944,4.173083,3
21495610871109,-0.55034924,8.882157,4.2017965,3
21495613250171,-0.5838487,8.886943,4.2592244,3
21495615629182,-0.5838487,8.944371,4.359723,3
21495618008192,-0.5694918,8.992228,4.412365,3
21495620387255,-0.59342,9.059227,4.4315076,3
21495622766265,-0.5694918,9.073584,4.4075794,3
21495625145275,-0.55513483,9.111869,4.3836513,3
21495627524338,-0.56470615,9.131011,4.369294,3
21495629903348,-0.5407779,9.145369,4.359723,3
21495632282359,-0.55513483,9.164511,4.436293,3
21495634661421,-0.55513483,9.111869,4.4889355,3
21495637040380,-0.57906306,9.073584,4.536792,3
21495639419442,-0.5407779,9.035298,4.5320063,3
21495641798505,-0.56470615,8.997013,4.465007,3
21495644177515,-0.5694918,8.944371,4.398008,3
21495646556577,-0.55513483,8.891729,4.345366,3
21495648935588,-0.5407779,8.848659,4.3788652,3
21495651314598,-0.5312066,8.781659,4.4315076,3
21495653693661,-0.5407779,8.733803,4.465007,3
21495656072671,-0.5312066,8.671589,4.4602213,3
21495658451682,-0.5312066,8.657232,4.465007,3
21495660830744,-0.5312066,8.623733,4.4075794,3
21495663209755,-0.52163535,8.633304,4.359723,3
21495665588765,-0.5168497,8.63809,4.3645086,3
21495667967827,-0.5072784,8.6141615,4.402794,3
21495670346838,-0.4833502,8.647661,4.4171505,3
21495672725848,-0.4833502,8.642876,4.4458647,3
21495675104911,-0.51206404,8.671589,4.4410787,3
21495677483921,-0.49292147,8.700303,4.402794,3
21495679862932,-0.5072784,8.772088,4.3740797,3
21495682241994,-0.526421,8.796016,4.3262234,3
21495684620952,-0.5168497,8.819944,4.3070807,3
21495686999963,-0.5694918,8.85823,4.3118663,3
21495689379077,-0.5838487,8.891729,4.345366,3
21495691758088,-0.61734825,8.915657,4.3357944,3
21495694137098,-0.65084773,8.958728,4.302295,3
21495696516161,-0.6795616,8.973084,4.2448673,3
21495698895171,-0.6987042,8.987442,4.1778684,3
21495701274182,-0.70348984,8.977871,4.15394,3
21495703653244,-0.7322037,9.001799,4.1778684,3
21495706032255,-0.7513463,8.9826565,4.197011,3
21495708411265,-0.7322037,8.944371,4.2017965,3
21495710790327,-0.75613195,8.944371,4.1635113,3
21495713169338,-0.7369894,8.9348,4.1108694,3
21495715548348,-0.74177504,8.953942,4.063013,3
21495717927411,-0.7178468,8.953942,4.034299,3
21495720306421,-0.72263247,8.958728,4.0677986,3
21495722685432,-0.6987042,8.949157,4.091727,3
21495725064494,-0.66041905,8.958728,4.139583,3
21495727443505,-0.6125626,8.958728,4.115655,3
21495729822515,-0.5599205,8.992228,4.091727,3
21495732201577,-0.5072784,8.968299,4.082155,3
21495734580588,-0.46899325,8.968299,4.072584,3
21495736959598,-0.44506502,8.9348,4.072584,3
21495739338661,-0.35413775,8.877372,4.091727,3
21495741717671,-0.32542387,8.863015,4.1778684,3
21495744096682,-0.3062813,8.800801,4.168297,3
21495746475744,-0.30149564,8.7577305,4.1108694,3
21495748854755,-0.30149564,8.772088,4.0677986,3
21495751233765,-0.26799613,8.772088,4.048656,3
21495753612827,-0.31585258,8.752945,4.048656,3
21495755991838,-0.3062813,8.752945,4.0677986,3
21495758370848,-0.33020952,8.786445,4.130012,3
21495760749911,-0.37806597,8.829515,4.139583,3
21495763128921,-0.42592242,8.839087,4.1443686,3
21495765507984,-0.4642076,8.891729,4.1635113,3
21495767886994,-0.5024927,8.949157,4.173083,3
21495770266005,-0.5694918,9.025727,4.2161536,3
21495772645015,-0.6221339,9.073584,4.249653,3
21495775024077,-0.63170516,9.140582,4.3070807,3
21495777403088,-0.65084773,9.145369,4.316652,3
21495779782150,-0.66999036,9.164511,4.331009,3
21495782161161,-0.6843473,9.174082,4.354937,3
21495784540171,-0.66041905,9.15494,4.388437,3
21495786919234,-0.6556334,9.126225,4.421936,3
21495789298244,-0.6125626,9.107083,4.4315076,3
21495791677255,-0.5886344,9.0544405,4.436293,3
21495794056317,-0.5455636,9.001799,4.398008,3
21495796435327,-0.51206404,8.949157,4.345366,3
21495798814338,-0.45942193,8.882157,4.3357944,3
21495801193348,-0.44027936,8.815159,4.3645086,3
21495803572411,-0.39720857,8.743374,4.388437,3
21495805951421,-0.3589234,8.705089,4.412365,3
21495808330484,-0.32542387,8.666803,4.388437,3
21495810709494,-0.32542387,8.657232,4.3645086,3
21495813088505,-0.3493521,8.662018,4.321438,3
21495815467567,-0.3589234,8.662018,4.331009,3
21495817846577,-0.37328035,8.642876,4.3836513,3
21495820225588,-0.41635114,8.681161,4.4171505,3
21495822604650,-0.4546363,8.700303,4.4602213,3
21495824983661,-0.5312066,8.719446,4.4745784,3
21495827362671,-0.5599205,8.7577305,4.4315076,3
21495829741734,-0.5838487,8.772088,4.3836513,3
21495832120744,-0.6125626,8.805588,4.3262234,3
21495834499755,-0.6364908,8.839087,4.331009,3
21495836878817,-0.6795616,8.867801,4.354937,3
21495839257827,-0.71306115,8.9013,4.354937,3
21495841636838,-0.71306115,8.925228,4.3357944,3
21495844015900,-0.7322037,8.896515,4.26401,3
21495846394911,-0.7609176,8.9108715,4.2017965,3
21495848773921,-0.7609176,8.906086,4.2017965,3
21495851152984,-0.7609176,8.891729,4.2161536,3
21495853531994,-0.76570326,8.896515,4.2161536,3
21495855911005,-0.7609176,8.915657,4.1922255,3
21495858290067,-0.74177504,8.930014,4.1635113,3
21495860669077,-0.7178468,8.949157,4.106084,3
21495863048088,-0.7465607,8.973084,4.0773697,3
21495865427150,-0.7322037,8.963513,4.0773697,3
21495867806161,-0.6987042,8.973084,4.0773697,3
21495870185171,-0.6891329,9.001799,4.106084,3
21495872564234,-0.7082755,9.001799,4.125226,3
21495874943244,-0.6939186,9.016156,4.115655,3
21495877322255,-0.65084773,9.025727,4.091727,3
21495879701317,-0.6269195,9.020942,4.082155,3
21495882080327,-0.59342,8.9826565,4.0965123,3
21495884459338,-0.5455636,8.973084,4.139583,3
21495886838400,-0.55513483,9.016156,4.1874394,3
21495889217411,-0.49292147,8.973084,4.1635113,3
21495891596421,-0.4881358,8.925228,4.1204405,3
21495893975484,-0.46899325,8.939586,4.106084,3
21495896354494,-0.46899325,8.925228,4.058227,3
21495898733505,-0.4642076,8.896515,4.034299,3
21495901112567,-0.4833502,8.867801,4.072584,3
21495903491577,-0.49292147,8.839087,4.1347976,3
21495905870588,-0.4642076,8.786445,4.1635113,3
21495908249650,-0.4881358,8.781659,4.130012,3
21495910628661,-0.47856453,8.776874,4.0965123,3
21495913007671,-0.4642076,8.772088,4.058227,3
21495915386734,-0.44506502,8.815159,4.0151563,3
21495917765744,-0.44985065,8.848659,4.058227,3
21495920144755,-0.46899325,8.85823,4.091727,3
21495922523817,-0.47856453,8.882157,4.139583,3
21495924902827,-0.49292147,8.930014,4.197011,3
21495927281838,-0.4881358,8.9826565,4.197011,3
21495929660900,-0.47856453,9.030513,4.2161536,3
21495932039911,-0.4546363,9.08794,4.2257247,3
21495934418921,-0.46899325,9.116654,4.23051,3
21495936797984,-0.44985065,9.135797,4.249653,3
21495939176994,-0.46899325,9.145369,4.302295,3
21495941556005,-0.44506502,9.178867,4.3405805,3
21495943935067,-0.4546363,9.150154,4.369294,3
21495946314077,-0.47856453,9.135797,4.3932223,3
21495948693140,-0.4881358,9.145369,4.359723,3
21495951072098,-0.4881358,9.107083,4.3262234,3
21495953451161,-0.46899325,9.040084,4.287938,3
21495955830223,-0.46899325,9.016156,4.278367,3
21495958209234,-0.44985065,8.9348,4.3118663,3
21495960588244,-0.44506502,8.867801,4.3405805,3
21495962967307,-0.4211368,8.819944,4.3501515,3
21495965346317,-0.41156548,8.786445,4.3262234,3
21495967725327,-0.4211368,8.752945,4.278367,3
21495970104338,-0.40677986,8.7577305,4.23051,3
21495972483400,-0.41156548,8.709874,4.23051,3
21495974862411,-0.4019942,8.685946,4.273581,3
21495977241473,-0.43070808,8.662018,4.316652,3
21495979620484,-0.42592242,8.662018,4.359723,3
21495981999494,-0.4354937,8.671589,4.3405805,3
21495984378557,-0.4211368,8.724232,4.316652,3
21495986757567,-0.44985065,8.733803,4.273581,3
21495989136577,-0.49292147,8.752945,4.2448673,3
21495991515640,-0.5024927,8.776874,4.240082,3
21495993894650,-0.5312066,8.82473,4.302295,3
21495996273661,-0.56470615,8.882157,4.354937,3
21495998652723,-0.57906306,8.9013,4.3070807,3
21496001031734,-0.6221339,8.939586,4.2448673,3
21496003410744,-0.6412765,8.992228,4.1778684,3
21496005789807,-0.66999036,8.992228,4.115655,3
21496008168817,-0.6987042,8.9826565,4.1204405,3
21496010547827,-0.72741807,8.9826565,4.1922255,3
21496012926890,-0.7609176,8.977871,4.2257247,3
21496015305900,-0.7465607,8.997013,4.2257247,3
21496017684911,-0.74177504,9.020942,4.15394,3
21496020063973,-0.6939186,9.001799,4.072584,3
21496022442984,-0.6987042,8.997013,4.019942,3
21496024821994,-0.67477596,8.977871,4.005585,3
21496027201057,-0.66999036,8.987442,4.0677986,3
21496029580067,-0.6652047,8.968299,4.130012,3
21496031959077,-0.6125626,8.987442,4.1491547,3
21496034338140,-0.57906306,8.987442,4.115655,3
21496036717150,-0.5407779,8.997013,4.0534415,3
21496039096161,-0.47377887,9.001799,4.019942,3
21496041475223,-0.46899325,8.997013,4.019942,3
21496043854234,-0.4019942,8.953942,4.072584,3
21496046233244,-0.38285163,8.9013,4.139583,3
21496048612307,-0.34456646,8.867801,4.1874394,3
21496050991317,-0.33020952,8.843872,4.1635113,3
21496053370327,-0.2727818,8.79123,4.106084,3
21496055749390,-0.2727818,8.752945,4.058227,3
21496058128400,-0.26799613,8.690732,4.0390844,3
21496060507411,-0.30149564,8.705089,4.106084,3
21496062886473,-0.3062813,8.681161,4.1874394,3
21496065265484,-0.3493521,8.681161,4.2161536,3
21496067644494,-0.36370903,8.733803,4.220939,3
21496070023557,-0.41635114,8.776874,4.173083,3
21496072402567,-0.4354937,8.839087,4.1108694,3
21496074781577,-0.53599226,8.925228,4.130012,3
21496077160640,-0.5407779,8.992228,4.1778684,3
21496079539650,-0.60777694,9.064013,4.3070807,3
21496081918609,-0.63170516,9.126225,4.412365,3
21496084297723,-0.63170516,9.169296,4.4458647,3
21496086676734,-0.61734825,9.226724,4.426722,3
21496089055744,-0.6125626,9.250652,4.3740797,3
21496091434807,-0.61734825,9.265009,4.359723,3
21496093813817,-0.6412765,9.265009,4.426722,3
21496096192827,-0.59342,9.183653,4.4602213,3
21496098571890,-0.6269195,9.202796,4.5655055,3
21496100950900,-0.55513483,9.102298,4.5559344,3
21496103329911,-0.57427746,9.059227,4.4841495,3
21496105708973,-0.56470615,8.968299,4.3788652,3
21496108087984,-0.5072784,8.920443,4.3262234,3
21496110466994,-0.4833502,8.829515,4.3501515,3
21496112846057,-0.45942193,8.724232,4.3836513,3
21496115225067,-0.44506502,8.671589,4.465007,3
21496117604077,-0.4019942,8.609376,4.469793,3
21496119983140,-0.4019942,8.575876,4.4602213,3
21496122362150,-0.4211368,8.551949,4.402794,3
21496124741161,-0.41635114,8.5423765,4.3501515,3
21496127120223,-0.4211368,8.523234,4.3357944,3
21496129499234,-0.44027936,8.499306,4.398008,3
21496131878244,-0.4833502,8.513663,4.4985065,3
21496134257307,-0.4642076,8.580662,4.5798626,3
21496136636317,-0.44985065,8.63809,4.584648,3
21496139015327,-0.44506502,8.700303,4.4602213,3
21496141394390,-0.46899325,8.762517,4.2927237,3
21496143773400,-0.49292147,8.819944,4.2017965,3
21496146152411,-0.52163535,8.829515,4.211368,3
