t_ns,ax,ay,az,accuracy
27651402062407,5.111069,10.576276,3.871587,3
27651404439230,5.74756,10.365707,3.9194436,3
27651406818345,6.3888364,10.126426,3.9290147,3
27651409197511,7.001399,9.853643,3.900301,3
27651411576678,7.60439,9.609575,3.8237305,3
27651413955793,8.169097,9.370294,3.7136607,3
27651416334959,8.719446,9.107083,3.5605202,3
27651418714126,9.260223,8.867801,3.3260236,3
27651421093241,9.820144,8.575876,3.0580273,3
27651423472407,10.193424,8.365308,2.8570302,3
27651425851574,10.437492,8.202596,2.6895328,3
27651428230688,10.705488,8.001599,2.4646072,3
27651430609855,10.968699,7.786245,2.1631117,3
27651432989022,11.19841,7.52782,1.8711873,3
27651435368136,11.361122,7.283752,1.5888343,3
27651437747303,11.480763,7.058827,1.3208381,3
27651440126470,11.609976,6.8099732,1.0815558,3
27651442505220,11.729616,6.5659056,0.8470592,3
27651444884751,11.849257,6.3122663,0.6412765,3
27651447263918,11.892328,6.0251274,0.44985065,3
27651449643084,11.940185,5.7284174,0.33020952,3
27651452022199,11.954542,5.3790655,0.22971097,3
27651454401366,11.906686,5.0392847,0.16271193,3
27651456780532,11.906686,4.685147,0.13399807,3
27651459159647,11.834901,4.359723,0.13878371,3
27651461538813,11.772687,4.0295134,0.2105684,3
27651463917980,11.739188,3.7136607,0.31585258,3
27651466297095,11.672189,3.4025939,0.44506502,3
27651468676261,11.657832,3.1489546,0.6029913,3
27651471055428,11.997613,3.1106694,0.91884387,3
27651473434543,12.399607,3.158526,1.416551,3
27651475813709,12.107682,2.8570302,1.6606189,3
27651478192876,11.68176,2.5411777,1.7946169,3
27651480571991,11.23191,2.172683,1.9238294,3
27651482951157,10.863415,1.8233309,2.091327,3
27651485330324,10.518848,1.4452649,2.2348964,3
27651487709438,10.265209,1.0767702,2.388037,3
27651490088605,9.97807,0.6795616,2.5555346,3
27651492467772,9.7196455,0.34456646,2.6991038,3
27651494846886,9.475577,0.09571291,2.8570302,3
27651497226053,9.217153,-0.05742774,2.9096723,3
27651499605220,8.863015,-0.20578274,3.1154552,3
27651501984334,8.508878,-0.33020952,3.2829528,3
27651504363501,8.1738825,-0.45942193,3.3643086,3
27651506742668,7.8436728,-0.59342,3.4791641,3
27651509121782,7.5086775,-0.6843473,3.5365918,3
27651511500949,7.2550383,-0.76570326,3.5365918,3
27651513880116,7.0061846,-0.81834537,3.5365918,3
27651516259230,6.7525454,-0.83748794,3.5365918,3
27651518638397,6.4558353,-0.89013004,3.546163,3
27651521017563,6.15434,-0.93320084,3.5509489,3
27651523396678,5.8480587,-0.9523434,3.5988052,3
27651525775845,5.517849,-0.9762716,3.603591,3
27651528155011,5.1493545,-0.9906286,3.641876,3
27651530534126,4.8095737,-0.971486,3.67059,3
27651532913293,4.436293,-0.9284152,3.7136607,3
27651535292459,4.0390844,-0.89013004,3.7328033,3
27651537671574,3.7280176,-0.8997013,3.7710886,3
27651540050741,3.507878,-0.9906286,3.8380876,3
27651542429855,3.507878,-1.2346965,3.9290147,3
27651544809022,3.6227336,-1.5744773,3.9768713,3
27651547188188,3.5892339,-1.8568304,3.9194436,3
27651549567355,3.2350962,-1.9142581,3.8237305,3
27651551946470,2.684747,-1.847259,3.751946,3
27651554325636,2.1343977,-1.7180467,3.7184465,3
27651556704803,1.6558332,-1.5553347,3.7040894,3
27651559083918,1.253839,-1.430908,3.7136607,3
27651561463084,0.90448695,-1.2921243,3.7471602,3
27651563842251,0.6556334,-1.1246266,3.8141594,3
27651566221418,0.4833502,-0.94755775,3.900301,3
27651568600532,0.39720857,-0.7513463,3.991228,3
27651570979699,0.38285163,-0.5982057,4.101298,3
27651573358813,0.41156548,-0.46899325,4.2448673,3
27651575737980,0.4881358,-0.3397808,4.388437,3
27651578117147,0.55034924,-0.28235307,4.551149,3
27651580496313,0.5982057,-0.22492532,4.7425747,3
27651582875428,0.65084773,-0.22492532,4.9340005,3
27651585254595,0.67477596,-0.25842485,5.1158547,3
27651587633761,0.6556334,-0.29671,5.2977095,3
27651590012876,0.60777694,-0.37806597,5.517849,3
27651592392043,0.5024927,-0.4546363,5.7284174,3
27651594771105,0.38763726,-0.52163535,5.948557,3
27651597150324,0.21535404,-0.6125626,6.1734824,3
27651599529491,0.02871387,-0.7369894,6.4031935,3
27651601908657,-0.13878371,-0.8279166,6.6281185,3
27651604287772,-0.28235307,-0.93320084,6.876972,3
27651606666938,-0.46899325,-0.9954142,7.1545396,3
27651609046105,-0.61734825,-1.0719845,7.4416785,3
27651611425220,-0.8039884,-1.1581261,7.771888,3
27651613804386,-1.0049855,-1.2059826,8.145168,3
27651616183553,-1.1724831,-1.2586247,8.556734,3
27651618562668,-1.3351951,-1.3112668,8.973084,3
27651620941834,-1.5122639,-1.3208381,9.38465,3
27651623321001,-1.7419748,-1.2634103,9.762716,3
27651625700116,-1.9334008,-1.2299109,10.102497,3
27651628079230,-2.1008983,-1.1533405,10.360922,3
27651630458449,-2.239682,-1.0480564,10.475778,3
27651632837563,-2.2636101,-0.9762716,10.504492,3
27651635216730,-2.2588246,-0.91884387,10.4566345,3
27651637595897,-2.1535404,-0.8757731,10.356136,3
27651639975011,-2.0195422,-0.8757731,10.250853,3
27651642354178,-1.8568304,-0.8662018,10.145568,3
27651644733345,-1.6319051,-0.8662018,10.049855,3
27651647112459,-1.3878372,-0.89013004,10.01157,3
27651649491626,-1.1246266,-0.9762716,10.049855,3
27651651870793,-0.8805587,-1.052842,10.0881405,3
27651654249907,-0.6556334,-1.1246266,10.12164,3
27651656629074,-0.4019942,-1.1772687,10.131211,3
27651659008241,-0.148355,-1.2873386,10.193424,3
27651661387355,0.148355,-1.4213367,10.313066,3
27651663766522,0.47856453,-1.5744773,10.442278,3
27651666145688,0.72263247,-1.6606189,10.57149,3
27651668524803,0.8039884,-1.7180467,10.691132,3
27651670903970,0.7752745,-1.6893328,10.834701,3
27651673283136,0.7178468,-1.6223338,11.035698,3
27651675662251,0.6843473,-1.5553347,11.274981,3
27651678041418,0.65084773,-1.4452649,11.52862,3
27651680420584,0.64606214,-1.3351951,11.772687,3
27651682799699,0.6364908,-1.1916257,12.021541,3
27651685178866,0.6652047,-1.0336994,12.27518,3
27651687558032,0.6891329,-0.8853444,12.490534,3
27651689937147,0.70348984,-0.72263247,12.643675,3
27651692316313,0.7465607,-0.57427746,12.710674,3
27651694695480,0.76570326,-0.38285163,12.744173,3
27651697074595,0.7896315,-0.2009971,12.71546,3
27651699453761,0.75613195,-0.09092726,12.696317,3
27651701832928,0.7178468,0.0047856453,12.64846,3
27651704212043,0.6556334,0.11964113,12.662817,3
27651706591209,0.5599205,0.19621146,12.624533,3
27651708970376,0.44985065,0.2632105,12.591033,3
27651711349491,0.29671,0.30149564,12.543177,3
27651713728657,0.12921242,0.32542387,12.476177,3
27651716107824,-0.08135597,0.33499518,12.404392,3
27651718486938,-0.32542387,0.3684947,12.303894,3
27651720866105,-0.55034924,0.3684947,12.193824,3
27651723245272,-0.80877405,0.34456646,12.074183,3
27651725624386,-1.0576276,0.33020952,11.959328,3
27651728003553,-1.3256238,0.27756742,11.815758,3
27651730382720,-1.5553347,0.2536392,11.68176,3
27651732761834,-1.7946169,0.22492532,11.552547,3
27651735141001,-2.0434706,0.19142582,11.389835,3
27651737520168,-2.254039,0.15314065,11.241481,3
27651739899282,-2.4119651,0.09092726,11.083554,3
27651742278449,-2.5124638,0.033499517,10.949556,3
27651744657616,-2.589034,-0.014356935,10.801202,3
27651747036730,-2.6081767,-0.038285162,10.628919,3
27651749415897,-2.589034,-0.1052842,10.470992,3
27651751795063,-2.5746772,-0.15792629,10.30828,3
27651754174178,-2.5411777,-0.20578274,10.150353,3
27651756553345,-2.4646072,-0.24885355,9.987641,3
27651758932511,-2.3928227,-0.31585258,9.853643,3
27651761311626,-2.349752,-0.3684947,9.686146,3
27651763690793,-2.254039,-0.3924229,9.52822,3
27651766069959,-2.2157538,-0.44506502,9.360723,3
27651768449074,-2.1678972,-0.5168497,9.2075815,3
27651770828241,-2.1008983,-0.5455636,9.08794,3
27651773207355,-2.0003998,-0.5312066,8.977871,3
27651775586522,-1.8999012,-0.47377887,8.906086,3
27651777965688,-1.7850457,-0.39720857,8.863015,3
27651780344855,-1.7084754,-0.28713873,8.829515,3
27651782723970,-1.6031911,-0.17228323,8.79123,3
27651785103136,-1.4739788,-0.08135597,8.79123,3
27651787482303,-1.3304094,-0.0047856453,8.810373,3
27651789861418,-1.2107682,0.09571291,8.848659,3
27651792240584,-1.0863415,0.22013968,8.891729,3
27651794619751,-0.9667004,0.32542387,8.906086,3
27651796998866,-0.8709874,0.4546363,8.930014,3
27651799378032,-0.7609176,0.52163535,8.896515,3
27651801757199,-0.55513483,0.5886344,8.772088,3
27651804136313,-0.32063824,0.6221339,8.547162,3
27651806515480,-0.13399807,0.65084773,8.274381,3
27651808894647,-0.033499517,0.6987042,8.049456,3
27651811273761,-0.009571291,0.7896315,7.877172,3
27651813652928,0.014356935,0.89491564,7.786245,3
27651816032043,0.043070808,0.9762716,7.7240314,3
27651818411209,0.09092726,1.0289137,7.690532,3
27651820790376,0.13399807,1.0863415,7.652247,3
27651823169543,0.18664017,1.119841,7.609176,3
27651825548657,0.21535404,1.1533405,7.585248,3
27651827927824,0.24885355,1.1964114,7.585248,3
27651830306991,0.32542387,1.2490535,7.5900335,3
27651832686105,0.2536392,1.2921243,7.5517483,3
27651835065272,0.11964113,1.3495519,7.5326056,3
27651837444386,-0.02871387,1.4117653,7.542177,3
27651839823553,-0.10049855,1.4548361,7.52782,3
27651842202720,-0.11964113,1.5026926,7.52782,3
27651844581834,-0.07178468,1.5601203,7.5517483,3
27651846961001,-0.0047856453,1.6223338,7.60439,3
27651849340168,0.11964113,1.6223338,7.6570325,3
27651851719282,0.26799613,1.6510476,7.7096744,3
27651854098449,0.40677986,1.6797615,7.7383885,3
27651856477616,0.5407779,1.7467605,7.752745,3
27651858856730,0.6269195,1.7802601,7.8293157,3
27651861235897,0.6269195,1.8233309,7.948957,3
27651863615063,0.56470615,1.9046868,8.092526,3
27651865994178,0.4354937,1.9908284,8.255239,3
27651868373345,0.28235307,2.0865414,8.427522,3
27651870752511,0.1052842,2.172683,8.585447,3
27651873131626,-0.06699903,2.2588246,8.724232,3
27651875510793,-0.22492532,2.3306093,8.863015,3
27651877889959,-0.41156548,2.37368,8.968299,3
27651880269074,-0.5886344,2.4071796,9.040084,3
27651882648241,-0.7082755,2.4358935,9.08794,3
27651885027407,-0.7800602,2.4263222,9.126225,3
27651887406522,-0.8997013,2.3976083,9.174082,3
27651889785688,-1.0576276,2.3784657,9.226724,3
27651892164855,-1.18684,2.3832514,9.226724,3
27651894543970,-1.3256238,2.4023938,9.23151,3
27651896923136,-1.416551,2.3832514,9.217153,3
27651899302303,-1.5026926,2.359323,9.19801,3
27651901681418,-1.550549,2.3449662,9.169296,3
27651904060584,-1.6031911,2.268396,9.145369,3
27651906439751,-1.6462619,2.210968,9.097511,3
27651908818866,-1.7371893,2.172683,9.068798,3
27651911198032,-1.7850457,2.1008983,9.068798,3
27651913577199,-1.8711873,2.0578275,9.097511,3
27651915956313,-1.9908284,2.0195422,9.135797,3
27651918335480,-2.0673988,1.9716859,9.19801,3
27651920714647,-2.1343977,1.9334008,9.2793665,3
27651923093761,-2.2348964,1.8999012,9.38465,3
27651925472928,-2.321038,1.8520447,9.552148,3
27651927852095,-2.3832514,1.8041883,9.71486,3
27651930231209,-2.469393,1.7659031,9.882358,3
27651932610376,-2.565106,1.7515461,10.078569,3
27651934989543,-2.6656044,1.7084754,10.265209,3
27651937368657,-2.7326035,1.6701902,10.432707,3
27651939747824,-2.7565317,1.6462619,10.566705,3
27651942126991,-2.7852457,1.6319051,10.695917,3
27651944506105,-2.7900312,1.6079768,10.829915,3
27651946885272,-2.7996025,1.5888343,10.954342,3
27651949264438,-2.7756743,1.5553347,11.107483,3
27651951643553,-2.78046,1.5122639,11.251052,3
27651954022720,-2.7756743,1.4596218,11.413764,3
27651956401886,-2.7326035,1.4261223,11.557333,3
27651958781001,-2.7086751,1.3974084,11.705688,3
27651961160168,-2.737389,1.3495519,11.815758,3
27651963539334,-2.7469604,1.3160524,11.921042,3
27651965918449,-2.7278178,1.2969099,12.007184,3
27651968297616,-2.737389,1.268196,12.08854,3
27651970676782,-2.7565317,1.268196,12.131611,3
27651973055897,-2.78046,1.2394822,12.227324,3
27651975435063,-2.7852457,1.2394822,12.294323,3
27651977814230,-2.8091738,1.2155539,12.35175,3
27651980193345,-2.861816,1.1724831,12.41875,3
27651982572511,-2.8761728,1.1389836,12.471392,3
27651984951626,-2.8426733,1.0863415,12.528819,3
27651987330793,-2.804388,1.0241281,12.538391,3
27651989709907,-2.804388,0.94277215,12.533605,3
27651992089074,-2.78046,0.8709874,12.476177,3
27651994468241,-2.7469604,0.7800602,12.41875,3
27651996847407,-2.7278178,0.66041905,12.318251,3
27651999226522,-2.6608188,0.53599226,12.222538,3
27652001605688,-2.617748,0.41635114,12.165111,3
27652003984855,-2.5603201,0.30149564,12.155539,3
27652006363970,-2.4837499,0.13399807,12.169896,3
27652008743136,-2.4789643,0.05742774,12.208181,3
27652011122303,-2.5028925,0.033499517,12.279965,3
27652013501418,-2.5842485,0.014356935,12.337394,3
27652015880584,-2.7038896,0.0526421,12.404392,3
27652018259751,-2.8235307,0.12921242,12.466606,3
27652020638866,-2.9479575,0.23449662,12.567104,3
27652023018032,-3.0819557,0.31585258,12.638889,3
27652025397199,-3.225525,0.43070808,12.672389,3
27652027776313,-3.37388,0.53599226,12.705888,3
27652030155480,-3.5318062,0.6652047,12.710674,3
27652032534647,-3.67059,0.81834537,12.701102,3
27652034913761,-3.7758741,0.93320084,12.686746,3
27652037292928,-3.8572302,1.0767702,12.610175,3
27652039672095,-3.9290147,1.1820544,12.519248,3
27652042051209,-3.9194436,1.282553,12.404392,3
27652044430376,-3.4408789,1.4644074,12.327823,3
27652046809543,-2.9192436,1.6558332,12.30868,3
27652049188657,-2.9718857,1.7324036,12.222538,3
27652051567824,-3.1345978,1.7706888,12.059826,3
27652053946991,-3.3499517,1.8185452,11.844472,3
27652056326105,-3.5796626,1.8711873,11.614761,3
27652058705272,-3.818945,1.9381863,11.404193,3
27652061084438,-4.034299,1.995614,11.19841,3
27652063463553,-4.1874394,2.0865414,11.006984,3
27652065842720,-4.3405805,2.1487548,10.853844,3
27652068221886,-4.45065,2.2301106,10.743773,3
27652070601001,-4.5128636,2.2827528,10.662417,3
27652072980168,-4.5415773,2.321038,10.609776,3
27652075359282,-4.503292,2.416751,10.590633,3
27652077738449,-4.465007,2.565106,10.609776,3
27652080117616,-4.426722,2.7086751,10.609776,3
27652082496782,-4.2975097,2.8666015,10.576276,3
27652084875897,-4.139583,3.0388846,10.533205,3
27652087255063,-3.938586,3.1872396,10.480563,3
27652089634230,-3.7423747,3.3547373,10.3848505,3
27652092013345,-3.5557344,3.522235,10.303494,3
27652094392511,-3.359523,3.6753755,10.241281,3
27652096771626,-3.1680973,3.7806597,10.169497,3
27652099150793,-2.9862428,3.8811584,10.169497,3
27652101529959,-2.7900312,3.9481573,10.27478,3
27652103909074,-2.5746772,3.9625144,10.351351,3
27652106288241,-2.3449662,3.938586,10.451849,3
27652108667407,-1.9094725,3.991228,10.547563,3
27652111046522,-1.3543376,4.0773697,10.576276,3
27652113425688,-0.8470592,4.354937,10.60499,3
27652115804855,-0.0047856453,4.991428,10.614561,3
27652118183970,0.3589234,5.3503513,10.552348,3
27652120563136,0.1052842,5.2833524,10.652846,3
27652122942303,-0.38285163,5.072784,10.973485,3
27652125321418,-1.0719845,4.776074,11.423335,3
27652127700584,-1.8137596,4.345366,11.887543,3
27652130079751,-2.4789643,3.8237305,12.279965,3
27652132458866,-3.048456,3.2733815,12.433106,3
27652134838032,-3.5700915,2.6799614,12.375679,3
27652137217199,-4.034299,2.0051854,12.217752,3
27652139596261,-4.421936,1.402194,11.959328,3
27652141975480,-4.6899323,0.89013004,11.480763,3
27652144354647,-4.718646,0.4833502,10.882557,3
27652146733761,-4.699504,0.13878371,10.217353,3
27652149112928,-4.790431,-0.124426775,9.5665045,3
27652151492043,-4.8095737,-0.29192436,8.958728,3
27652153871209,-4.9435716,-0.5072784,8.484949,3
27652156250376,-5.245067,-0.72263247,8.212168,3
27652158629543,-5.3982077,-0.90448695,8.082955,3
27652161008657,-5.599205,-1.1581261,7.9968133,3
27652163387824,-6.0251274,-1.4548361,7.9968133,3
27652165766938,-6.34098,-1.6749759,7.9680996,3
27652168146105,-6.503692,-1.8999012,7.776674,3
27652170525272,-6.4845495,-2.1487548,7.283752,3
27652172904386,-6.7094746,-2.536392,6.4031935,3
27652175283553,-6.9678993,-2.8283165,5.4795637,3
27652177662720,-7.0348988,-2.9096723,4.479364,3
27652180041834,-7.2263246,-2.7326035,3.8237305,3
27652182421001,-7.5661054,-2.2827528,3.4887354,3
27652184800168,-7.834101,-1.6654046,3.5605202,3
27652187179282,-8.111669,-0.9236295,4.0534415,3
27652189558449,-8.346166,-0.11485548,4.7952166,3
27652191937616,-8.551949,0.7369894,5.6183476,3
27652194316730,-8.671589,1.550549,6.3361945,3
27652196695897,-8.676374,2.2875385,6.8721867,3
27652199075063,-8.475378,2.9192436,7.183254,3
27652201454178,-8.202596,3.4791641,7.2933235,3
27652203833345,-7.8963146,3.885944,7.2023964,3
27652206212511,-7.623533,4.182654,6.9678993,3
27652208591626,-7.432107,4.3645086,6.5515485,3
27652210970793,-7.2358956,4.45065,6.1830535,3
27652213349959,-7.1449685,4.4602213,5.771488,3
27652215729074,-7.1066833,4.4458647,5.426922,3
27652218108241,-7.001399,4.4458647,5.0823555,3
27652220487355,-6.896115,4.369294,4.8095737,3
27652222866522,-6.7764735,4.3070807,4.575077,3
27652225245688,-6.6089764,4.2352962,4.3645086,3
27652227624803,-6.3744793,4.182654,4.2257247,3
27652230003970,-6.0729837,4.1204405,4.1491547,3
27652232383136,-5.8480587,4.0869412,4.0773697,3
27652234762251,-5.6039906,4.0295134,4.072584,3
27652237141418,-5.465207,4.005585,4.063013,3
27652239520584,-5.355137,4.0007997,4.0534415,3
27652241899699,-5.3359947,4.0151563,4.101298,3
27652244278866,-5.2833524,3.991228,4.2161536,3
27652246658032,-5.1876397,3.952943,4.4745784,3
27652249037147,-5.048856,3.9577286,4.8047876,3
27652251416313,-4.948357,3.9720855,5.1206403,3
27652253795480,-4.867001,4.019942,5.326423,3
27652256174595,-4.814359,4.101298,5.436493,3
27652258553761,-4.776074,4.1778684,5.3790655,3
27652260932928,-4.74736,4.3070807,5.2929235,3
27652263312043,-4.7569313,4.4841495,5.278567,3
27652265691209,-4.8047876,4.5798626,5.3216376,3
27652268070376,-4.833502,4.6612186,5.45085,3
27652270449491,-4.8909297,4.7569313,5.6853466,3
27652272828657,-4.9579287,4.814359,5.905486,3
27652275207824,-4.938786,4.833502,6.125626,3
27652277586938,-4.8622155,4.833502,6.3601227,3
27652279966105,-4.6803613,4.800002,6.570691,3
27652282345272,-4.388437,4.74736,6.800402,3
27652284724386,-4.048656,4.7282176,7.015756,3
27652287103553,-3.7615173,4.709075,7.1545396,3
27652289482668,-3.4648073,4.6564326,7.2119675,3
27652291861834,-3.2159536,4.599005,7.1880393,3
27652294241001,-2.9383862,4.5798626,7.111469,3
27652296620116,-2.603391,4.5559344,7.001399,3
27652298999282,-2.3545375,4.56072,6.9009004,3
27652301378449,-2.1008983,4.546363,6.795616,3
27652303757616,-1.7419748,4.5559344,6.6424756,3
27652306136730,-1.4213367,4.536792,6.570691,3
27652308515897,-1.3830515,4.493721,6.518049,3
27652310895011,-1.3208381,4.465007,6.4366927,3
27652313274178,-1.2586247,4.4075794,6.4845495,3
27652315653345,-1.253839,4.273581,6.6424756,3
27652318032459,-1.3208381,4.1587257,6.843473,3
27652320411626,-1.4691931,4.034299,7.058827,3
27652322790793,-1.5314065,3.871587,7.274181,3
27652325169907,-1.4883357,3.7088752,7.5326056,3
27652327549074,-1.4404793,3.546163,7.8484583,3
27652329928241,-1.402194,3.4073794,8.169097,3
27652332307355,-1.3064811,3.2446675,8.508878,3
27652334686522,-1.134198,3.0819557,8.819944,3
27652337065688,-0.90448695,2.9192436,9.126225,3
27652339444803,-0.5982057,2.7708886,9.403793,3
27652341823970,-0.28713873,2.6368906,9.638289,3
27652344203136,-0.062213387,2.4646072,9.877572,3
27652346582251,0.124426775,2.2827528,10.092926,3
27652348961418,0.29192436,2.1343977,10.30828,3
27652351340584,0.3684947,2.0051854,10.490134,3
27652353719699,0.44506502,1.9381863,10.676775,3
27652356098866,0.45942193,1.8137596,10.834701,3
27652358477980,0.38763726,1.7036897,10.954342,3
27652360857147,0.24885355,1.5936198,11.093125,3
27652363236313,0.08135597,1.5122639,11.207981,3
27652365615428,-0.10049855,1.4739788,11.327622,3
27652367994595,-0.2536392,1.4548361,11.413764,3
27652370373761,-0.47377887,1.4500505,11.509477,3
27652372752876,-0.5838487,1.4117653,11.519048,3
27652375132043,-0.6556334,1.3686945,11.485549,3
27652377511209,-0.6795616,1.3304094,11.432906,3
27652379890272,-0.63170516,1.3351951,11.351551,3
27652382269491,-0.55034924,1.3304094,11.19841,3
27652384648657,-0.40677986,1.268196,10.9352,3
27652387027772,-0.14356937,1.1629118,10.657632,3
27652389406938,0.09092726,1.0719845,10.399207,3
27652391786105,0.16749759,0.9906286,10.327422,3
27652394165220,0.19142582,0.971486,10.317851,3
27652396544386,0.2536392,1.0001999,10.313066,3
27652398923501,0.3493521,1.0097711,10.246066,3
27652401302668,0.64606214,1.0911272,10.1599245,3
27652403681834,0.81834537,1.1294123,9.944571,3
27652406060949,0.82313097,1.0863415,9.724431,3
27652408440116,0.79920274,1.0241281,9.619147,3
27652410819282,0.7465607,0.91884387,9.470792,3
27652413198397,0.7322037,0.89491564,9.150154,3
27652415577563,0.74177504,0.85184485,8.776874,3
27652417956730,0.7465607,0.7800602,8.427522,3
27652420335845,0.7752745,0.7369894,8.020741,3
27652422715011,0.7896315,0.6795616,7.585248,3
27652425094178,0.85184485,0.67477596,7.1976104,3
27652427473293,0.91405827,0.6795616,6.8721867,3
27652429852459,0.9954142,0.6652047,6.5276203,3
27652432231626,1.0624132,0.6891329,6.2644095,3
27652434610741,1.105484,0.72263247,6.020342,3
27652436989907,1.0959128,0.7322037,5.7762737,3
27652439369074,1.0336994,0.7513463,5.556134,3
27652441748188,0.8566305,0.8135597,5.3072805,3
27652444127355,0.63170516,0.91405827,5.0392847,3
27652446506522,0.3493521,1.0145568,4.766503,3
27652448885636,-0.02871387,1.1485549,4.8861437,3
27652451264803,-0.35413775,1.3064811,5.111069,3
27652453643970,-0.6125626,1.4596218,5.493921,3
27652456023084,-0.91405827,1.6271194,5.905486,3
27652458402251,-1.1772687,1.7850457,6.498906,3
27652460781366,-1.3495519,1.995614,7.207182,3
27652463160532,-1.5409778,2.105684,8.030313,3
27652465539699,-1.7754744,2.1918256,8.963513,3
27652467918813,-2.0434706,2.2301106,9.997213,3
27652470297980,-2.2205393,2.292324,10.916057,3
27652472677147,-2.2827528,2.3449662,11.71526,3
27652475056261,-2.1343977,2.4263222,12.576675,3
27652477435428,-1.8520447,2.4837499,13.361522,3
27652479814595,-1.416551,2.5268207,13.974084,3
27652482193709,-0.8853444,2.5172493,14.46222,3
27652484572876,-0.39720857,2.4837499,14.749359,3
27652486952043,-0.014356935,2.3688943,14.749359,3
27652489331157,0.25842485,2.1966112,14.529219,3
27652491710324,0.41156548,2.0195422,14.160725,3
27652494089491,0.49292147,1.8999012,13.734802,3
27652496468605,0.5024927,1.8424734,13.342379,3
27652498847772,0.5072784,1.8376877,13.045669,3
27652501226886,0.4881358,1.847259,12.734602,3
27652503606053,0.46899325,1.8855443,12.447463,3
27652505985220,0.42592242,1.9238294,12.150753,3
27652508364282,0.36370903,1.9716859,11.839686,3
27652510743501,0.23928227,1.9908284,11.519048,3
27652513122668,0.11964113,1.995614,11.203196,3
27652515501782,-0.014356935,2.009971,10.911271,3
27652517880949,-0.13878371,1.995614,10.695917,3
27652520260011,-0.25842485,1.995614,10.490134,3
27652522639230,-0.37328035,1.942972,10.332209,3
27652525018397,-0.47377887,1.8951155,10.212567,3
27652527397563,-0.51206404,1.875973,10.135997,3
27652529776678,-0.57906306,1.8281165,10.083355,3
27652532155845,-0.6652047,1.7898313,10.025927,3
27652534534959,-0.7513463,1.713261,9.963714,3
27652536914126,-0.8422736,1.6462619,9.911072,3
27652539293293,-0.8805587,1.579263,9.853643,3
27652541672407,-0.9379865,1.5170496,9.810573,3
27652544051574,-1.0719845,1.430908,9.9015,3
27652546430741,-1.2586247,1.3495519,10.068997,3
27652548809855,-1.2969099,1.268196,10.164711,3
27652551189022,-1.1676974,1.134198,10.226924,3
27652553568188,-0.9523434,0.9954142,10.336994,3
27652555947303,-0.7848458,0.9092726,10.514063,3
27652558326470,-0.5838487,0.8327023,10.648061,3
27652560705636,-0.39720857,0.71306115,10.729417,3
27652563084751,-0.28235307,0.6652047,10.8251295,3
27652565463918,-0.16749759,0.6029913,10.911271,3
27652567843032,-0.1052842,0.6125626,10.983056,3
27652570222199,-0.05742774,0.6125626,11.040483,3
27652572601366,-0.0526421,0.6221339,11.102697,3
27652574980532,-0.02871387,0.6412765,11.1936245,3
27652577359647,0.0047856453,0.65084773,11.279766,3
27652579738813,0.0526421,0.66041905,11.341979,3
27652582117928,0.14356937,0.63170516,11.452049,3
27652584497095,0.26799613,0.5838487,11.653047,3
27652586876261,0.39720857,0.51206404,11.796616,3
27652589255376,0.52163535,0.44027936,11.964113,3
27652591634543,0.6364908,0.3062813,12.136396,3
27652594013657,0.7082755,0.16271193,12.27518,3
27652596392824,0.56470615,0.033499517,12.270394,3
27652598771991,0.34456646,-0.16271193,12.232109,3
27652601151157,0.32063824,-0.33499518,12.232109,3
27652603530272,0.40677986,-0.46899325,12.184253,3
27652605909438,0.6364908,-0.5694918,12.169896,3
27652608288605,0.9379865,-0.6269195,12.136396,3
27652610667720,1.3447664,-0.6029913,12.102897,3
27652613046886,1.8281165,-0.5599205,12.136396,3
27652615426001,2.4263222,-0.55034924,12.284752,3
27652617805168,2.9766715,-0.5982057,12.457035,3
27652620184334,3.4360933,-0.6939186,12.600604,3
27652622563449,3.842873,-0.7513463,12.744173,3
27652624942616,4.1491547,-0.7800602,12.873385,3
27652627321782,4.4315076,-0.8279166,12.7393875,3
27652629700897,4.5415773,-0.85184485,12.5958185,3
27652632080063,4.666004,-0.79441714,12.437892,3
27652634459230,4.766503,-0.70348984,12.189038,3
27652636838345,4.8095737,-0.6556334,11.868401,3
27652639217511,4.8287163,-0.6029913,11.586047,3
27652641596678,4.7856455,-0.55034924,11.303694,3
27652643975793,4.6468616,-0.5455636,10.963913,3
27652646354959,4.5655055,-0.52163535,10.63849,3
27652648734074,4.2687955,-0.5455636,10.217353,3
27652651113241,4.15394,-0.6221339,9.738789,3
27652653492407,3.7615173,-0.7465607,9.202796,3
27652655871522,3.37388,-0.81834537,8.71466,3
27652658250688,2.9862428,-0.8805587,8.34138,3
27652660629855,2.6656044,-0.8279166,8.1738825,3
27652663008970,2.3018954,-0.60777694,8.216953,3
27652665388136,2.0434706,-0.3397808,8.432307,3
27652667767303,1.875973,-0.014356935,8.719446,3
27652670146418,1.8233309,0.37328035,9.092726,3
27652672525584,1.7563318,0.6939186,9.336794,3
27652674904751,1.5696917,0.89013004,9.470792,3
27652677283866,1.3495519,0.94755775,9.489935,3
27652679663032,1.0767702,0.9619147,9.408579,3
27652682042199,0.82313097,0.8422736,9.193225,3
27652684421313,0.5982057,0.66999036,8.963513,3
27652686800480,0.39720857,0.46899325,8.709874,3
27652689179595,0.17706887,0.24885355,8.427522,3
27652691558761,-0.033499517,0.014356935,8.130812,3
27652693937928,-0.22013968,-0.23449662,7.867601,3
27652696317043,-0.3924229,-0.44506502,7.628319,3
27652698696209,-0.5838487,-0.5982057,7.422536,3
27652701075376,-0.76570326,-0.76570326,7.2502527,3
27652703454491,-0.9284152,-0.91405827,7.140183,3
27652705833657,-1.0815558,-1.0719845,7.082755,3
27652708212824,-1.1820544,-1.2011969,7.0636125,3
27652710591938,-1.3016955,-1.3064811,7.1210403,3
27652712971105,-1.3878372,-1.3591232,7.2119675,3
27652715350220,-1.4500505,-1.402194,7.365108,3
27652717729386,-1.4931214,-1.4117653,7.5613194,3
27652720108553,-1.5457634,-1.3926228,7.7910304,3
27652722487668,-1.5601203,-1.3160524,8.087741,3
27652724866834,-1.564906,-1.2729816,8.389236,3
27652727246001,-1.5744773,-1.2634103,8.63809,3
27652729625116,-1.579263,-1.2346965,8.882157,3
27652732004282,-1.5457634,-1.2059826,9.097511,3
27652734383449,-1.4931214,-1.1629118,9.274581,3
27652736762563,-1.4261223,-1.1485549,9.403793,3
27652739141730,-1.3495519,-1.1533405,9.499506,3
27652741520897,-1.18684,-1.0959128,9.614362,3
27652743900011,-1.0624132,-1.0049855,9.705289,3
27652746279178,-0.9284152,-0.971486,9.753145,3
27652748658293,-0.7322037,-0.93320084,9.887143,3
27652751037459,-0.30149564,-1.0289137,10.777273,3
27652753416626,0.076570325,-1.0097711,12.08854,3
27652755795741,0.40677986,-0.9667004,12.524034,3
27652758174907,0.5407779,-0.98584294,11.82533,3
27652760554074,0.47377887,-1.0193424,10.810773,3
27652762933188,0.31106696,-0.94755775,10.059426,3
27652765312303,0.23928227,-0.8566305,9.638289,3
27652767691522,0.2632105,-0.6987042,9.542577,3
27652770070636,0.29671,-0.5072784,9.623933,3
27652772449803,0.37328035,-0.28235307,9.801002,3
27652774828918,0.4211368,-0.07178468,9.934999,3
27652777208084,0.45942193,0.10049855,9.982856,3
27652779587251,0.4642076,0.2727818,9.949356,3
27652781966366,0.44506502,0.44027936,9.805787,3
27652784345532,0.39720857,0.5599205,9.638289,3
27652786724699,0.33020952,0.66999036,9.389436,3
27652789103813,0.23928227,0.72263247,9.092726,3
27652791482980,0.148355,0.7896315,8.834301,3
27652793862147,0.10049855,0.8566305,8.599805,3
27652796241261,0.07178468,0.9379865,8.379665,3
27652798620428,0.0526421,1.0241281,8.236095,3
27652800999595,0.0526421,1.0815558,8.111669,3
27652803378709,0.043070808,1.1533405,8.006385,3
27652805757876,0.047856454,1.18684,7.9106717,3
27652808136991,0.062213387,1.2490535,7.834101,3
27652810516157,0.11006984,1.3304094,7.810173,3
27652812895324,0.14356937,1.3782659,7.810173,3
27652815274438,0.19621146,1.430908,7.877172,3
27652817653605,0.2536392,1.4835501,7.9968133,3
27652820032772,0.29192436,1.5314065,8.135597,3
27652822411886,0.37328035,1.5696917,8.26481,3
27652824791053,0.44027936,1.579263,8.41795,3
27652827170220,0.5168497,1.6223338,8.580662,3
27652829549334,0.6221339,1.6462619,8.724232,3
27652831928501,0.7322037,1.6797615,8.877372,3
27652834307668,0.86141616,1.7324036,9.035298,3
27652836686782,1.0193424,1.7611175,9.212367,3
27652839065949,1.1294123,1.7850457,9.370294,3
27652841445063,1.2155539,1.7946169,9.499506,3
27652843824230,1.3016955,1.7850457,9.60479,3
27652846203397,1.3351951,1.7180467,9.657433,3
27652848582511,1.3734802,1.6271194,9.676575,3
27652850961678,1.3878372,1.579263,9.700503,3
27652853340793,1.416551,1.4835501,9.734002,3
27652855719959,1.4213367,1.4261223,9.734002,3
27652858099126,1.4356936,1.3974084,9.734002,3
27652860478293,1.4452649,1.3591232,9.757931,3
27652862857407,1.4691931,1.3351951,9.762716,3
27652865236574,1.4835501,1.3256238,9.781859,3
27652867615688,1.4835501,1.3304094,9.796216,3
27652869994855,1.4739788,1.3447664,9.805787,3
27652872374022,1.4644074,1.3543376,9.796216,3
27652874753136,1.4644074,1.3160524,9.786645,3
27652877132303,1.4356936,1.3064811,9.738789,3
27652879511470,1.3734802,1.282553,9.647861,3
27652881890584,1.3064811,1.2394822,9.552148,3
27652884269751,1.2777673,1.2011969,9.45165,3
27652886648918,1.2155539,1.2011969,9.332008,3
27652889028032,1.18684,1.1916257,9.250652,3
27652891407199,1.1389836,1.2107682,9.19801,3
27652893786366,1.1294123,1.282553,9.169296,3
27652896165480,1.0624132,1.3591232,9.15494,3
27652898544595,0.9906286,1.4500505,9.150154,3
27652900923813,0.8997013,1.5218352,9.183653,3
27652903302928,0.7800602,1.6079768,9.221938,3
27652905682095,0.67477596,1.6797615,9.255438,3
27652908061209,0.57906306,1.7563318,9.30808,3
27652910440376,0.4546363,1.7994026,9.3511505,3
27652912819543,0.3493521,1.8807586,9.403793,3
27652915198657,0.23449662,1.9190438,9.470792,3
27652917577824,0.13399807,1.9525433,9.561719,3
27652919956991,0.02871387,1.9908284,9.638289,3
27652922336105,-0.02871387,2.0195422,9.705289,3
27652924715272,-0.08135597,2.0051854,9.762716,3
27652927094386,-0.16749759,2.009971,9.801002,3
27652929473553,-0.23928227,2.0147567,9.858429,3
27652931852720,-0.3062813,1.9860427,9.9015,3
27652934231834,-0.41635114,1.9764715,9.949356,3
27652936611001,-0.53599226,1.9716859,10.021141,3
27652938990168,-0.63170516,1.9477576,10.112068,3
27652941369282,-0.72263247,1.9669002,10.246066,3
27652943748449,-0.8135597,1.9621146,10.380065,3
27652946127616,-0.8853444,1.942972,10.523634,3
27652948506730,-0.9379865,1.9190438,10.676775,3
27652950885897,-0.9523434,1.9094725,10.815558,3
27652953265063,-0.9619147,1.9046868,10.930414,3
27652955644178,-0.9379865,1.8855443,11.054841,3
27652958023345,-0.89491564,1.8903298,11.126625,3
27652960402459,-0.8566305,1.8855443,11.179267,3
27652962781626,-0.8327023,1.8711873,11.241481,3
27652965160793,-0.80877405,1.8520447,11.313266,3
27652967539907,-0.79441714,1.8185452,11.365908,3
27652969919074,-0.7465607,1.8233309,11.389835,3
27652972298241,-0.7178468,1.8137596,11.413764,3
27652974677355,-0.6795616,1.8041883,11.442478,3
27652977056522,-0.6652047,1.7898313,11.471191,3
27652979435688,-0.61734825,1.8041883,11.475977,3
27652981814803,-0.56470615,1.8281165,11.485549,3
27652984193970,-0.52163535,1.847259,11.509477,3
27652986573136,-0.46899325,1.8855443,11.557333,3
27652988952251,-0.3924229,1.9142581,11.614761,3
27652991331418,-0.3493521,1.9238294,11.643475,3
27652993710532,-0.3062813,1.9334008,11.667403,3
27652996089699,-0.2727818,1.9190438,11.672189,3
27652998468866,-0.23449662,1.9238294,11.691332,3
27653000847980,-0.20578274,1.9142581,11.705688,3
27653003227147,-0.16749759,1.9094725,11.691332,3
27653005606313,-0.12921242,1.8711873,11.662618,3
27653007985428,-0.124426775,1.8568304,11.60519,3
27653010364595,-0.11964113,1.8424734,11.538191,3
27653012743709,-0.12921242,1.8329022,11.456835,3
27653015122876,-0.14356937,1.8520447,11.361122,3
27653017502043,-0.15314065,1.861616,11.255837,3
27653019881157,-0.13878371,1.861616,11.179267,3
27653022260324,-0.13878371,1.8664017,11.093125,3
27653024639491,-0.13878371,1.9142581,11.030912,3
27653027018605,-0.16271193,1.9094725,10.959127,3
27653029397772,-0.17706887,1.8903298,10.872986,3
27653031776938,-0.16271193,1.8711873,10.786844,3
27653034156053,-0.14356937,1.8664017,10.729417,3
27653036535220,-0.124426775,1.8807586,10.676775,3
27653038914282,-0.09092726,1.8903298,10.60499,3
27653041293501,-0.02871387,1.9238294,10.566705,3
27653043672668,0.009571291,1.9860427,10.57149,3
27653046051730,0.023928227,2.0673988,10.576276,3
27653048430949,0.033499517,2.1391835,10.595419,3
27653050810116,0.076570325,2.2205393,10.63849,3
27653053189230,0.10049855,2.292324,10.691132,3
27653055568397,0.10049855,2.3449662,10.71506,3
27653057947563,0.10049855,2.4119651,10.738988,3
27653060326678,0.1052842,2.4502504,10.767702,3
27653062705845,0.124426775,2.4837499,10.777273,3
27653065084959,0.13399807,2.536392,10.786844,3
27653067464126,0.15314065,2.536392,10.815558,3
27653069843293,0.148355,2.536392,10.801202,3
27653072222407,0.15314065,2.5507488,10.815558,3
27653074601574,0.13878371,2.5842485,10.815558,3
27653076980741,0.11964113,2.5986054,10.782059,3
27653079359855,0.062213387,2.617748,10.738988,3
27653081739022,0.02871387,2.617748,10.710274,3
27653084118188,0.02871387,2.5938199,10.700703,3
27653086497303,0.019142581,2.6129622,10.753345,3
27653088876470,0.0,2.603391,10.834701,3
27653091255636,-0.038285162,2.617748,10.882557,3
27653093634751,-0.06699903,2.5938199,10.963913,3
27653096013918,-0.09571291,2.5698915,11.01177,3
27653098393032,-0.16271193,2.5746772,11.059627,3
27653100772199,-0.15792629,2.536392,11.08834,3
27653103151366,-0.13878371,2.5124638,11.112268,3
27653105530480,-0.11964113,2.4598217,11.126625,3
27653107909647,-0.11485548,2.416751,11.140983,3
27653110288813,-0.07178468,2.4071796,11.145768,3
27653112667928,-0.062213387,2.3928227,11.155339,3
27653115047095,-0.06699903,2.388037,11.16491,3
27653117426209,-0.086141616,2.4023938,11.188839,3
27653119805376,-0.09092726,2.4071796,11.217552,3
27653122184543,-0.124426775,2.4358935,11.23191,3
27653124563657,-0.15314065,2.4454648,11.227124,3
27653126942824,-0.19142582,2.4789643,11.203196,3
27653129321991,-0.2440679,2.4933212,11.169696,3
27653131701105,-0.24885355,2.5028925,11.155339,3
27653134080272,-0.26799613,2.536392,11.083554,3
27653136459438,-0.28713873,2.565106,11.016556,3
27653138838553,-0.24885355,2.6081767,10.954342,3
27653141217720,-0.2440679,2.6273193,10.8969145,3
27653143596886,-0.20578274,2.656033,10.829915,3
27653145976001,-0.15792629,2.7086751,10.762917,3
27653148355168,-0.124426775,2.7565317,10.691132,3
27653150734282,-0.13399807,2.7900312,10.595419,3
27653153113449,-0.12921242,2.8139594,10.504492,3
27653155492616,-0.1052842,2.8139594,10.408778,3
27653157871730,-0.08135597,2.8235307,10.289138,3
27653160250897,-0.086141616,2.8378878,10.145568,3
27653162630011,-0.076570325,2.8426733,10.025927,3
27653165009178,-0.09092726,2.8426733,9.896714,3
27653167388293,-0.08135597,2.8187451,9.757931,3
27653169767511,-0.062213387,2.7948167,9.628718,3
27653172146626,-0.047856454,2.8378878,9.513863,3
27653174525793,-0.076570325,2.8378878,9.389436,3
27653176904907,-0.06699903,2.8474588,9.2793665,3
27653179284074,-0.076570325,2.8378878,9.178867,3
27653181663241,-0.09571291,2.8139594,9.08794,3
27653184042355,-0.11485548,2.7996025,8.963513,3
27653186421522,-0.11485548,2.7852457,8.85823,3
27653188800688,-0.11964113,2.7613173,8.762517,3
27653191179751,-0.11006984,2.7469604,8.690732,3
27653193558970,-0.07178468,2.7900312,8.609376,3
27653195938136,-0.062213387,2.7948167,8.56152,3
27653198317251,-0.047856454,2.766103,8.49452,3
27653200696418,-0.023928227,2.78046,8.456235,3
27653203075532,0.0,2.8139594,8.394022,3
27653205454699,-0.0047856453,2.8091738,8.355737,3
27653207833866,-0.014356935,2.833102,8.346166,3
27653210212980,-0.02871387,2.8426733,8.3174515,3
27653212592147,-0.0526421,2.8713872,8.298309,3
27653214971261,-0.076570325,2.885744,8.288737,3
27653217350428,-0.09571291,2.8905299,8.288737,3
27653219729595,-0.124426775,2.9383862,8.298309,3
27653222108709,-0.13878371,2.928815,8.303095,3
27653224487876,-0.17228323,2.9479575,8.322237,3
27653226867043,-0.18664017,2.914458,8.374879,3
27653229246157,-0.19621146,2.885744,8.41795,3
27653231625324,-0.19142582,2.8713872,8.484949,3
27653234004491,-0.20578274,2.8666015,8.551949,3
27653236383605,-0.22492532,2.8139594,8.652447,3
27653238762772,-0.21535404,2.7421749,8.733803,3
27653241141938,-0.18664017,2.6512475,8.82473,3
27653243521053,-0.15792629,2.5555346,8.9348,3
27653245900220,-0.10049855,2.4502504,9.0544405,3
27653248279386,-0.05742774,2.3976083,9.19801,3
27653250658501,0.0047856453,2.321038,9.317652,3
27653253037668,0.06699903,2.2492533,9.475577,3
27653255416782,0.11964113,2.2157538,9.60479,3
27653257795949,0.17228323,2.1535404,9.710074,3
27653260175116,0.19621146,2.1008983,9.8632145,3
27653262554230,0.22971097,2.0817556,9.987641,3
27653264933397,0.25842485,2.0578275,10.092926,3
27653267312563,0.2727818,2.0338993,10.174282,3
27653269691678,0.29671,1.995614,10.222138,3
27653272070845,0.32063824,1.9812572,10.250853,3
27653274449959,0.3493521,1.9908284,10.27478,3
27653276829126,0.38763726,1.9764715,10.27478,3
27653279208293,0.4354937,1.9477576,10.27478,3
27653281587407,0.4833502,1.9477576,10.255638,3
27653283966574,0.51206404,1.9908284,10.255638,3
27653286345741,0.56470615,2.0338993,10.2317095,3
27653288724855,0.5694918,2.0817556,10.255638,3
27653291104022,0.57427746,2.1248264,10.284351,3
27653293483136,0.59342,2.1391835,10.303494,3
27653295862303,0.5694918,2.120041,10.317851,3
27653298241470,0.5599205,2.0865414,10.289138,3
27653300620584,0.55034924,2.0434706,10.241281,3
27653302999751,0.5886344,1.9716859,10.207782,3
27653305378918,0.59342,1.9190438,10.140782,3
27653307758032,0.6221339,1.861616,10.059426,3
27653310137199,0.64606214,1.8281165,9.958928,3
27653312516366,0.66041905,1.8281165,9.858429,3
27653314895480,0.6843473,1.8424734,9.757931,3
27653317274647,0.66999036,1.861616,9.619147,3
27653319653761,0.6795616,1.8664017,9.499506,3
27653322032928,0.67477596,1.9334008,9.370294,3
27653324412095,0.64606214,1.9669002,9.2075815,3
27653326791209,0.6556334,2.053042,9.040084,3
27653329170376,0.6556334,2.120041,8.886943,3
27653331549543,0.6364908,2.210968,8.685946,3
27653333928657,0.6412765,2.2779672,8.465807,3
27653336307824,0.6364908,2.3545375,8.255239,3
27653338686938,0.6221339,2.4358935,8.039884,3
27653341066105,0.5886344,2.5316064,7.8293157,3
27653343445272,0.5886344,2.617748,7.652247,3
27653345824386,0.5694918,2.6991038,7.4656067,3
27653348203553,0.57427746,2.7996025,7.331609,3
27653350582720,0.57427746,2.885744,7.216753,3
27653352961834,0.57906306,2.9575288,7.1210403,3
27653355341001,0.5694918,3.0197423,7.0396843,3
27653357720168,0.5886344,3.0819557,6.963114,3
27653360099282,0.6364908,3.1202407,6.9056864,3
27653362478449,0.6891329,3.196811,6.896115,3
27653364857563,0.7369894,3.2685957,6.8913293,3
27653367236730,0.7848458,3.3116665,6.9009004,3
27653369615897,0.8135597,3.3547373,6.9056864,3
27653371995011,0.86141616,3.4121652,6.9248285,3
27653374374178,0.8853444,3.4408789,6.943971,3
27653376753345,0.91884387,3.4695928,7.001399,3
27653379132459,0.9619147,3.4983068,7.015756,3
27653381511626,1.0241281,3.5270207,7.058827,3
27653383890793,1.0911272,3.5126636,7.092326,3
27653386269907,1.1485549,3.507878,7.149754,3
27653388649074,1.2586247,3.4983068,7.2023964,3
27653391028241,1.5840486,3.5605202,7.2646093,3
27653393407355,2.1678972,3.7088752,7.2933235,3
27653395786522,2.3306093,3.7040894,7.355537,3
27653398165636,2.292324,3.6466618,7.4177504,3
27653400544803,2.201397,3.6131623,7.4943204,3
27653402923970,2.0578275,3.574877,7.556534,3
27653405303084,1.9142581,3.522235,7.618747,3
27653407682251,1.7419748,3.4600215,7.661818,3
27653410061366,1.5936198,3.3786657,7.690532,3
27653412440532,1.4548361,3.3260236,7.7096744,3
27653414819699,1.3208381,3.2542388,7.7240314,3
27653417198813,1.2011969,3.2015967,7.728817,3
27653419577980,1.1437693,3.129812,7.733603,3
27653421957147,1.052842,3.0819557,7.7240314,3
27653424336261,0.9810573,3.07717,7.7001033,3
27653426715428,0.94277215,3.0293136,7.6713896,3
27653429094595,0.91405827,3.0005996,7.623533,3
27653431473709,0.89013004,2.9718857,7.580462,3
27653433852876,0.8997013,2.9671001,7.542177,3
27653436231991,0.89013004,2.9623144,7.4656067,3
27653438611105,0.91405827,2.9240294,7.365108,3
27653440990324,0.90448695,2.8953154,7.2693954,3
27653443369438,0.8997013,2.8426733,7.149754,3
27653445748605,0.9092726,2.7230322,6.977471,3
27653448127772,0.91405827,2.6416762,6.7764735,3
27653450506886,0.91884387,2.6608188,6.6185474,3
27653452886053,0.93320084,2.7182465,6.5084777,3
27653455265220,0.9284152,2.8187451,6.45105,3
27653457644334,0.9379865,2.952743,6.3792653,3
27653460023501,0.9092726,3.0675986,6.2883377,3
27653462402616,0.85184485,3.211168,6.206982,3
27653464781782,0.79920274,3.3547373,6.111269,3
27653467160949,0.7322037,3.4743786,6.020342,3
27653469540063,0.66999036,3.574877,5.919843,3
27653471919230,0.6269195,3.6849468,5.814559,3
27653474298345,0.5312066,3.7615173,5.7140603,3
27653476677511,0.41156548,3.818945,5.6374903,3
27653479056678,0.31106696,3.8811584,5.556134,3
27653481435793,0.22013968,3.9194436,5.503492,3
27653483814959,0.12921242,3.9098723,5.4556355,3
27653486194126,0.05742774,3.8811584,5.4173503,3
27653488573241,0.009571291,3.871587,5.4125648,3
27653490952407,-0.11006984,3.8380876,5.532206,3
27653493331574,-0.4833502,3.723232,6.111269,3
27653495710688,-0.67477596,3.5653057,6.7669024,3
27653498089855,-0.6269195,3.4121652,7.192825,3
27653500468970,-0.43070808,3.2303107,7.393822,3
27653502848136,-0.076570325,3.0580273,7.542177,3
27653505227303,0.38763726,2.9048867,7.6713896,3
27653507606418,0.80877405,2.7421749,7.795816,3
27653509985584,1.119841,2.5938199,7.9106717,3
27653512364751,1.3351951,2.4358935,8.035098,3
27653514743866,1.4883357,2.2971098,8.226524,3
27653517123032,1.6366907,2.143969,8.451449,3
27653519502147,1.8041883,2.0051854,8.681161,3
27653521881313,2.0003998,1.8999012,8.867801,3
27653524260480,2.268396,1.8041883,9.006584,3
27653526639595,2.5316064,1.727618,9.097511,3
27653529018761,2.78046,1.6701902,9.178867,3
27653531397928,2.9718857,1.6558332,9.284152,3
27653533777043,3.2207394,1.6319051,9.4229355,3
27653536156209,3.5796626,1.5984055,9.5665045,3
27653538535324,3.8141594,1.5696917,9.710074,3
27653540914491,3.8333018,1.5218352,9.896714,3
27653543293657,3.641876,1.4739788,10.078569,3
27653545672772,3.3690944,1.4500505,10.212567,3
27653548051938,3.0819557,1.430908,10.322637,3
27653550431105,2.8235307,1.4404793,10.380065,3
27653552810220,2.5698915,1.4596218,10.437492,3
27653555189386,2.3018954,1.4548361,10.470992,3
27653557568553,2.0434706,1.4691931,10.480563,3
27653559947668,1.7659031,1.5266209,10.475778,3
27653562326834,1.5026926,1.5840486,10.485349,3
27653564705949,1.2107682,1.6175481,10.475778,3
27653567085116,0.94277215,1.6414764,10.480563,3
27653569464282,0.70348984,1.6606189,10.41835,3
27653571843397,0.4977071,1.6749759,10.30828,3
27653574222563,0.33499518,1.6701902,10.164711,3
27653576601730,0.22492532,1.6606189,10.035499,3
27653578980845,0.18185452,1.6701902,9.891929,3
27653581360011,0.2727818,1.7706888,9.767502,3
27653583739126,0.5407779,1.995614,9.820144,3
27653586118293,0.7752745,2.1248264,9.882358,3
27653588497459,0.8422736,2.091327,9.690931,3
27653590876574,0.8853444,2.009971,9.442079,3
27653593255741,0.89013004,1.9046868,9.255438,3
27653595634907,0.8709874,1.8281165,9.217153,3
27653598014022,0.86141616,1.7611175,9.265009,3
27653600393188,0.86141616,1.7036897,9.355937,3
27653602772303,0.8853444,1.6845472,9.485149,3
27653605151470,1.0049855,1.6845472,9.628718,3
27653607530636,1.1581261,1.6558332,9.844072,3
27653609909751,1.3447664,1.6654046,10.064212,3
27653612288918,1.5218352,1.6606189,10.279566,3
27653614668084,1.727618,1.6414764,10.499705,3
27653617047199,1.9334008,1.6319051,10.734202,3
27653619426366,2.1918256,1.579263,11.006984,3
27653621805428,2.4311078,1.4548361,11.356337,3
27653624184647,2.6703901,1.3112668,11.724831,3
27653626563813,2.9910283,1.2011969,11.973684,3
27653628942928,3.2015967,1.1964114,12.045469,3
27653631322095,3.4887354,1.2299109,11.921042,3
27653633701261,3.7184465,1.3256238,11.801401,3
27653636080376,3.9481573,1.5409778,11.734403,3
27653638459543,4.1635113,1.7324036,11.772687,3
27653640838709,4.421936,1.8233309,11.863615,3
27653643217824,4.5798626,1.8041883,11.968899,3
27653645596991,4.618148,1.7084754,12.059826,3
27653647976105,4.5224347,1.5314065,12.131611,3
27653650355272,4.436293,1.3112668,12.189038,3
27653652734438,4.3501515,1.0959128,12.174682,3
27653655113553,4.2975097,0.8757731,12.102897,3
27653657492720,4.2448673,0.6795616,11.944971,3
27653659871886,4.182654,0.56470615,11.710474,3
27653662251001,4.063013,0.5168497,11.432906,3
27653664630168,4.024728,0.52163535,11.12184,3
27653667009282,3.9768713,0.56470615,10.872986,3
27653669388449,3.885944,0.6125626,10.662417,3
27653671767616,3.790231,0.60777694,10.490134,3
27653674146730,3.6610186,0.60777694,10.332209,3
27653676525897,3.5413775,0.6125626,10.188639,3
27653678905063,3.4169507,0.64606214,10.04507,3
27653681284178,3.2973096,0.67477596,9.853643,3
27653683663345,3.1776686,0.74177504,9.585648,3
27653686042459,2.9336007,0.93320084,9.188439,3
27653688421626,2.7469604,1.1916257,8.810373,3
27653690800793,2.7708886,1.3926228,8.532805,3
27653693179907,2.9240294,1.5170496,8.403593,3
27653695559074,3.1633115,1.5840486,8.346166,3
27653697938241,3.4025939,1.6414764,8.23131,3
27653700317355,3.5892339,1.6845472,8.063812,3
27653702696522,3.6753755,1.6893328,7.838887,3
27653705075636,3.641876,1.7324036,7.618747,3
27653707454803,3.546163,1.7802601,7.4943204,3
27653709833970,3.3212378,1.8233309,7.4847493,3
27653712213084,3.0723844,1.875973,7.5900335,3
27653714592199,2.8091738,1.9621146,7.719246,3
27653716971366,2.603391,2.0578275,7.8484583,3
27653719350532,2.440679,2.172683,7.982456,3
27653721729699,2.3545375,2.2779672,8.116454,3
27653724108866,2.321038,2.349752,8.288737,3
27653726487980,2.3018954,2.4119651,8.475378,3
27653728867147,2.239682,2.455036,8.647661,3
27653731246261,2.1822543,2.4358935,8.810373,3
27653733625428,2.0578275,2.4119651,8.925228,3
27653736004595,1.9334008,2.349752,9.044869,3
27653738383709,1.7994026,2.3162522,9.08794,3
27653740762876,1.713261,2.306681,9.126225,3
27653743142043,1.6797615,2.3449662,9.140582,3
27653745521157,1.6606189,2.3688943,9.140582,3
27653747900324,1.6462619,2.3976083,9.135797,3
27653750279438,1.5936198,2.440679,9.131011,3
27653752658605,1.5361922,2.4837499,9.102298,3
27653755037772,1.4787644,2.565106,9.064013,3
27653757416886,1.3782659,2.656033,8.977871,3
27653759796053,1.2299109,2.7565317,8.85823,3
27653762175168,1.0671989,2.8378878,8.733803,3
27653764554334,0.91405827,2.9096723,8.595019,3
27653766933501,0.74177504,2.9671001,8.4705925,3
27653769312616,0.57906306,3.034099,8.336594,3
27653771691782,0.38763726,3.0580273,8.260024,3
27653774070949,0.24885355,3.0580273,8.193025,3
27653776450063,0.124426775,3.0915267,8.135597,3
27653778829230,0.023928227,3.0819557,8.154739,3
27653781208345,-0.05742774,3.062813,8.193025,3
27653783587511,-0.1052842,3.0675986,8.240881,3
27653785966678,-0.124426775,3.0532417,8.30788,3
27653788345793,-0.086141616,3.0388846,8.374879,3
27653790724959,0.0,3.0293136,8.456235,3
27653793104126,0.09571291,2.9862428,8.537591,3
27653795483241,0.22492532,2.9383862,8.662018,3
27653797862407,0.3684947,2.885744,8.762517,3
27653800241522,0.5168497,2.8474588,8.853444,3
27653802620688,0.63170516,2.7852457,8.958728,3
27653804999855,0.7369894,2.7086751,9.025727,3
27653807378970,0.8662018,2.617748,9.073584,3
27653809758136,0.9523434,2.5172493,9.102298,3
27653812137303,1.052842,2.416751,9.116654,3
27653814516418,1.1389836,2.3114667,9.12144,3
27653816895584,1.2203395,2.2061825,9.131011,3
27653819274699,1.2921243,2.115255,9.145369,3
27653821653866,1.3974084,2.062613,9.202796,3
27653824033032,1.5122639,1.9908284,9.255438,3
27653826412147,1.6462619,1.9525433,9.341579,3
27653828791313,1.7946169,1.9238294,9.375079,3
27653831170480,1.9477576,1.8807586,9.4229355,3
27653833549595,2.091327,1.8089739,9.456435,3
27653835928761,2.2348964,1.7228323,9.437292,3
27653838307928,2.306681,1.6606189,9.399008,3
27653840687043,2.4119651,1.6079768,9.360723,3
27653843066157,2.4119651,1.4500505,9.265009,3
27653845445324,2.3162522,1.6510476,9.265009,3
27653847824491,2.5938199,1.2634103,9.188439,3
27653850203657,2.1966112,1.5026926,9.241081,3
27653852582772,2.37368,1.4452649,9.298509,3
27653854961938,2.3353949,1.4356936,9.389436,3
27653857341053,2.1918256,1.4883357,9.52822,3
27653859720220,2.2205393,1.4931214,9.662218,3
27653862099334,2.143969,1.579263,9.796216,3
27653864478501,2.0721843,1.5888343,9.882358,3
27653866857668,1.9860427,1.6271194,9.992428,3
27653869236834,1.8951155,1.7659031,10.116854,3
27653871615949,1.7946169,1.8185452,10.212567,3
27653873995116,1.6558332,1.8903298,10.346565,3
27653876374230,1.5074782,1.9716859,10.49492,3
27653878753397,1.3782659,2.1008983,10.710274,3
27653881132563,1.3351951,2.4646072,11.38505,3
27653883511678,1.1629118,2.6225336,11.700903,3
27653885890845,0.8997013,2.6081767,11.71526,3
27653888270011,0.6412765,2.5507488,11.619547,3
27653890649126,0.4211368,2.4741786,11.519048,3
27653893028293,0.30149564,2.4741786,11.356337,3
27653895407407,0.2440679,2.5268207,11.126625,3
27653897786574,0.26799613,2.5746772,10.882557,3
27653900165741,0.36370903,2.7086751,10.643275,3
27653902544855,0.4546363,2.8426733,10.432707,3
27653904924022,0.4833502,2.885744,10.279566,3
27653907303136,0.42592242,2.9048867,10.217353,3
27653909682303,0.31585258,2.8809586,10.174282,3
27653912061470,0.148355,2.8570302,10.140782,3
27653914440584,-0.033499517,2.804388,10.102497,3
27653916819751,-0.2009971,2.7756743,10.049855,3
27653919198918,-0.33499518,2.751746,9.968499,3
27653921578032,-0.4833502,2.6991038,9.920643,3
27653923957199,-0.60777694,2.6799614,9.868001,3
27653926336366,-0.6939186,2.6512475,9.858429,3
27653928715480,-0.7369894,2.6225336,9.877572,3
27653931094647,-0.7800602,2.589034,9.868001,3
27653933473761,-0.7800602,2.5316064,9.9015,3
27653935852928,-0.7322037,2.5411777,9.944571,3
27653938232095,-0.6843473,2.5172493,9.968499,3
27653940611209,-0.63170516,2.5124638,9.963714,3
27653942990324,-0.59342,2.469393,9.906285,3
27653945369491,-0.5455636,2.3688943,9.834501,3
27653947748657,-0.5168497,2.292324,9.753145,3
27653950127824,-0.4881358,2.2157538,9.652647,3
27653952506938,-0.44985065,2.0721843,9.556933,3
27653954886105,-0.39720857,1.9334008,9.49472,3
27653957265272,-0.31585258,1.8568304,9.475577,3
27653959644386,-0.2440679,1.7706888,9.489935,3
27653962023553,-0.16749759,1.7228323,9.580862,3
27653964402668,-0.05742774,1.698904,9.743574,3
27653966781834,0.023928227,1.6701902,9.944571,3
27653969161001,0.1052842,1.6701902,10.145568,3
27653971540116,0.2105684,1.6845472,10.336994,3
27653973919282,0.2727818,1.698904,10.514063,3
27653976298449,0.35413775,1.7084754,10.667203,3
27653978677563,0.41635114,1.713261,10.786844,3
27653981056730,0.4977071,1.6845472,10.8969145,3
27653983435845,0.55513483,1.6701902,10.973485,3
27653985815011,0.5886344,1.6414764,11.050055,3
27653988194178,0.59342,1.5936198,11.097912,3
27653990573293,0.5838487,1.5457634,11.126625,3
27653992952459,0.60777694,1.5074782,11.145768,3
27653995331626,0.5982057,1.4691931,11.16491,3
27653997710741,0.6125626,1.4691931,11.179267,3
27654000089907,0.5982057,1.4069797,11.155339,3
27654002469022,0.56470615,1.3543376,11.112268,3
27654004848188,0.5407779,1.3112668,11.069198,3
27654007227355,0.47856453,1.2777673,11.002198,3
27654009606470,0.4019942,1.2107682,10.8969145,3
27654011985636,0.3062813,1.1724831,10.801202,3
27654014364803,0.23449662,1.1246266,10.671989,3
27654016743918,0.148355,1.0863415,10.542776,3
27654019123084,0.11964113,1.0624132,10.427921,3
27654021502199,0.09571291,1.038485,10.351351,3
27654023881366,0.047856454,1.038485,10.260424,3
27654026260532,0.009571291,1.052842,10.164711,3
27654028639647,0.0,1.0336994,10.102497,3
27654031018813,0.0,1.052842,10.068997,3
27654033397928,0.047856454,1.105484,10.054641,3
27654035777095,0.11964113,1.119841,10.073783,3
27654038156261,0.21535404,1.134198,10.112068,3
27654040535376,0.31585258,1.1581261,10.150353,3
27654042914543,0.42592242,1.1629118,10.202995,3
27654045293709,0.526421,1.1916257,10.265209,3
27654047672772,0.6652047,1.1916257,10.30828,3
27654050051991,0.7896315,1.2155539,10.360922,3
27654052431105,0.91884387,1.2155539,10.41835,3
27654054810272,0.9810573,1.2011969,10.470992,3
27654057189438,1.0671989,1.2059826,10.523634,3
27654059568553,1.1724831,1.2394822,10.576276,3
27654061947720,1.2394822,1.2586247,10.628919,3
27654064326886,1.3160524,1.2729816,10.662417,3
27654066706001,1.3686945,1.3016955,10.657632,3
27654069085168,1.4117653,1.3351951,10.63849,3
27654071464282,1.4500505,1.3639089,10.609776,3
27654073843449,1.4596218,1.3878372,10.57149,3
27654076222616,1.4739788,1.4356936,10.518848,3
27654078601730,1.4883357,1.4883357,10.451849,3
27654080980897,1.4691931,1.4979069,10.365707,3
27654083360063,1.4452649,1.5601203,10.260424,3
27654085739178,1.4356936,1.579263,10.188639,3
27654088118345,1.4261223,1.6414764,10.107283,3
27654090497459,1.430908,1.698904,10.049855,3
27654092876626,1.4452649,1.7754744,9.987641,3
27654095255793,1.4404793,1.7994026,9.911072,3
27654097634907,1.4356936,1.8376877,9.848858,3
27654100014074,1.4596218,1.8903298,9.743574,3
27654102393188,1.4691931,1.9286151,9.633504,3
27654104772303,1.5026926,1.9525433,9.533006,3
27654107151522,1.5457634,1.995614,9.432507,3
27654109530636,1.6271194,2.0386848,9.332008,3
27654111909803,1.727618,2.0195422,9.250652,3
27654114288970,1.8041883,2.0291135,9.178867,3
27654116668084,1.9094725,2.053042,9.111869,3
27654119047251,1.9812572,2.0338993,9.040084,3
27654121426418,2.0721843,2.0147567,8.992228,3
27654123805532,2.1535404,1.9716859,8.977871,3
27654126184699,2.2492533,1.9381863,8.992228,3
27654128563813,2.3449662,1.8903298,9.001799,3
27654130942980,2.455036,1.8233309,9.01137,3
27654133322147,2.5268207,1.7659031,9.044869,3
27654135701261,2.5938199,1.7324036,9.064013,3
27654138080428,2.6512475,1.7036897,9.083155,3
27654140459543,2.7038896,1.6749759,9.150154,3
27654142838709,2.7613173,1.6462619,9.2075815,3
27654145217876,2.804388,1.6462619,9.265009,3
27654147596991,2.8139594,1.6510476,9.336794,3
27654149976157,2.8187451,1.6366907,9.408579,3
27654152355272,2.7996025,1.6414764,9.466006,3
27654154734438,2.804388,1.6701902,9.547362,3
27654157113605,2.8235307,1.6845472,9.633504,3
27654159492720,2.8139594,1.7228323,9.690931,3
27654161871886,2.8091738,1.7467605,9.753145,3
27654164251053,2.8235307,1.7802601,9.829716,3
27654166630168,2.8283165,1.7946169,9.882358,3
27654169009334,2.8187451,1.8424734,9.934999,3
27654171388501,2.8235307,1.8664017,9.968499,3
27654173767616,2.7996025,1.9094725,10.006784,3
27654176146782,2.751746,1.9142581,10.04507,3
27654178525897,2.7086751,1.9764715,10.035499,3
27654180905063,2.656033,1.9908284,10.054641,3
27654183284230,2.589034,2.0338993,10.073783,3
27654185663345,2.5124638,2.0482562,10.064212,3
27654188042511,2.4598217,2.053042,10.059426,3
27654190421626,2.4071796,2.0386848,10.040284,3
27654192800793,2.3928227,2.0147567,10.025927,3
27654195179959,2.3162522,2.0003998,9.997213,3
27654197559074,2.2588246,1.9812572,9.982856,3
27654199938241,2.1774685,1.9716859,9.939785,3
27654202317407,2.1104696,1.9525433,9.887143,3
27654204696522,2.0147567,1.9094725,9.820144,3
27654207075688,1.8711873,1.8568304,9.753145,3
27654209454803,1.7228323,1.8329022,9.662218,3
27654211833970,1.5888343,1.7850457,9.5760765,3
27654214213136,1.4596218,1.7898313,9.489935,3
27654216592251,1.3160524,1.7898313,9.370294,3
27654218971418,1.1820544,1.7994026,9.260223,3
27654221350584,1.038485,1.8137596,9.150154,3
27654223729699,0.9379865,1.8281165,9.040084,3
27654226108866,0.8422736,1.8281165,8.925228,3
27654228487980,0.7848458,1.847259,8.82473,3
27654230867147,0.7465607,1.861616,8.729017,3
27654233246313,0.6795616,1.9094725,8.647661,3
27654235625428,0.66041905,1.9286151,8.556734,3
27654238004595,0.61734825,1.9381863,8.499306,3
27654240383709,0.5694918,1.9716859,8.422736,3
27654242762876,0.5072784,2.0003998,8.331808,3
27654245142043,0.47856453,2.009971,8.240881,3
27654247521157,0.46899325,2.0147567,8.154739,3
27654249900324,0.42592242,2.062613,8.068598,3
27654252279438,0.3684947,2.115255,7.9920278,3
27654254658605,0.34456646,2.1343977,7.920243,3
27654257037772,0.29671,2.1678972,7.853244,3
27654259416886,0.2727818,2.2205393,7.795816,3
27654261796053,0.21535404,2.2731814,7.733603,3
27654264175220,0.17228323,2.2971098,7.6809607,3
27654266554334,0.148355,2.3545375,7.6331043,3
27654268933501,0.11006984,2.416751,7.628319,3
27654271312616,0.07178468,2.4933212,7.6331043,3
27654273691782,0.014356935,2.5459633,7.63789,3
27654276070949,-0.033499517,2.5794628,7.628319,3
27654278450063,-0.07178468,2.617748,7.652247,3
27654280829230,-0.124426775,2.656033,7.661818,3
27654283208345,-0.17228323,2.7182465,7.719246,3
27654285587511,-0.19142582,2.7421749,7.776674,3
27654287966678,-0.22013968,2.7708886,7.8436728,3
27654290345793,-0.24885355,2.7900312,7.920243,3
27654292724959,-0.27756742,2.7996025,7.9968133,3
27654295104126,-0.29671,2.7996025,8.068598,3
27654297483241,-0.32542387,2.8283165,8.145168,3
27654299862407,-0.32542387,2.8235307,8.221739,3
27654302241522,-0.33499518,2.8283165,8.30788,3
27654304620688,-0.31106696,2.833102,8.374879,3
27654306999855,-0.33499518,2.8474588,8.437093,3
27654309378970,-0.33020952,2.8378878,8.480164,3
27654311758136,-0.36370903,2.8522446,8.508878,3
27654314137303,-0.43070808,2.885744,8.518449,3
27654316516418,-0.49292147,2.8666015,8.523234,3
27654318895584,-0.53599226,2.8905299,8.504091,3
27654321274699,-0.6029913,2.8953154,8.475378,3
27654323653866,-0.63170516,2.9048867,8.427522,3
27654326033032,-0.67477596,2.885744,8.394022,3
27654328412147,-0.7322037,2.9048867,8.394022,3
27654330791313,-0.7896315,2.9479575,8.370093,3
27654333170428,-0.8039884,3.0053852,8.355737,3
27654335549595,-0.8470592,3.0149565,8.360522,3
27654337928761,-0.8662018,3.034099,8.336594,3
27654340307876,-0.8997013,3.0675986,8.303095,3
27654342687043,-0.91405827,3.062813,8.26481,3
27654345066209,-0.9379865,3.0580273,8.226524,3
27654347445324,-0.94277215,3.0963125,8.154739,3
27654349824491,-0.94277215,3.07717,8.054241,3
27654352203605,-0.93320084,3.07717,7.9680996,3
27654354582772,-0.94755775,3.07717,7.853244,3
27654356961938,-0.9236295,3.0819557,7.752745,3
27654359341053,-0.8853444,3.0915267,7.6331043,3
27654361720220,-0.83748794,3.0819557,7.5326056,3
27654364099386,-0.7178468,3.1202407,7.432107,3
27654366478501,-0.61734825,3.1633115,7.3698936,3
27654368857668,-0.46899325,3.2303107,7.2693954,3
27654371236782,-0.30149564,3.2733815,7.1688967,3
27654373615949,-0.09092726,3.4217365,7.23111,3
27654375995116,0.09571291,3.5318062,7.30768,3
27654378374230,0.23449662,3.6275191,7.2502527,3
27654380753397,0.3684947,3.6466618,7.1688967,3
27654383132511,0.47377887,3.6897326,7.097112,3
27654385511678,0.5838487,3.7136607,7.0205417,3
27654387890845,0.66041905,3.7136607,6.9296145,3
27654390269959,0.75613195,3.7328033,6.829116,3
27654392649126,0.8422736,3.7423747,6.762117,3
27654395028241,0.8853444,3.7423747,6.680761,3
27654397407407,0.9284152,3.723232,6.63769,3
27654399786574,0.9906286,3.7615173,6.570691,3
27654402165688,1.0432707,3.7806597,6.518049,3
27654404544855,1.1102697,3.7950168,6.489335,3
27654406924022,1.1485549,3.8333018,6.465407,3
27654409303136,1.1629118,3.871587,6.4701924,3
27654411682303,1.1916257,3.8811584,6.474978,3
27654414061418,1.1964114,3.8811584,6.513263,3
27654416440584,1.1676974,3.9146578,6.5659056,3
27654418819751,1.1581261,3.9290147,6.6185474,3
27654421198866,1.1389836,3.9290147,6.6855464,3
27654423578032,1.1150553,3.938586,6.7573314,3
27654425957199,1.0624132,3.9194436,6.8051877,3
27654428336313,1.0336994,3.8955152,6.896115,3
27654430715480,0.9810573,3.8955152,6.948757,3
27654433094647,0.9619147,3.871587,7.0061846,3
27654435473761,0.91405827,3.818945,7.0875406,3
27654437852928,0.8422736,3.7806597,7.183254,3
27654440232043,0.79920274,3.7471602,7.259824,3
27654442611209,0.74177504,3.67059,7.355537,3
27654444990324,0.6795616,3.6323047,7.456035,3
27654447369491,0.6029913,3.6131623,7.570891,3
27654449748657,0.55513483,3.5844483,7.6713896,3
27654452127772,0.4881358,3.5700915,7.8197446,3
27654454506938,0.37328035,3.5940197,7.982456,3
27654456886105,0.24885355,3.5844483,8.135597,3
27654459265220,0.16749759,3.574877,8.26481,3
27654461644386,0.11964113,3.5318062,8.408379,3
27654464023501,0.07178468,3.4791641,8.537591,3
27654466402668,0.019142581,3.4504502,8.666803,3
27654468781834,-0.009571291,3.397808,8.762517,3
27654471160949,-0.014356935,3.3547373,8.867801,3
27654473540116,-0.043070808,3.3164523,8.977871,3
27654475919230,-0.0526421,3.278167,9.092726,3
27654478298397,-0.05742774,3.2590244,9.221938,3
27654480677563,-0.062213387,3.2303107,9.312865,3
27654483056678,-0.08135597,3.2159536,9.336794,3
27654485435845,-0.047856454,3.211168,9.341579,3
27654487814959,-0.033499517,3.182454,9.360723,3
27654490194126,-0.02871387,3.2207394,9.370294,3
27654492573293,-0.038285162,3.2015967,9.370294,3
27654494952407,-0.1052842,3.158526,9.284152,3
27654497331574,-0.11964113,3.1776686,9.312865,3
27654499710741,-0.14356937,3.249453,9.389436,3
27654502089855,-0.16271193,3.345166,9.456435,3
27654504469022,-0.2009971,3.4313076,9.518648,3
27654506848136,-0.2632105,3.4983068,9.542577,3
27654509227303,-0.32063824,3.546163,9.547362,3
27654511606470,-0.37328035,3.5796626,9.547362,3
27654513985584,-0.40677986,3.5892339,9.509077,3
27654516364751,-0.4019942,3.6466618,9.461221,3
27654518743866,-0.4019942,3.67059,9.408579,3
27654521122928,-0.37806597,3.6849468,9.3511505,3
27654523502199,-0.3397808,3.6897326,9.293723,3
27654525881313,-0.27756742,3.6801612,9.236296,3
27654528260480,-0.19621146,3.6370904,9.178867,3
27654530639647,-0.11006984,3.574877,9.111869,3
27654533018761,0.014356935,3.4743786,9.025727,3
27654535397928,0.11964113,3.359523,8.939586,3
27654537777043,0.21535404,3.225525,8.843872,3
27654540156209,0.33020952,3.0867412,8.733803,3
27654542535376,0.4833502,2.952743,8.657232,3
27654544914491,0.6987042,2.78046,8.628518,3
27654547293657,1.0145568,2.5938199,8.63809,3
27654549672824,1.3686945,2.4311078,8.681161,3
27654552051938,1.7180467,2.239682,8.772088,3
27654554431105,2.07697,2.0673988,8.877372,3
27654556810220,2.3832514,1.8664017,8.977871,3
27654559189386,2.5986054,1.698904,9.006584,3
27654561568553,2.7421749,1.5314065,9.044869,3
27654563947668,2.833102,1.402194,9.083155,3
27654566326834,2.8761728,1.2873386,9.140582,3
27654568705949,2.9240294,1.2203395,9.260223,3
27654571085116,2.9718857,1.2299109,9.49472,3
27654573464282,2.981457,1.3304094,9.796216,3
27654575843345,2.9575288,1.430908,10.064212,3
27654578222563,2.9192436,1.402194,10.269995,3
27654580601730,2.8426733,1.2729816,10.413564,3
27654582980845,2.7708886,1.1389836,10.509277,3
27654585360011,2.6895328,1.0193424,10.633704,3
27654587739126,2.5938199,0.90448695,10.777273,3
27654590118293,2.5028925,0.79441714,10.916057,3
27654592497459,2.4215364,0.6939186,11.050055,3
27654594876574,2.3832514,0.59342,11.174481,3
27654597255741,2.3832514,0.5694918,11.313266,3
27654599634855,2.5124638,0.67477596,11.46162,3
27654602014022,3.0005996,1.0911272,11.624332,3
27654604393188,3.4743786,1.4931214,11.753545,3
27654606772303,3.4983068,1.4739788,11.82533,3
27654609151470,3.3020952,1.1676974,11.810972,3
27654611530636,2.9910283,0.7800602,11.71526,3
27654613909751,2.6751757,0.38763726,11.566905,3
27654616288918,2.3832514,0.0526421,11.361122,3
27654618668032,2.143969,-0.18664017,11.131411,3
27654621047199,1.8951155,-0.3589234,10.968699,3
27654623426366,1.713261,-0.43070808,10.853844,3
27654625805480,1.6462619,-0.41635114,10.810773,3
27654628184647,1.6319051,-0.29192436,10.820344,3
27654630563761,1.6366907,-0.18664017,10.8682,3
27654632942928,1.6271194,-0.076570325,10.968699,3
27654635322095,1.6079768,-0.009571291,11.050055,3
27654637701209,1.5744773,-0.0047856453,11.12184,3
27654640080376,1.4739788,-0.038285162,11.150554,3
27654642459543,1.3782659,-0.047856454,11.179267,3
27654644838657,1.2777673,-0.07178468,11.174481,3
27654647217824,1.1485549,-0.13878371,11.155339,3
27654649596938,1.0336994,-0.16749759,11.150554,3
27654651976105,0.8853444,-0.23449662,11.117054,3
27654654355272,0.7848458,-0.2727818,11.054841,3
27654656734334,0.61734825,-0.35413775,11.006984,3
27654659113553,0.4881358,-0.41635114,10.949556,3
27654661492668,0.37806597,-0.47856453,10.858629,3
27654663871834,0.2727818,-0.56470615,10.79163,3
27654666251001,0.23449662,-0.63170516,10.729417,3
27654668630116,0.2105684,-0.72741807,10.691132,3
27654671009282,0.18185452,-0.7800602,10.628919,3
27654673388397,0.18664017,-0.8757731,10.57149,3
27654675767563,0.22492532,-0.91884387,10.537991,3
27654678146730,0.23928227,-0.98584294,10.470992,3
27654680525845,0.31106696,-1.0671989,10.427921,3
27654682905011,0.38285163,-1.1150553,10.389636,3
27654685284126,0.5024927,-1.1676974,10.360922,3
27654687663293,0.5886344,-1.1964114,10.346565,3
27654690042459,0.6795616,-1.2346965,10.313066,3
27654692421574,0.82313097,-1.2586247,10.289138,3
27654694800741,0.9810573,-1.2729816,10.27478,3
27654697179907,1.134198,-1.2586247,10.269995,3
27654699559022,1.3064811,-1.2634103,10.265209,3
27654701938188,1.4644074,-1.2729816,10.236495,3
27654704317303,1.6223338,-1.2921243,10.202995,3
27654706696470,1.7371893,-1.3208381,10.169497,3
27654709075636,1.8855443,-1.3256238,10.073783,3
27654711454751,2.024328,-1.3351951,10.0163555,3
27654713833918,2.1343977,-1.3734802,9.944571,3
27654716213032,2.254039,-1.4069797,9.853643,3
27654718592199,2.359323,-1.4931214,9.781859,3
27654720971366,2.469393,-1.4931214,9.710074,3
27654723350480,2.5746772,-1.5266209,9.690931,3
27654725729647,2.684747,-1.5888343,9.662218,3
27654728108761,2.751746,-1.6127625,9.695718,3
27654730487928,2.8426733,-1.5984055,9.710074,3
27654732867095,2.928815,-1.6079768,9.767502,3
27654735246209,3.0245278,-1.6127625,9.858429,3
27654737625376,3.1058838,-1.5984055,9.920643,3
27654740004543,3.1680973,-1.6031911,9.987641,3
27654742383657,3.2398818,-1.6031911,10.0881405,3
27654744762824,3.2446675,-1.5601203,10.19821,3
27654747141938,3.2733815,-1.4931214,10.346565,3
27654749521105,3.249453,-1.4213367,10.49492,3
27654751900220,3.2207394,-1.3064811,10.643275,3
27654754279386,3.1633115,-1.2394822,10.815558,3
27654756658553,3.1250265,-1.1724831,10.978271,3
27654759037668,3.0723844,-1.0815558,11.16491,3
27654761416834,3.0293136,-1.0289137,11.3371935,3
27654763796001,3.0149565,-0.9523434,11.52862,3
27654766175116,2.9910283,-0.9092726,11.691332,3
27654768554282,2.9479575,-0.86141616,11.839686,3
27654770933449,2.9240294,-0.8279166,11.992827,3
27654773312563,2.9192436,-0.79920274,12.131611,3
27654775691678,2.8953154,-0.76570326,12.251252,3
27654778070845,2.8666015,-0.7513463,12.356536,3
27654780449959,2.8378878,-0.7609176,12.413964,3
27654782829178,2.7852457,-0.7896315,12.457035,3
27654785208293,2.7756743,-0.8135597,12.471392,3
27654787587459,2.7708886,-0.81834537,12.466606,3
27654789966574,2.766103,-0.8566305,12.452249,3
27654792345741,2.766103,-0.89013004,12.390036,3
27654794724907,2.7421749,-0.971486,12.342179,3
27654797104022,2.7230322,-1.0193424,12.265609,3
27654799483188,2.7182465,-1.0576276,12.165111,3
27654801862303,2.713461,-1.0719845,12.05504,3
27654804241470,2.6895328,-1.1006985,11.968899,3
27654806620636,2.6943183,-1.1102697,11.868401,3
27654808999751,2.656033,-1.0815558,11.801401,3
27654811378918,2.6512475,-1.0432707,11.75833,3
27654813758032,2.6321049,-1.0289137,11.705688,3
27654816137199,2.6273193,-1.0289137,11.68176,3
27654818516366,2.589034,-1.0097711,11.614761,3
27654820895480,2.565106,-0.98584294,11.542976,3
27654823274595,2.4933212,-0.9667004,11.485549,3
27654825653761,2.469393,-1.0001999,11.442478,3
27654828032824,2.4119651,-1.0193424,11.394622,3
27654830412095,2.3353949,-1.038485,11.361122,3
27654832791209,2.2875385,-1.038485,11.351551,3
27654835170376,2.239682,-1.0480564,11.3371935,3
27654837549543,2.2061825,-1.0767702,11.356337,3
27654839928657,2.201397,-1.0863415,11.394622,3
27654842307824,2.1822543,-1.0576276,11.442478,3
27654844686938,2.1631117,-1.0671989,11.523834,3
27654847066105,2.1678972,-1.0576276,11.609976,3
27654849445220,2.1535404,-1.052842,11.667403,3
27654851824386,2.172683,-1.052842,11.729616,3
27654854203553,2.1822543,-1.0767702,11.79183,3
27654856582668,2.210968,-1.0911272,11.844472,3
27654858961834,2.2492533,-1.1102697,11.887543,3
27654861341001,2.2731814,-1.1006985,11.921042,3
27654863720116,2.2779672,-1.0959128,11.940185,3
27654866099282,2.254039,-1.038485,11.954542,3
27654868478397,2.210968,-0.95712906,11.916257,3
27654870857563,2.1535404,-0.9092726,11.882757,3
27654873236678,2.0721843,-0.8853444,11.806187,3
27654875615845,1.9812572,-0.8470592,11.710474,3
27654877995011,1.8951155,-0.7800602,11.600404,3
27654880374126,1.7994026,-0.7513463,11.519048,3
27654882753293,1.6845472,-0.6987042,11.375479,3
27654885132459,1.5696917,-0.66041905,11.1936245,3
27654887511574,1.4500505,-0.60777694,11.021341,3
27654889890741,1.3304094,-0.55034924,10.849058,3
27654892269855,1.1820544,-0.4546363,10.657632,3
27654894649022,1.0049855,-0.3589234,10.466207,3
27654897028188,0.8566305,-0.23449662,10.265209,3
27654899407303,0.67477596,-0.124426775,10.116854,3
27654901786470,0.46899325,-0.033499517,9.97807,3
27654904165636,0.2440679,0.08135597,9.848858,3
27654906544751,0.033499517,0.16749759,9.695718,3
27654908923918,-0.18664017,0.22971097,9.533006,3
27654911303032,-0.4019942,0.27756742,9.365508,3
27654913682199,-0.6364908,0.32063824,9.183653,3
27654916061366,-0.8470592,0.3493521,9.030513,3
27654918440480,-1.0863415,0.41635114,8.920443,3
27654920819647,-1.3208381,0.5072784,8.839087,3
27654923198761,-1.5409778,0.59342,8.796016,3
27654925577928,-1.7324036,0.64606214,8.786445,3
27654927957095,-1.9094725,0.70348984,8.819944,3
27654930336209,-2.0386848,0.75613195,8.85823,3
27654932715376,-2.1918256,0.7848458,8.915657,3
27654935094543,-2.254039,0.79441714,8.944371,3
27654937473657,-2.2875385,0.83748794,9.001799,3
27654939852824,-2.2971098,0.8566305,9.059227,3
27654942231938,-2.268396,0.8757731,9.126225,3
27654944611105,-2.201397,0.8853444,9.212367,3
27654946990220,-2.1104696,0.89491564,9.317652,3
27654949369386,-1.9908284,0.91884387,9.4229355,3
27654951748553,-1.8520447,0.9619147,9.542577,3
27654954127668,-1.6749759,0.98584294,9.667004,3
27654956506834,-1.5218352,1.0049855,9.79143,3
27654958886001,-1.3782659,1.0289137,9.877572,3
27654961265116,-1.2203395,1.0767702,9.939785,3
27654963644282,-1.1006985,1.1246266,10.025927,3
27654966023449,-0.9762716,1.18684,10.116854,3
27654968402563,-0.82313097,1.2394822,10.202995,3
27654970781730,-0.6987042,1.2969099,10.284351,3
27654973160845,-0.5599205,1.3543376,10.365707,3
27654975540011,-0.4546363,1.3830515,10.427921,3
27654977919126,-0.33499518,1.4213367,10.485349,3
27654980298293,-0.21535404,1.4787644,10.533205,3
27654982677459,-0.14356937,1.4979069,10.566705,3
27654985056574,-0.08135597,1.5218352,10.585847,3
27654987435741,-0.014356935,1.5409778,10.585847,3
27654989814855,0.043070808,1.5409778,10.566705,3
27654992194022,0.076570325,1.564906,10.5284195,3
27654994573188,0.08135597,1.5744773,10.447063,3
27654996952303,0.076570325,1.564906,10.356136,3
27654999331470,0.07178468,1.5888343,10.284351,3
27655001710636,0.09571291,1.6079768,10.188639,3
27655004089751,0.11006984,1.6271194,10.083355,3
27655006468918,0.11006984,1.6462619,9.968499,3
27655008848032,0.124426775,1.6797615,9.853643,3
27655011227199,0.124426775,1.7371893,9.738789,3
27655013606366,0.11485548,1.7659031,9.595219,3
27655015985480,0.1052842,1.7563318,9.470792,3
27655018364647,0.1052842,1.7754744,9.336794,3
27655020743761,0.1052842,1.8185452,9.217153,3
27655023122928,0.09571291,1.8329022,9.097511,3
27655025502095,0.05742774,1.847259,8.987442,3
27655027881209,0.014356935,1.8664017,8.867801,3
27655030260376,-0.02871387,1.8951155,8.776874,3
27655032639491,-0.07178468,1.9334008,8.685946,3
27655035018657,-0.07178468,1.9477576,8.595019,3
27655037397824,-0.086141616,1.9669002,8.532805,3
27655039776938,-0.13399807,2.009971,8.484949,3
27655042156105,-0.18185452,2.0338993,8.441878,3
27655044535220,-0.24885355,2.0291135,8.441878,3
27655046914334,-0.29192436,2.0386848,8.456235,3
27655049293553,-0.33499518,2.0482562,8.456235,3
27655051672668,-0.37328035,2.0434706,8.475378,3
27655054051834,-0.3684947,2.0195422,8.508878,3
27655056430949,-0.37806597,1.9764715,8.5423765,3
27655058810116,-0.3493521,1.9621146,8.657232,3
27655061189282,-0.3397808,1.9716859,8.843872,3
27655063568397,-0.3589234,1.9812572,9.044869,3
27655065947563,-0.4019942,1.9812572,9.274581,3
27655068326730,-0.41156548,1.9669002,9.456435,3
27655070705845,-0.4211368,1.9238294,9.5760765,3
27655073085011,-0.41156548,1.8520447,9.5665045,3
27655075464126,-0.33020952,1.7898313,9.480363,3
27655077843293,-0.22013968,1.7371893,9.3511505,3
27655080222459,-0.05742774,1.6845472,9.236296,3
27655082601574,0.11485548,1.6558332,9.145369,3
27655084980741,0.25842485,1.6319051,9.078369,3
27655087359855,0.4019942,1.6223338,9.073584,3
27655089739022,0.51206404,1.6271194,9.064013,3
27655092118188,0.5599205,1.6510476,9.059227,3
27655094497303,0.5838487,1.6414764,9.059227,3
27655096876470,0.57906306,1.6031911,9.083155,3
27655099255584,0.56470615,1.550549,9.08794,3
27655101634751,0.5455636,1.5074782,9.102298,3
27655104013918,0.5599205,1.4739788,9.073584,3
27655106393032,0.5886344,1.4644074,9.049655,3
27655108772199,0.61734825,1.4500505,9.025727,3
27655111151313,0.6939186,1.4644074,8.992228,3
27655113530480,0.7896315,1.5026926,8.977871,3
27655115909647,0.8757731,1.550549,8.977871,3
27655118288761,0.94277215,1.5936198,8.987442,3
27655120667928,1.0001999,1.6319051,8.973084,3
27655123047095,1.0624132,1.6797615,8.958728,3
27655125426209,1.0911272,1.713261,8.944371,3
27655127805376,1.134198,1.7228323,8.925228,3
27655130184491,1.1485549,1.7371893,8.891729,3
27655132563657,1.1533405,1.7563318,8.863015,3
27655134942824,1.1964114,1.7754744,8.805588,3
27655137321938,1.1676974,1.8137596,8.786445,3
27655139701105,1.1294123,1.861616,8.79123,3
27655142080220,1.105484,1.9334008,8.786445,3
27655144459386,1.0863415,1.9860427,8.776874,3
27655146838553,1.0624132,2.0195422,8.815159,3
27655149217668,1.0145568,2.0482562,8.906086,3
27655151596834,0.9954142,2.0865414,9.001799,3
27655153975949,0.9762716,2.105684,9.12144,3
27655156355116,0.91884387,2.1343977,9.245867,3
27655158734230,0.82313097,2.143969,9.38465,3
27655161113397,0.6891329,2.2061825,9.480363,3
27655163492563,0.55513483,2.239682,9.513863,3
27655165871678,0.41635114,2.2492533,9.533006,3
27655168250793,0.29671,2.2492533,9.533006,3
27655170630011,0.19621146,2.2348964,9.52822,3
27655173009126,0.09571291,2.2301106,9.49472,3
27655175388293,-0.014356935,2.2348964,9.446864,3
27655177767407,-0.086141616,2.2348964,9.413364,3
27655180146574,-0.16749759,2.2348964,9.3511505,3
27655182525741,-0.22013968,2.268396,9.303294,3
27655184904855,-0.23449662,2.2971098,9.212367,3
27655187284022,-0.24885355,2.321038,9.131011,3
27655189663136,-0.21535404,2.292324,9.078369,3
27655192042303,-0.15314065,2.2301106,9.006584,3
27655194421470,-0.09571291,2.105684,8.987442,3
27655196800584,0.019142581,2.009971,8.925228,3
27655199179751,0.16749759,1.9621146,8.829515,3
27655201558866,0.32063824,2.0003998,8.700303,3
27655203938032,0.5024927,2.0865414,8.537591,3
27655206317199,0.6891329,2.2061825,8.403593,3
27655208696313,0.8327023,2.3641088,8.283952,3
27655211075480,0.95712906,2.5172493,8.178668,3
27655213454595,1.052842,2.656033,8.116454,3
27655215833761,1.1150553,2.6943183,8.092526,3
27655218212928,1.2107682,2.6943183,8.059027,3
27655220592043,1.2921243,2.684747,8.039884,3
27655222971209,1.402194,2.6656044,8.049456,3
27655225350376,1.5074782,2.5986054,8.092526,3
27655227729491,1.6654046,2.5316064,8.154739,3
27655230108657,1.8089739,2.5028925,8.216953,3
27655232487772,1.9621146,2.5124638,8.30788,3
27655234866938,2.0482562,2.5220351,8.41795,3
27655237246105,2.1008983,2.536392,8.504091,3
27655239625220,2.1343977,2.5842485,8.580662,3
27655242004386,2.143969,2.6273193,8.580662,3
27655244383501,2.115255,2.6703901,8.595019,3
27655246762668,2.0817556,2.7038896,8.590233,3
27655249141834,2.07697,2.7182465,8.5423765,3
27655251520949,2.053042,2.7278178,8.49452,3
27655253900116,2.0147567,2.7326035,8.451449,3
27655256279230,1.9716859,2.7469604,8.422736,3
27655258658397,1.9190438,2.7708886,8.413164,3
27655261037563,1.875973,2.7708886,8.389236,3
27655263416678,1.8281165,2.7996025,8.379665,3
27655265795845,1.7850457,2.8522446,8.394022,3
27655268174959,1.7084754,2.9192436,8.394022,3
27655270554126,1.6127625,2.9766715,8.389236,3
27655272933293,1.5122639,3.0245278,8.374879,3
27655275312407,1.4261223,3.07717,8.360522,3
27655277691574,1.3208381,3.1489546,8.327023,3
27655280070688,1.2251252,3.211168,8.312666,3
27655282449855,1.134198,3.2350962,8.312666,3
27655284829022,1.0576276,3.2685957,8.312666,3
27655287208136,0.9954142,3.3164523,8.322237,3
27655289587303,0.9284152,3.3547373,8.346166,3
27655291966418,0.8709874,3.3834512,8.374879,3
27655294345532,0.8039884,3.397808,8.403593,3
27655296724751,0.74177504,3.4217365,8.403593,3
27655299103866,0.71306115,3.4600215,8.370093,3
27655301483032,0.6556334,3.4887354,8.379665,3
27655303862147,0.6029913,3.522235,8.350951,3
27655306241261,0.55034924,3.507878,8.355737,3
27655308620428,0.5168497,3.5174494,8.3174515,3
27655310999595,0.4977071,3.5030923,8.312666,3
27655313378761,0.4881358,3.4648073,8.346166,3
27655315757876,0.4977071,3.4648073,8.370093,3
27655318137043,0.52163535,3.4504502,8.427522,3
27655320516209,0.5455636,3.4456646,8.504091,3
27655322895324,0.55034924,3.455236,8.618947,3
27655325274491,0.52163535,3.4743786,8.762517,3
27655327653605,0.526421,3.493521,8.920443,3
27655330032772,0.5024927,3.5126636,9.078369,3
27655332411938,0.47856453,3.522235,9.183653,3
27655334791053,0.47856453,3.4791641,9.288938,3
27655337170220,0.49292147,3.4504502,9.38465,3
27655339549386,0.5168497,3.4217365,9.442079,3
27655341928501,0.5312066,3.3882368,9.49472,3
27655344307668,0.55034924,3.3547373,9.52822,3
27655346686782,0.55513483,3.3164523,9.5665045,3
27655349065949,0.5982057,3.2685957,9.633504,3
27655351445063,0.65084773,3.211168,9.676575,3
27655353824230,0.66041905,3.1393833,9.71486,3
27655356203397,0.70348984,3.1106694,9.781859,3
27655358582511,0.7513463,3.101098,9.844072,3
27655360961678,0.7609176,3.0723844,9.9015,3
27655363340793,0.75613195,3.0580273,9.973285,3
27655365719959,0.72263247,3.07717,10.01157,3
27655368099126,0.7465607,3.1058838,10.064212,3
27655370478241,0.7322037,3.1106694,10.126426,3
27655372857407,0.7082755,3.0963125,10.135997,3
27655375236522,0.6556334,3.0819557,10.164711,3
27655377615688,0.60777694,3.101098,10.207782,3
27655379994855,0.55513483,3.1058838,10.226924,3
27655382373970,0.51206404,3.0867412,10.265209,3
27655384753136,0.4833502,3.062813,10.293923,3
27655387132303,0.41156548,3.0532417,10.322637,3
27655389511418,0.34456646,3.0532417,10.322637,3
27655391890584,0.29192436,3.0580273,10.322637,3
27655394269699,0.23928227,3.0723844,10.327422,3
27655396648866,0.19142582,3.1202407,10.298709,3
27655399027980,0.11006984,3.1920254,10.298709,3
27655401407147,0.023928227,3.2829528,10.269995,3
27655403786313,-0.023928227,3.3643086,10.207782,3
27655406165428,-0.08135597,3.4121652,10.1599245,3
27655408544595,-0.15314065,3.4504502,10.068997,3
27655410923709,-0.22013968,3.4600215,9.987641,3
27655413302876,-0.28235307,3.4791641,9.896714,3
27655415682043,-0.37806597,3.4408789,9.786645,3
27655418061157,-0.4546363,3.4456646,9.676575,3
27655420440324,-0.526421,3.455236,9.5760765,3
27655422819438,-0.59342,3.4504502,9.446864,3
27655425198605,-0.65084773,3.4408789,9.336794,3
27655427577772,-0.7082755,3.426522,9.23151,3
27655429956886,-0.7513463,3.4169507,9.145369,3
27655432336053,-0.7848458,3.4217365,9.059227,3
27655434715220,-0.8135597,3.4504502,8.997013,3
27655437094334,-0.8422736,3.4887354,8.949157,3
27655439473501,-0.8805587,3.507878,8.925228,3
27655441852616,-0.8709874,3.546163,8.9108715,3
27655444231782,-0.82313097,3.5988052,8.896515,3
27655446610897,-0.8039884,3.6370904,8.920443,3
27655448990063,-0.74177504,3.641876,8.906086,3
27655451369230,-0.6652047,3.6753755,8.9013,3
27655453748345,-0.5694918,3.67059,8.891729,3
27655456127511,-0.5072784,3.656233,8.882157,3
27655458506678,-0.41156548,3.656233,8.85823,3
27655460885793,-0.30149564,3.6370904,8.843872,3
27655463264959,-0.16749759,3.6514473,8.839087,3
27655465644074,-0.06699903,3.6610186,8.796016,3
27655468023241,0.014356935,3.6897326,8.776874,3
27655470402407,0.11006984,3.7280176,8.733803,3
27655472781522,0.2105684,3.7758741,8.700303,3
27655475160688,0.29671,3.7998023,8.652447,3
27655477539803,0.38285163,3.8141594,8.556734,3
27655479918970,0.47377887,3.8380876,8.46102,3
27655482298136,0.52163535,3.8668015,8.365308,3
27655484677251,0.5886344,3.871587,8.288737,3
27655487056418,0.6412765,3.8620157,8.193025,3
27655489435532,0.66041905,3.8476589,8.111669,3
27655491814699,0.6652047,3.8620157,8.025527,3
27655494193866,0.66999036,3.8763726,7.920243,3
27655496572980,0.65084773,3.8763726,7.82453,3
27655498952147,0.6269195,3.8811584,7.752745,3
27655501331261,0.59342,3.9050865,7.690532,3
27655503710428,0.59342,3.9050865,7.661818,3
27655506089595,0.5982057,3.938586,7.6139617,3
27655508468709,0.55513483,3.9625144,7.594819,3
27655510847876,0.55034924,3.9433718,7.6139617,3
27655513226991,0.526421,3.9433718,7.5996046,3
27655515606157,0.4881358,3.952943,7.594819,3
27655517985324,0.4354937,3.9433718,7.63789,3
27655520364438,0.66999036,3.7806597,7.6953177,3
27655522743605,0.09571291,4.1635113,7.776674,3
27655525122720,0.6269195,3.5988052,7.752745,3
27655527501886,0.33499518,3.9194436,7.8867435,3
27655529881053,0.3493521,3.900301,7.9776707,3
27655532260168,0.44506502,3.7280176,8.068598,3
27655534639334,0.33020952,3.818945,8.260024,3
27655537018449,0.38763726,3.8141594,8.408379,3
27655539397616,0.39720857,3.7854455,8.508878,3
27655541776782,0.3493521,3.7567315,8.633304,3
27655544155897,0.37806597,3.7854455,8.743374,3
27655546535063,0.37806597,3.7471602,8.796016,3
27655548914178,0.3589234,3.6993039,8.848659,3
27655551293345,0.3684947,3.6801612,8.891729,3
27655553672511,0.37328035,3.6514473,8.915657,3
27655556051626,0.38763726,3.5988052,8.925228,3
27655558430793,0.4019942,3.546163,8.939586,3
27655560809907,0.41635114,3.546163,8.968299,3
27655563189074,0.44027936,3.5318062,8.977871,3
27655565568241,0.44985065,3.5318062,8.9826565,3
27655567947355,0.49292147,3.5365918,9.006584,3
27655570326522,0.5072784,3.546163,9.01137,3
27655572705636,0.526421,3.5174494,9.025727,3
27655575084751,0.52163535,3.4983068,9.030513,3
27655577463970,0.53599226,3.4791641,9.035298,3
27655579843084,0.5838487,3.4743786,9.025727,3
27655582222251,0.5982057,3.4408789,9.006584,3
27655584601366,0.6364908,3.4025939,8.987442,3
27655586980532,0.6987042,3.3499517,8.963513,3
27655589359699,0.75613195,3.2733815,8.939586,3
27655591738813,0.8279166,3.2207394,8.953942,3
27655594117980,0.91884387,3.1920254,9.001799,3
27655596497095,0.9954142,3.1872396,9.044869,3
27655598876261,1.0767702,3.1680973,9.078369,3
27655601255376,1.1437693,3.1441689,9.12144,3
27655603634543,1.2059826,3.1345978,9.159725,3
27655606013709,1.2442678,3.1250265,9.193225,3
27655608392824,1.2921243,3.1154552,9.245867,3
27655610771991,1.3543376,3.0915267,9.284152,3
27655613151157,1.3830515,3.0532417,9.327223,3
27655615530272,1.4213367,3.0436704,9.370294,3
27655617909438,1.4691931,3.0245278,9.427721,3
27655620288553,1.4691931,3.0053852,9.485149,3
27655622667720,1.4500505,3.010171,9.542577,3
27655625046886,1.4548361,3.0197423,9.614362,3
27655627426001,1.4931214,2.9910283,9.705289,3
27655629805168,1.4644074,2.9910283,9.74836,3
27655632184282,1.4787644,3.0245278,9.815358,3
27655634563449,1.4979069,3.0245278,9.891929,3
27655636942616,1.5074782,3.0436704,9.925428,3
27655639321730,1.4979069,3.0532417,9.968499,3
27655641700897,1.5170496,3.0723844,9.997213,3
27655644080011,1.5218352,3.0580273,10.0163555,3
27655646459178,1.5266209,3.1106694,10.01157,3
27655648838345,1.5314065,3.1393833,10.001999,3
27655651217459,1.5026926,3.1728828,9.973285,3
27655653596626,1.5026926,3.1920254,9.925428,3
27655655975741,1.4644074,3.2398818,9.906285,3
27655658354907,1.4548361,3.2877383,9.839287,3
27655660734074,1.4069797,3.3499517,9.753145,3
27655663113188,1.3926228,3.3834512,9.652647,3
27655665492355,1.3447664,3.455236,9.52822,3
27655667871470,1.2921243,3.507878,9.437292,3
27655670250636,1.2634103,3.5318062,9.3511505,3
27655672629803,1.2059826,3.5365918,9.245867,3
27655675008918,1.1724831,3.5605202,9.12144,3
27655677388084,1.1294123,3.5653057,9.040084,3
27655679767199,1.0671989,3.5700915,8.963513,3
27655682146366,1.052842,3.574877,8.9013,3
27655684525532,1.0193424,3.5796626,8.848659,3
27655686904647,0.98584294,3.5605202,8.776874,3
27655689283813,0.9906286,3.5700915,8.752945,3
27655691662928,0.9906286,3.5988052,8.752945,3
27655694042095,1.0097711,3.6083765,8.738588,3
27655696421261,1.0193424,3.6227336,8.719446,3
27655698800376,1.038485,3.6323047,8.724232,3
27655701179491,1.0480564,3.6083765,8.762517,3
27655703558657,1.0289137,3.4600215,8.839087,3
27655705937824,0.9810573,3.0197423,8.987442,3
27655708316991,1.0719845,2.9048867,9.12144,3
27655710696105,1.2059826,2.8809586,9.212367,3
27655713075272,1.3878372,2.9240294,9.269794,3
27655715454386,1.564906,2.9862428,9.336794,3
27655717833553,1.713261,3.062813,9.38465,3
27655720212720,1.8329022,3.1441689,9.413364,3
27655722591834,1.9190438,3.225525,9.365508,3
27655724971001,1.9860427,3.2590244,9.327223,3
27655727350116,2.024328,3.3212378,9.265009,3
27655729729282,2.0434706,3.3260236,9.19801,3
27655732108397,2.053042,3.2398818,9.116654,3
27655734487563,2.0721843,3.158526,9.016156,3
27655736866730,2.0865414,3.0580273,8.953942,3
27655739245845,2.0865414,2.9431717,8.886943,3
27655741625011,2.091327,2.8235307,8.834301,3
27655744004126,2.1248264,2.7326035,8.819944,3
27655746383293,2.105684,2.6512475,8.805588,3
27655748762459,2.0721843,2.5938199,8.85823,3
27655751141574,1.9812572,2.5794628,8.949157,3
27655753520741,1.9334008,2.617748,9.083155,3
27655755899855,1.875973,2.656033,9.250652,3
27655758279022,1.7802601,2.7326035,9.403793,3
27655760658188,1.6510476,2.8235307,9.533006,3
27655763037303,1.5026926,2.9192436,9.690931,3
27655765416470,1.3399807,3.0245278,9.834501,3
27655767795636,1.1676974,3.0580273,9.934999,3
27655770174751,0.9906286,3.1202407,10.030712,3
27655772553918,0.8470592,3.158526,10.112068,3
27655774933032,0.6939186,3.1537402,10.135997,3
27655777312199,0.46899325,3.0580273,10.145568,3
27655779691313,0.17228323,2.8187451,10.150353,3
27655782070480,-0.2727818,2.4023938,10.179068,3
27655784449647,-0.7609176,2.0386848,10.255638,3
27655786828761,-0.9523434,1.9908284,10.317851,3
27655789207928,-1.0480564,2.120041,10.351351,3
27655791587043,-1.134198,2.268396,10.332209,3
27655793966209,-1.1676974,2.4454648,10.250853,3
27655796345376,-1.0624132,2.6464617,10.150353,3
27655798724491,-0.8662018,2.8761728,10.01157,3
27655801103657,-0.5599205,3.07717,9.844072,3
27655803482772,-0.2105684,3.2733815,9.676575,3
27655805861938,0.124426775,3.4360933,9.499506,3
27655808241105,0.40677986,3.5796626,9.288938,3
27655810620220,0.6364908,3.723232,9.078369,3
27655812999386,0.80877405,3.8141594,8.834301,3
27655815378501,0.91405827,3.8955152,8.6141615,3
27655817757668,0.971486,3.952943,8.394022,3
27655820136834,0.9810573,4.0151563,8.169097,3
27655822515949,1.0001999,4.082155,7.9680996,3
27655824895116,1.0671989,4.1587257,7.8149586,3
27655827274230,1.1581261,4.2161536,7.6809607,3
27655829653397,1.2729816,4.2687955,7.5661054,3
27655832032563,1.402194,4.354937,7.479964,3
27655834411678,1.5122639,4.412365,7.389036,3
27655836790845,1.6510476,4.45065,7.3268228,3
27655839169959,1.8185452,4.45065,7.2933235,3
27655841549126,1.9334008,4.4458647,7.288538,3
27655843928293,2.0865414,4.436293,7.312466,3
27655846307407,2.2205393,4.426722,7.3842506,3
27655848686574,2.2827528,4.398008,7.4416785,3
27655851065688,2.3449662,4.359723,7.499106,3
27655853444855,2.3928227,4.2927237,7.537391,3
27655855823970,2.4358935,4.2257247,7.5756764,3
27655858203136,2.4358935,4.1587257,7.628319,3
27655860582303,2.4311078,4.1108694,7.6666036,3
27655862961418,2.388037,4.0295134,7.6809607,3
27655865340584,2.3449662,3.9433718,7.728817,3
27655867719699,2.321038,3.871587,7.743174,3
27655870098866,2.2779672,3.8237305,7.752745,3
27655872478032,2.2492533,3.7663028,7.743174,3
27655874857147,2.1966112,3.7088752,7.7383885,3
27655877236313,2.1296122,3.67059,7.728817,3
27655879615428,2.0434706,3.6131623,7.719246,3
27655881994595,1.9621146,3.5892339,7.728817,3
27655884373761,1.8568304,3.574877,7.7383885,3
27655886752876,1.7371893,3.5318062,7.743174,3
27655889132043,1.6319051,3.5030923,7.752745,3
27655891511157,1.5361922,3.4600215,7.7623167,3
27655893890324,1.4213367,3.426522,7.834101,3
27655896269491,1.3256238,3.359523,7.905886,3
27655898648605,1.2394822,3.2829528,7.9776707,3
27655901027772,1.1964114,3.182454,8.068598,3
27655903406886,1.1724831,3.1106694,8.178668,3
27655905786053,1.134198,3.0580273,8.331808,3
27655908165220,1.1485549,2.9766715,8.49452,3
27655910544334,1.1102697,2.9240294,8.676374,3
27655912923501,1.0863415,2.8953154,8.867801,3
27655915302616,1.1006985,2.8283165,9.073584,3
27655917681782,1.0671989,2.7996025,9.317652,3
27655920060949,1.0241281,2.7756743,9.556933,3
27655922440063,0.9906286,2.766103,9.820144,3
27655924819230,0.9523434,2.7278178,10.068997,3
27655927198345,0.9284152,2.6799614,10.346565,3
27655929577511,0.9236295,2.6656044,10.633704,3
27655931956678,0.93320084,2.6368906,10.925629,3
27655934335793,0.9284152,2.617748,11.236695,3
27655936714959,0.94755775,2.5938199,11.542976,3
27655939094074,0.9379865,2.5698915,11.815758,3
27655941473241,0.91884387,2.5603201,12.074183,3
27655943852355,0.90448695,2.5459633,12.265609,3
27655946231522,0.8853444,2.5316064,12.4426775,3
27655948610688,0.8566305,2.507678,12.5958185,3
27655950989803,0.79920274,2.4837499,12.71546,3
27655953368970,0.7800602,2.4454648,12.787244,3
27655955748136,0.74177504,2.4263222,12.787244,3
27655958127251,0.71306115,2.4071796,12.782458,3
27655960506418,0.7752745,2.3401806,12.725031,3
27655962885532,0.7513463,2.2971098,12.634104,3
27655965264699,0.6652047,2.3449662,12.519248,3
27655967643866,0.5982057,2.3545375,12.346965,3
27655970022980,0.56470615,2.349752,12.098111,3
27655972402147,0.5838487,2.3353949,11.839686,3
27655974781261,0.61734825,2.3832514,11.576476,3
27655977160428,0.66041905,2.388037,11.318051,3
27655979539543,0.7369894,2.4071796,11.054841,3
27655981918709,0.83748794,2.4215364,10.786844,3
27655984297876,0.91405827,2.4646072,10.480563,3
27655986676991,0.9379865,2.4885356,10.155139,3
27655989056157,0.9667004,2.5411777,9.839287,3
27655991435272,0.9619147,2.6081767,9.52822,3
27655993814438,0.94755775,2.6512475,9.19801,3
27655996193605,0.94755775,2.7086751,8.891729,3
27655998572720,0.9284152,2.766103,8.590233,3
27656000951886,0.8709874,2.7948167,8.298309,3
27656003331001,0.8039884,2.8378878,8.006385,3
27656005710168,0.74177504,2.9192436,7.7383885,3
27656008089334,0.6795616,3.0053852,7.479964,3
27656010468449,0.60777694,3.101098,7.240681,3
27656012847616,0.5312066,3.1633115,7.0301127,3
27656015226730,0.49292147,3.2350962,6.8578296,3
27656017605897,0.44027936,3.3260236,6.6999035,3
27656019985063,0.4019942,3.426522,6.570691,3
27656022364178,0.38285163,3.5605202,6.4701924,3
27656024743345,0.41156548,3.6610186,6.393622,3
27656027122407,0.45942193,3.7423747,6.326623,3
27656029501626,0.4977071,3.8524444,6.2691956,3
27656031880741,0.55513483,3.9290147,6.245267,3
27656034259855,0.6364908,3.9864426,6.2548385,3
27656036639074,0.72263247,4.0534415,6.2931237,3
27656039018188,0.79441714,4.0869412,6.3218374,3
27656041397355,0.8709874,4.1108694,6.393622,3
27656043776522,0.9619147,4.130012,6.4606214,3
27656046155636,1.0097711,4.115655,6.532406,3
27656048534803,1.0671989,4.0965123,6.652047,3
27656050913918,1.1294123,4.072584,6.771688,3
27656053293084,1.2107682,4.0390844,6.896115,3
27656055672199,1.2729816,3.9960139,7.04447,3
27656058051366,1.3782659,3.9768713,7.240681,3
27656060430532,1.4739788,3.9577286,7.446464,3
27656062809647,1.550549,3.9290147,7.63789,3
27656065188813,1.6510476,3.9242291,7.8053875,3
27656067567928,1.727618,3.900301,7.982456,3
27656069947095,1.8233309,3.8620157,8.140383,3
27656072326261,1.8855443,3.842873,8.283952,3
27656074705376,1.9334008,3.7998023,8.374879,3
27656077084543,1.9812572,3.7471602,8.427522,3
27656079463657,2.0434706,3.67059,8.46102,3
27656081842824,2.115255,3.5892339,8.475378,3
27656084221991,2.1774685,3.493521,8.475378,3
27656086601105,2.2636101,3.4313076,8.446664,3
27656088980272,2.3353949,3.37388,8.389236,3
27656091359386,2.4119651,3.2973096,8.322237,3
27656093738553,2.5028925,3.2303107,8.221739,3
27656096117668,2.5986054,3.129812,8.111669,3
27656098496834,2.6943183,3.034099,8.006385,3
27656100876001,2.8378878,2.8187451,7.7240314,3
27656103255116,3.101098,2.8570302,7.2693954,3
27656105634282,3.4313076,3.196811,7.015756,3
27656108013397,3.6083765,3.3930225,7.149754,3
27656110392563,3.641876,3.3547373,7.312466,3
27656112771730,3.723232,3.2590244,7.3268228,3
27656115150845,3.7998023,3.2207394,7.283752,3
27656117530011,3.8620157,3.1872396,7.2933235,3
27656119909126,3.9242291,3.1728828,7.350751,3
27656122288293,3.9050865,3.1489546,7.4416785,3
27656124667459,3.7950168,3.1537402,7.5900335,3
27656127046574,3.6658044,3.1633115,7.7383885,3
27656129425741,3.5270207,3.1680973,7.8484583,3
27656131804855,3.4217365,3.1872396,7.948957,3
27656134184022,3.37388,3.2015967,8.020741,3
27656136563188,3.3834512,3.196811,8.092526,3
27656138942251,3.4456646,3.1633115,8.149954,3
27656141321470,3.5365918,3.101098,8.26481,3
27656143700584,3.6466618,3.0053852,8.370093,3
27656146079751,3.694518,2.928815,8.451449,3
27656148458918,3.737589,2.8426733,8.523234,3
27656150838032,3.7567315,2.7996025,8.56152,3
27656153217199,3.7567315,2.7852457,8.585447,3
27656155596313,3.7088752,2.7852457,8.599805,3
27656157975480,3.6466618,2.8283165,8.623733,3
27656160354647,3.603591,2.861816,8.652447,3
27656162733761,3.546163,2.928815,8.685946,3
27656165112928,3.455236,2.9336007,8.681161,3
27656167492043,3.3786657,2.9336007,8.652447,3
27656169871209,3.330809,2.9479575,8.628518,3
27656172250376,3.2877383,2.9383862,8.595019,3
27656174629491,3.2542388,2.9479575,8.532805,3
27656177008657,3.2685957,2.9383862,8.456235,3
27656179387772,3.2590244,2.9192436,8.384451,3
27656181766938,3.2590244,2.8953154,8.293523,3
27656184146053,3.2733815,2.8570302,8.183454,3
27656186525220,3.3212378,2.833102,8.097312,3
27656188904386,3.3547373,2.8187451,8.01117,3
27656191283501,3.4121652,2.7900312,7.925029,3
27656193662668,3.397808,2.766103,7.8436728,3
27656196041782,3.3930225,2.7756743,7.7814593,3
27656198420949,3.3882368,2.7852457,7.704889,3
27656200800116,3.3786657,2.7996025,7.647461,3
27656203179230,3.3403804,2.78046,7.5900335,3
27656205558397,3.2877383,2.8139594,7.5661054,3
27656207937511,3.2303107,2.8283165,7.5661054,3
27656210316678,3.1537402,2.8809586,7.628319,3
27656212695845,3.0149565,2.8953154,7.676175,3
27656215074959,2.8905299,2.9048867,7.7096744,3
27656217454126,2.7278178,2.9336007,7.8053875,3
27656219833241,2.5316064,2.928815,7.958528,3
27656222212407,2.3401806,2.9240294,8.130812,3
27656224591522,2.1343977,2.9192436,8.303095,3
27656226970688,1.9621146,2.8905299,8.5423765,3
27656229349855,1.7850457,2.861816,8.796016,3
27656231728970,1.5888343,2.8522446,9.073584,3
27656234108136,1.402194,2.8426733,9.365508,3
27656236487303,1.2107682,2.7948167,9.690931,3
27656238866418,1.0432707,2.751746,9.997213,3
27656241245584,0.8470592,2.7182465,10.336994,3
27656243624699,0.6939186,2.6943183,10.662417,3
27656246003866,0.53599226,2.6895328,10.959127,3
27656248382980,0.4019942,2.6895328,11.260623,3
27656250762147,0.29192436,2.6799614,11.523834,3
27656253141313,0.22013968,2.7086751,11.772687,3
27656255520428,0.17706887,2.7086751,11.983255,3
27656257899595,0.17228323,2.6799614,12.169896,3
27656260278709,0.18664017,2.6464617,12.30868,3
27656262657876,0.2440679,2.6368906,12.399607,3
27656265037043,0.3397808,2.5938199,12.480963,3
27656267416157,0.38763726,2.565106,12.519248,3
27656269795324,0.47856453,2.5316064,12.557533,3
27656272174438,0.57906306,2.5172493,12.57189,3
27656274553605,0.6652047,2.498107,12.57189,3
27656276932720,0.7609176,2.5124638,12.57189,3
27656279311886,0.8853444,2.4789643,12.514462,3
27656281691053,1.0097711,2.4646072,12.437892,3
27656284070168,1.1629118,2.5316064,12.342179,3
27656286449334,1.3112668,2.7038896,12.203396,3
27656288828501,1.3304094,3.0436704,11.973684,3
27656291207616,1.3878372,3.2877383,11.71526,3
27656293586782,1.6079768,3.2925239,11.4903345,3
27656295965897,1.8233309,3.2303107,11.23191,3
27656298345063,1.9477576,3.1680973,10.973485,3
27656300724178,1.9477576,3.1154552,10.695917,3
27656303103345,1.9573289,2.9766715,10.451849,3
27656305482459,1.9716859,2.7900312,10.250853,3
27656307861626,2.105684,2.5794628,10.145568,3
27656310240793,2.2348964,2.4023938,10.035499,3
27656312619907,2.306681,2.2731814,9.915857,3
27656314999074,2.321038,2.1774685,9.786645,3
27656317378241,2.349752,2.115255,9.705289,3
27656319757355,2.4358935,2.0434706,9.695718,3
27656322136522,2.498107,2.009971,9.71486,3
27656324515636,2.5938199,1.9812572,9.762716,3
27656326894803,2.713461,1.9860427,9.805787,3
27656329273918,2.8761728,2.0434706,9.844072,3
27656331653084,3.0819557,2.1248264,9.920643,3
27656334032251,3.3020952,2.1918256,9.997213,3
27656336411366,3.4839497,2.2731814,10.049855,3
27656338790532,3.5796626,2.3401806,10.073783,3
27656341169699,3.694518,2.388037,10.135997,3
27656343548813,3.7950168,2.4071796,10.1599245,3
27656345927980,3.8668015,2.455036,10.155139,3
27656348307095,3.9194436,2.4885356,10.12164,3
27656350686261,3.9194436,2.5316064,10.078569,3
27656353065376,3.900301,2.5316064,10.040284,3
27656355444543,3.8380876,2.536392,10.0163555,3
27656357823657,3.7806597,2.5459633,9.982856,3
27656360202824,3.7423747,2.5220351,9.97807,3
27656362581991,3.67059,2.5268207,9.97807,3
27656364961105,3.5892339,2.5124638,10.01157,3
27656367340272,3.4887354,2.507678,10.049855,3
27656369719438,3.37388,2.4741786,10.097712,3
27656372098553,3.2590244,2.4646072,10.169497,3
27656374477720,3.1106694,2.4454648,10.2317095,3
27656376856834,2.9575288,2.416751,10.293923,3
27656379236001,2.7708886,2.3928227,10.356136,3
27656381615116,2.6081767,2.3688943,10.41835,3
27656383994282,2.4789643,2.3545375,10.499705,3
27656386373449,2.306681,2.359323,10.576276,3
27656388752563,2.1391835,2.3306093,10.643275,3
27656391131730,1.9716859,2.3353949,10.691132,3
27656393510845,1.8233309,2.3114667,10.738988,3
27656395890011,1.6845472,2.3306093,10.734202,3
27656398269178,1.5266209,2.3688943,10.724631,3
27656400648293,1.3495519,2.3784657,10.700703,3
27656403027459,1.2107682,2.4071796,10.648061,3
27656405406574,1.052842,2.4119651,10.576276,3
27656407785741,0.8997013,2.455036,10.523634,3
27656410164907,0.76570326,2.5220351,10.461421,3
27656412544022,0.66041905,2.603391,10.375279,3
27656414923188,0.56470615,2.6703901,10.27478,3
27656417302303,0.4833502,2.7469604,10.188639,3
27656419681470,0.42592242,2.8187451,10.107283,3
27656422060636,0.32542387,2.914458,10.021141,3
27656424439751,0.2632105,2.9671001,9.915857,3
27656426818918,0.20578274,3.062813,9.810573,3
27656429198032,0.13878371,3.1250265,9.710074,3
27656431577199,0.10049855,3.1920254,9.619147,3
27656433956313,0.05742774,3.2733815,9.552148,3
27656436335480,0.009571291,3.3499517,9.499506,3
27656438714647,-0.05742774,3.397808,9.432507,3
27656441093761,-0.10049855,3.4791641,9.379865,3
27656443472928,-0.13399807,3.5318062,9.341579,3
27656445852043,-0.17228323,3.5940197,9.303294,3
27656448231209,-0.19142582,3.656233,9.288938,3
27656450610376,-0.23928227,3.694518,9.2793665,3
27656452989491,-0.28235307,3.7184465,9.241081,3
27656455368657,-0.33499518,3.7471602,9.2075815,3
27656457747772,-0.37328035,3.7950168,9.164511,3
27656460126938,-0.39720857,3.7950168,9.15494,3
27656462506053,-0.4019942,3.8093736,9.145369,3
27656464885220,-0.44027936,3.8380876,9.116654,3
27656467264386,-0.44985065,3.8572302,9.064013,3
27656469643501,-0.44985065,3.8763726,9.064013,3
27656472022668,-0.47377887,3.8668015,9.035298,3
27656474401834,-0.4881358,3.9290147,8.987442,3
27656476780949,-0.5024927,3.952943,8.968299,3
27656479160116,-0.5072784,3.9290147,8.944371,3
27656481539230,-0.51206404,3.9625144,8.949157,3
27656483918345,-0.4881358,4.005585,8.939586,3
27656486297511,-0.4977071,4.048656,8.953942,3
27656488676678,-0.47856453,4.0677986,8.977871,3
27656491055845,-0.5024927,4.115655,8.987442,3
27656493434959,-0.5407779,4.139583,9.030513,3
27656495814126,-0.51206404,4.1347976,9.08794,3
27656498193241,-0.5407779,4.1491547,9.131011,3
27656500572407,-0.5599205,4.1635113,9.174082,3
27656502951574,-0.5694918,4.1635113,9.23151,3
27656505330688,-0.5455636,4.1204405,9.265009,3
27656507709855,-0.5168497,4.1108694,9.336794,3
27656510088970,-0.49292147,4.1108694,9.399008,3
27656512468136,-0.47856453,4.0677986,9.480363,3
27656514847251,-0.44985065,4.0295134,9.542577,3
27656517226418,-0.39720857,3.9720855,9.595219,3
27656519605584,-0.3493521,3.9194436,9.638289,3
27656521984699,-0.28235307,3.8572302,9.695718,3
27656524363866,-0.2009971,3.8237305,9.762716,3
27656526742980,-0.13878371,3.790231,9.839287,3
27656529122147,-0.07178468,3.7615173,9.8727865,3
27656531501261,-0.023928227,3.7184465,9.925428,3
27656533880428,0.023928227,3.694518,9.963714,3
27656536259595,0.086141616,3.6753755,10.001999,3
27656538638709,0.14356937,3.6658044,10.04507,3
27656541017876,0.18664017,3.6514473,10.073783,3
27656543397043,0.22492532,3.6323047,10.078569,3
27656545776157,0.22013968,3.603591,10.083355,3
27656548155324,0.23928227,3.5796626,10.107283,3
27656550534438,0.2440679,3.6131623,10.107283,3
27656552913605,0.22492532,3.5940197,10.112068,3
27656555292720,0.23449662,3.603591,10.131211,3
27656557671886,0.21535404,3.5988052,10.131211,3
27656560051053,0.22492532,3.5796626,10.140782,3
27656562430168,0.2105684,3.5557344,10.174282,3
27656564809334,0.2009971,3.5365918,10.164711,3
27656567188449,0.20578274,3.5126636,10.202995,3
27656569567616,0.20578274,3.5030923,10.226924,3
27656571946782,0.20578274,3.4456646,10.269995,3
27656574325897,0.18664017,3.4025939,10.284351,3
27656576705063,0.16271193,3.3499517,10.313066,3
27656579084178,0.14356937,3.3260236,10.34178,3
27656581463345,0.12921242,3.3020952,10.346565,3
27656583842511,0.11964113,3.2638102,10.34178,3
27656586221626,0.10049855,3.211168,10.365707,3
27656588600793,0.05742774,3.1489546,10.3848505,3
27656590979907,0.043070808,3.1489546,10.389636,3
27656593359074,0.043070808,3.1106694,10.403993,3
27656595738188,-0.0047856453,3.0723844,10.41835,3
27656598117355,-0.014356935,3.0293136,10.432707,3
27656600496522,-0.043070808,2.9862428,10.447063,3
27656602875636,-0.076570325,2.9910283,10.470992,3
27656605254803,-0.08135597,2.9671001,10.533205,3
27656607633918,-0.07178468,2.928815,10.600204,3
27656610013084,-0.076570325,2.9240294,10.619347,3
27656612392251,-0.06699903,2.9192436,10.624132,3
27656614771366,-0.0526421,2.885744,10.633704,3
27656617150532,-0.019142581,2.8474588,10.63849,3
27656619529647,0.033499517,2.8426733,10.643275,3
27656621908813,0.09571291,2.8139594,10.643275,3
27656624287928,0.11485548,2.804388,10.6815605,3
27656626667095,0.14356937,2.8091738,10.676775,3
27656629046261,0.17228323,2.804388,10.695917,3
27656631425376,0.2009971,2.7708886,10.705488,3
27656633804543,0.23928227,2.7708886,10.691132,3
27656636183657,0.2536392,2.7565317,10.710274,3
27656638562824,0.3062813,2.7421749,10.671989,3
27656640941991,0.34456646,2.766103,10.676775,3
27656643321105,0.37328035,2.7852457,10.652846,3
27656645700272,0.4019942,2.766103,10.60499,3
27656648079386,0.43070808,2.804388,10.561919,3
27656650458553,0.47856453,2.8235307,10.490134,3
27656652837720,0.5312066,2.8474588,10.442278,3
27656655216834,0.56470615,2.900101,10.399207,3
27656657596001,0.5982057,2.9096723,10.336994,3
27656659975116,0.64606214,2.928815,10.265209,3
27656662354282,0.67477596,2.9431717,10.174282,3
27656664733397,0.65084773,2.9910283,10.04507,3
27656667112563,0.61734825,3.0293136,9.906285,3
27656669491730,0.61734825,3.034099,9.772287,3
27656671870845,0.6029913,3.0245278,9.590433,3
27656674250011,0.5982057,3.0293136,9.38465,3
27656676629126,0.56470615,3.0388846,9.193225,3
27656679008293,0.55034924,3.0532417,9.001799,3
27656681387459,0.53599226,3.0819557,8.815159,3
27656683766574,0.5599205,3.0915267,8.6141615,3
27656686145741,0.56470615,3.1250265,8.394022,3
27656688524855,0.57427746,3.158526,8.193025,3
27656690904022,0.57906306,3.1920254,7.987242,3
27656693283136,0.6269195,3.1633115,7.728817,3
27656695662303,0.7082755,3.0867412,7.2693954,3
27656698041470,0.89013004,3.2733815,6.843473,3
27656700420584,1.0432707,3.603591,6.6424756,3
27656702799751,1.134198,3.804588,6.5515485,3
27656705178866,1.2011969,3.900301,6.4701924,3
27656707558032,1.2969099,3.9816568,6.350551,3
27656709937199,1.3639089,4.072584,6.2691956,3
27656712316313,1.3543376,4.1874394,6.178268,3
27656714695428,1.3160524,4.2352962,6.1208405,3
27656717074595,1.2442678,4.287938,6.0729837,3
27656719453761,1.1437693,4.3118663,6.04427,3
27656721832928,1.0719845,4.3070807,6.0251274,3
27656724212043,1.0049855,4.287938,5.9820566,3
27656726591209,1.038485,4.26401,5.962914,3
27656728970324,1.119841,4.2161536,5.9724855,3
27656731349491,1.2059826,4.101298,5.9724855,3
27656733728605,1.3256238,4.0390844,6.020342,3
27656736107720,1.4452649,3.9625144,6.1304116,3
27656738486938,1.5409778,3.8955152,6.273981,3
27656740866053,1.5696917,3.8476589,6.4127645,3
27656743245220,1.6319051,3.8141594,6.6041903,3
27656745624334,1.6654046,3.7806597,6.795616,3
27656748003501,1.7084754,3.7758741,7.001399,3
27656750382668,1.7180467,3.7567315,7.23111,3
27656752761782,1.7324036,3.751946,7.460821,3
27656755140949,1.6701902,3.7423747,7.6713896,3
27656757520063,1.6366907,3.737589,7.8628154,3
27656759899230,1.5744773,3.7328033,8.04467,3
27656762278345,1.5218352,3.7184465,8.202596,3
27656764657511,1.4691931,3.7136607,8.370093,3
27656767036678,1.416551,3.6993039,8.537591,3
27656769415793,1.3974084,3.6897326,8.685946,3
27656771794959,1.3974084,3.6753755,8.848659,3
27656774174074,1.3878372,3.6849468,8.987442,3
27656776553241,1.3543376,3.6849468,9.068798,3
27656778932407,1.4069797,3.7088752,9.135797,3
27656781311522,1.4596218,3.7280176,9.2075815,3
27656783690688,1.4979069,3.7280176,9.245867,3
27656786069803,1.550549,3.7615173,9.255438,3
27656788448970,1.6031911,3.7950168,9.274581,3
27656790828084,1.6749759,3.804588,9.274581,3
27656793207251,1.7228323,3.8380876,9.284152,3
27656795586418,1.7611175,3.8668015,9.269794,3
27656797965532,1.8041883,3.8907297,9.269794,3
27656800344699,1.8185452,3.8668015,9.255438,3
27656802723813,1.8137596,3.8620157,9.245867,3
27656805102980,1.8233309,3.842873,9.241081,3
27656807482095,1.8329022,3.8476589,9.212367,3
27656809861261,1.8233309,3.8333018,9.2075815,3
27656812240428,1.7946169,3.8237305,9.183653,3
27656814619543,1.7850457,3.7998023,9.159725,3
27656816998709,1.7659031,3.790231,9.150154,3
27656819377876,1.7802601,3.7615173,9.174082,3
27656821756991,1.7898313,3.7567315,9.174082,3
27656824136105,1.7850457,3.737589,9.150154,3
27656826515272,1.7850457,3.7136607,9.140582,3
27656828894438,1.8329022,3.737589,9.131011,3
27656831273553,1.8376877,3.7280176,9.116654,3
27656833652720,1.8520447,3.7280176,9.102298,3
27656836031886,1.861616,3.7328033,9.068798,3
27656838411001,1.8711873,3.7328033,9.030513,3
27656840790168,1.861616,3.7423747,8.9826565,3
27656843169282,1.8424734,3.7471602,8.939586,3
27656845548449,1.8137596,3.7758741,8.9013,3
27656847927563,1.7611175,3.7806597,8.853444,3
27656850306730,1.7419748,3.7710886,8.786445,3
27656852685897,1.7180467,3.7567315,8.71466,3
27656855064959,1.6510476,3.7854455,8.647661,3
27656857444178,1.6271194,3.7710886,8.595019,3
27656859823293,1.6079768,3.737589,8.518449,3
27656862202459,1.564906,3.7328033,8.46102,3
27656864581626,1.5409778,3.7280176,8.427522,3
27656866960741,1.5170496,3.7088752,8.398808,3
27656869339907,1.5026926,3.6658044,8.360522,3
27656871719022,1.4596218,3.6370904,8.336594,3
27656874098188,1.4500505,3.6131623,8.30788,3
27656876477355,1.430908,3.6083765,8.283952,3
27656878856418,1.4356936,3.574877,8.298309,3
27656881235636,1.4069797,3.5557344,8.279166,3
27656883614751,1.3734802,3.5605202,8.274381,3
27656885993866,1.3447664,3.546163,8.293523,3
27656888373084,1.3016955,3.5605202,8.322237,3
27656890752199,1.268196,3.5605202,8.355737,3
27656893131366,1.253839,3.5413775,8.360522,3
27656895510480,1.2251252,3.5557344,8.374879,3
27656897889647,1.2346965,3.5557344,8.370093,3
27656900268761,1.2155539,3.5796626,8.370093,3
27656902647928,1.18684,3.574877,8.379665,3
27656905027095,1.1916257,3.5557344,8.398808,3
27656907406209,1.1820544,3.5557344,8.408379,3
27656909785376,1.1820544,3.5653057,8.408379,3
27656912164491,1.1437693,3.5557344,8.427522,3
27656914543605,1.1246266,3.5844483,8.437093,3
27656916922772,1.1150553,3.5988052,8.46102,3
27656919301938,1.0815558,3.603591,8.499306,3
27656921681105,1.0624132,3.6131623,8.551949,3
27656924060220,1.0289137,3.6275191,8.618947,3
27656926439386,0.9954142,3.6466618,8.685946,3
27656928818501,0.9906286,3.656233,8.7673025,3
27656931197668,0.98584294,3.6993039,8.867801,3
27656933576834,0.9810573,3.694518,8.958728,3
27656935955949,0.93320084,3.7040894,9.064013,3
27656938335116,0.89013004,3.737589,9.174082,3
27656940714230,0.85184485,3.6993039,9.265009,3
27656943093397,0.82313097,3.6897326,9.3511505,3
27656945472511,0.7752745,3.694518,9.446864,3
27656947851678,0.72741807,3.6849468,9.504292,3
27656950230845,0.6987042,3.67059,9.537791,3
27656952609959,0.6556334,3.6323047,9.571291,3
27656954989126,0.60777694,3.5892339,9.590433,3
27656957368241,0.57427746,3.5605202,9.595219,3
27656959747407,0.5599205,3.5365918,9.585648,3
27656962126574,0.51206404,3.4648073,9.60479,3
27656964505688,0.4833502,3.4360933,9.580862,3
27656966884855,0.44027936,3.3834512,9.556933,3
27656969263970,0.41156548,3.345166,9.561719,3
27656971643136,0.38285163,3.306881,9.556933,3
27656974022251,0.3397808,3.2973096,9.5760765,3
27656976401418,0.32542387,3.2877383,9.595219,3
27656978780584,0.30149564,3.2973096,9.619147,3
27656981159699,0.27756742,3.2973096,9.652647,3
27656983538866,0.24885355,3.3355947,9.71486,3
27656985917980,0.2536392,3.37388,9.7196455,3
27656988297147,0.2440679,3.4025939,9.757931,3
27656990676313,0.22971097,3.4169507,9.777073,3
27656993055428,0.22013968,3.4600215,9.777073,3
27656995434595,0.20578274,3.5270207,9.762716,3
27656997813709,0.18664017,3.574877,9.743574,3
27657000192876,0.148355,3.6227336,9.724431,3
27657002571991,0.148355,3.6753755,9.690931,3
27657004951157,0.13399807,3.7328033,9.623933,3
27657007330324,0.14356937,3.7806597,9.5665045,3
27657009709438,0.13878371,3.8141594,9.489935,3
27657012088605,0.13399807,3.842873,9.41815,3
27657014467720,0.13399807,3.8668015,9.327223,3
27657016846886,0.13878371,3.8907297,9.250652,3
27657019226001,0.13878371,3.9194436,9.164511,3
27657021605168,0.1052842,3.9338005,9.078369,3
27657023984334,0.0526421,3.952943,9.016156,3
27657026363449,0.019142581,3.9816568,8.944371,3
27657028742616,-0.0526421,3.9960139,8.877372,3
27657031121730,-0.10049855,4.019942,8.781659,3
27657033500897,-0.15314065,4.0773697,8.700303,3
27657035880063,-0.20578274,4.0773697,8.6141615,3
27657038259178,-0.25842485,4.0965123,8.499306,3
27657040638345,-0.29192436,4.130012,8.437093,3
27657043017459,-0.37328035,4.15394,8.374879,3
27657045396626,-0.4354937,4.1635113,8.288737,3
27657047775793,-0.4881358,4.182654,8.202596,3
27657050154907,-0.52163535,4.2017965,8.12124,3
27657052534074,-0.5312066,4.220939,8.04467,3
27657054913188,-0.56470615,4.220939,7.982456,3
27657057292355,-0.5982057,4.2161536,7.9393854,3
27657059671470,-0.5886344,4.2017965,7.9106717,3
27657062050636,-0.59342,4.2017965,7.9011,3
27657064429803,-0.6029913,4.173083,7.891529,3
27657066808918,-0.57427746,4.1922255,7.891529,3
27657069188084,-0.57427746,4.173083,7.9011,3
27657071567199,-0.57906306,4.1587257,7.944171,3
27657073946366,-0.56470615,4.130012,7.987242,3
27657076325532,-0.56470615,4.091727,8.04467,3
27657078704647,-0.57906306,4.082155,8.087741,3
27657081083813,-0.53599226,4.082155,8.16431,3
27657083462928,-0.5407779,4.0773697,8.2456665,3
27657085842095,-0.5168497,4.0869412,8.336594,3
27657088221209,-0.4977071,4.082155,8.422736,3
27657090600376,-0.4546363,4.072584,8.513663,3
27657092979543,-0.39720857,4.063013,8.60459,3
27657095358657,-0.3924229,4.0438704,8.71466,3
27657097737824,-0.38285163,4.005585,8.800801,3
27657100116938,-0.3397808,4.0007997,8.906086,3
27657102496105,-0.31106696,3.991228,9.001799,3
27657104875272,-0.30149564,4.005585,9.068798,3
27657107254386,-0.27756742,3.9960139,9.174082,3
27657109633553,-0.23928227,3.952943,9.269794,3
27657112012668,-0.20578274,3.938586,9.346365,3
27657114391834,-0.19621146,3.900301,9.403793,3
27657116770949,-0.2105684,3.871587,9.446864,3
27657119150116,-0.2009971,3.842873,9.485149,3
27657121529282,-0.18664017,3.8333018,9.509077,3
27657123908345,-0.19621146,3.8237305,9.542577,3
27657126287563,-0.22492532,3.8093736,9.571291,3
27657128666678,-0.22971097,3.790231,9.60479,3
27657131045845,-0.23449662,3.804588,9.609575,3
27657133424959,-0.23449662,3.804588,9.623933,3
27657135804126,-0.22971097,3.7998023,9.647861,3
27657138183293,-0.23928227,3.818945,9.662218,3
27657140562355,-0.2009971,3.8476589,9.671789,3
27657142941574,-0.20578274,3.842873,9.68136,3
27657145320688,-0.2009971,3.8476589,9.695718,3
27657147699855,-0.19621146,3.8476589,9.724431,3
27657150079022,-0.18664017,3.8811584,9.753145,3
27657152458136,-0.17228323,3.8907297,9.772287,3
27657154837303,-0.20578274,3.900301,9.786645,3
27657157216418,-0.2009971,3.9050865,9.801002,3
27657159595584,-0.2105684,3.9050865,9.820144,3
27657161974699,-0.22492532,3.9338005,9.820144,3
27657164353866,-0.25842485,3.9242291,9.815358,3
27657166733032,-0.28235307,3.8907297,9.82493,3
27657169112147,-0.30149564,3.8811584,9.82493,3
27657171491261,-0.35413775,3.8524444,9.815358,3
27657173870428,-0.39720857,3.8141594,9.777073,3
27657176249595,-0.4546363,3.8237305,9.79143,3
27657178628761,-0.5168497,3.7950168,9.772287,3
27657181007876,-0.57906306,3.7854455,9.7196455,3
27657183387043,-0.6412765,3.8237305,9.705289,3
27657185766157,-0.7322037,3.8572302,9.68136,3
27657188145324,-0.8039884,3.8811584,9.638289,3
27657190524438,-0.8662018,3.9050865,9.580862,3
27657192903605,-0.9379865,3.9673,9.537791,3
27657195282772,-0.9906286,3.9960139,9.475577,3
27657197661886,-1.038485,4.063013,9.38465,3
27657200041053,-1.0767702,4.1108694,9.317652,3
27657202420168,-1.1485549,4.1635113,9.19801,3
27657204799334,-1.1772687,4.206582,9.097511,3
27657207178501,-1.1964114,4.240082,9.001799,3
27657209557616,-1.2059826,4.2831526,8.896515,3
27657211936782,-1.2346965,4.3118663,8.79123,3
27657214315897,-1.2586247,4.3357944,8.700303,3
27657216695063,-1.2634103,4.345366,8.60459,3
27657219074178,-1.2586247,4.331009,8.532805,3
27657221453345,-1.268196,4.3262234,8.46102,3
27657223832511,-1.2490535,4.3501515,8.389236,3
27657226211626,-1.253839,4.354937,8.3174515,3
27657228590793,-1.2394822,4.3357944,8.279166,3
27657230969907,-1.2011969,4.3262234,8.236095,3
27657233349074,-1.1820544,4.316652,8.240881,3
27657235728188,-1.1437693,4.2927237,8.236095,3
27657238107355,-1.134198,4.3070807,8.2456665,3
27657240486522,-1.0959128,4.273581,8.288737,3
27657242865636,-1.0671989,4.2448673,8.355737,3
27657245244803,-1.038485,4.26401,8.389236,3
27657247623918,-1.0241281,4.2592244,8.4705925,3
27657250003084,-1.0289137,4.23051,8.566305,3
27657252382251,-1.0241281,4.2161536,8.662018,3
27657254761366,-1.0241281,4.173083,8.772088,3
27657257140532,-1.0241281,4.173083,8.867801,3
27657259519647,-1.0289137,4.139583,8.977871,3
27657261898813,-1.0480564,4.1491547,9.083155,3
27657264277928,-1.0624132,4.1443686,9.193225,3
27657266657095,-1.0911272,4.115655,9.2793665,3
27657269036261,-1.1389836,4.0773697,9.355937,3
27657271415376,-1.1437693,4.048656,9.446864,3
27657273794543,-1.1485549,4.005585,9.509077,3
27657276173657,-1.1533405,4.005585,9.537791,3
27657278552824,-1.2107682,3.991228,9.571291,3
27657280931991,-1.2155539,3.9625144,9.600004,3
27657283311105,-1.2299109,3.9577286,9.60479,3
27657285690220,-1.2299109,3.9433718,9.643075,3
27657288069386,-1.268196,3.9433718,9.647861,3
27657290448553,-1.3064811,3.9338005,9.628718,3
27657292827668,-1.3208381,3.9433718,9.628718,3
27657295206834,-1.3304094,3.9338005,9.623933,3
27657297586001,-1.3304094,3.9242291,9.5665045,3
27657299965116,-1.3686945,3.9242291,9.556933,3
27657302344282,-1.3974084,3.9194436,9.509077,3
27657304723345,-1.4261223,3.9338005,9.470792,3
27657307102563,-1.4452649,3.9433718,9.437292,3
27657309481678,-1.4739788,3.9290147,9.432507,3
27657311860845,-1.4931214,3.9625144,9.408579,3
27657314240011,-1.5122639,3.9960139,9.399008,3
27657316619126,-1.5266209,3.991228,9.408579,3
27657318998293,-1.5744773,3.9864426,9.399008,3
27657321377407,-1.5984055,3.9816568,9.403793,3
27657323756574,-1.6366907,4.0007997,9.4229355,3
27657326135688,-1.6701902,3.991228,9.408579,3
27657328514855,-1.6654046,4.005585,9.394221,3
27657330894022,-1.698904,4.0151563,9.403793,3
27657333273136,-1.727618,4.0677986,9.408579,3
27657335652303,-1.7563318,4.101298,9.41815,3
27657338031418,-1.7515461,4.1347976,9.41815,3
27657340410584,-1.727618,4.15394,9.38465,3
27657342789751,-1.7371893,4.1874394,9.341579,3
27657345168866,-1.7467605,4.1874394,9.322437,3
27657347548032,-1.7180467,4.211368,9.288938,3
27657349927147,-1.698904,4.240082,9.226724,3
27657352306313,-1.6797615,4.273581,9.169296,3
27657354685480,-1.6462619,4.321438,9.12144,3
27657357064595,-1.6366907,4.369294,9.040084,3
27657359443761,-1.6271194,4.402794,8.963513,3
27657361822876,-1.5936198,4.436293,8.906086,3
27657364202043,-1.5840486,4.479364,8.810373,3
27657366581209,-1.579263,4.503292,8.71466,3
27657368960324,-1.564906,4.5320063,8.628518,3
27657371339491,-1.5744773,4.5798626,8.532805,3
27657373718605,-1.5601203,4.6085763,8.441878,3
27657376097772,-1.564906,4.627719,8.336594,3
27657378476886,-1.564906,4.6372905,8.236095,3
27657380856053,-1.5457634,4.613362,8.154739,3
27657383235168,-1.5361922,4.618148,8.054241,3
27657385614334,-1.5361922,4.642076,7.9680996,3
27657387993501,-1.4979069,4.6612186,7.8484583,3
27657390372616,-1.4979069,4.6372905,7.752745,3
27657392751782,-1.4739788,4.6468616,7.6426754,3
27657395130897,-1.4548361,4.618148,7.5326056,3
27657397510063,-1.4404793,4.6037908,7.446464,3
27657399889230,-1.4356936,4.6085763,7.365108,3
27657402268345,-1.4261223,4.6085763,7.3028946,3
27657404647511,-1.3974084,4.584648,7.2502527,3
27657407026626,-1.3591232,4.5798626,7.2119675,3
27657409405793,-1.3304094,4.599005,7.1880393,3
27657411784907,-1.253839,4.5942197,7.192825,3
27657414164074,-1.18684,4.6085763,7.2215385,3
27657416543241,-1.1533405,4.6325045,7.2502527,3
27657418922355,-1.0959128,4.627719,7.30768,3
27657421301522,-1.0576276,4.6468616,7.389036,3
27657423680636,-0.971486,4.651647,7.446464,3
27657426059803,-0.91405827,4.6372905,7.542177,3
27657428438918,-0.8662018,4.642076,7.63789,3
27657430818084,-0.79441714,4.6229334,7.7240314,3
27657433197251,-0.74177504,4.627719,7.810173,3
27657435576366,-0.6652047,4.6372905,7.8963146,3
27657437955532,-0.61734825,4.618148,7.972885,3
27657440334647,-0.55034924,4.6085763,8.04467,3
27657442713813,-0.51206404,4.599005,8.097312,3
27657445092980,-0.43070808,4.5894337,8.178668,3
27657447472095,-0.3924229,4.584648,8.274381,3
27657449851261,-0.3493521,4.56072,8.360522,3
27657452230376,-0.31585258,4.546363,8.437093,3
27657454609543,-0.27756742,4.5320063,8.508878,3
27657456988657,-0.22971097,4.5272202,8.599805,3
27657459367824,-0.20578274,4.508078,8.719446,3
27657461746991,-0.2009971,4.4841495,8.805588,3
27657464126105,-0.16749759,4.469793,8.906086,3
27657466505272,-0.17228323,4.469793,9.006584,3
27657468884386,-0.17706887,4.4410787,9.126225,3
27657471263553,-0.15792629,4.4458647,9.236296,3
27657473642668,-0.18664017,4.4410787,9.327223,3
27657476021834,-0.2105684,4.426722,9.432507,3
27657478401001,-0.20578274,4.3836513,9.509077,3
27657480780116,-0.22013968,4.354937,9.580862,3
