t_ns,ax,ay,az,accuracy
30840474413837,-0.44506502,9.083155,3.8668015,3
30840476792744,-0.6125626,9.107083,3.9146578,3
30840479171702,-0.7752745,9.135797,3.8620157,3
30840481550608,-0.91884387,9.131011,3.7615173,3
30840483929514,-0.9954142,9.169296,3.6897326,3
30840486308473,-1.0289137,9.178867,3.6801612,3
30840488687379,-1.0193424,9.159725,3.7471602,3
30840491066285,-0.9667004,9.131011,3.8380876,3
30840493445191,-0.89013004,9.107083,3.8955152,3
30840495824046,-0.74177504,9.131011,3.9050865,3
30840498203004,-0.5024927,9.164511,3.8237305,3
30840500581910,-0.31106696,9.140582,3.6610186,3
30840502960869,-0.09571291,9.064013,3.5796626,3
30840505339775,0.07178468,9.107083,3.6514473,3
30840507718681,0.12921242,9.135797,3.7471602,3
30840510097587,0.25842485,9.08794,3.8237305,3
30840512476494,0.43070808,9.073584,3.8476589,3
30840514855400,0.6364908,9.064013,3.8572302,3
30840517234358,0.7848458,9.092726,3.804588,3
30840519613264,0.93320084,9.265009,3.1489546,3
30840521992171,1.134198,9.016156,3.1633115,3
30840524371077,0.91405827,8.939586,3.751946,3
30840526749983,0.18664017,9.131011,5.1349974,3
30840529128889,-0.9284152,9.092726,4.584648,3
30840531507848,-1.0480564,9.016156,3.6993039,3
30840533886754,-1.1389836,9.217153,3.1489546,3
30840536265660,-2.3688943,9.370294,2.8666015,3
30840538644566,-2.7708886,9.202796,3.5653057,3
30840541023473,-2.7182465,9.059227,4.4889355,3
30840543402379,-3.010171,9.150154,4.5894337,3
30840545781337,-2.7230322,9.12144,4.2161536,3
30840548160244,-1.847259,9.097511,3.7615173,3
30840550539150,-1.4548361,9.2075815,3.249453,3
30840552918056,-1.0193424,9.221938,3.1680973,3
30840555296962,-0.148355,9.073584,3.6801612,3
30840557675869,0.34456646,9.040084,4.125226,3
30840560054827,0.64606214,9.083155,4.2448673,3
30840562433733,1.0767702,9.0544405,4.0534415,3
30840564812587,1.268196,8.973084,3.6131623,3
30840567191546,1.3304094,9.044869,3.2973096,3
30840569570452,1.4644074,9.12144,3.3547373,3
30840571949358,1.5074782,9.01137,3.67059,3
30840574328316,1.3495519,8.992228,3.9577286,3
30840576707223,1.1916257,9.0544405,4.1108694,3
30840579086129,0.971486,9.049655,4.0103707,3
30840581465035,0.5982057,9.049655,3.6993039,3
30840583843941,0.22492532,9.116654,3.4839497,3
30840586222848,-0.148355,9.15494,3.4983068,3
30840588601806,-0.56470615,9.116654,3.6993039,3
30840590980660,-0.95712906,9.083155,3.9816568,3
30840593359619,-1.2155539,9.116654,4.106084,3
30840595738525,-1.4356936,9.140582,4.0390844,3
30840598117431,-1.5696917,9.164511,3.804588,3
30840600496389,-1.5984055,9.212367,3.6275191,3
30840602875296,-1.5601203,9.202796,3.5940197,3
30840605254202,-1.4644074,9.164511,3.7088752,3
30840607633108,-1.2586247,9.135797,3.9050865,3
30840610012014,-1.0001999,9.116654,4.019942,3
30840612390921,-0.71306115,9.111869,3.9577286,3
30840614769827,-0.3684947,9.111869,3.7567315,3
30840617148785,-0.0526421,9.116654,3.5988052,3
30840619527691,0.22492532,9.111869,3.5413775,3
30840621906598,0.4642076,9.092726,3.641876,3
30840624285504,0.64606214,9.08794,3.7806597,3
30840626664410,0.76570326,9.073584,3.8763726,3
30840629043316,0.80877405,9.049655,3.8333018,3
30840631422275,0.80877405,9.073584,3.737589,3
30840633801181,0.72263247,9.092726,3.6179478,3
30840636180087,0.53599226,9.102298,3.574877,3
30840638558994,0.32063824,9.102298,3.641876,3
30840640937900,0.0526421,9.102298,3.7758741,3
30840643316806,-0.18664017,9.102298,3.8524444,3
30840645695764,-0.46899325,9.126225,3.8572302,3
30840648074671,-0.7322037,9.140582,3.7854455,3
30840650453577,-0.9619147,9.164511,3.694518,3
30840652832483,-1.1246266,9.174082,3.656233,3
30840655211389,-1.2394822,9.159725,3.7088752,3
30840657590296,-1.2873386,9.164511,3.7950168,3
30840659969254,-1.268196,9.135797,3.8524444,3
30840662348160,-1.1581261,9.131011,3.8476589,3
30840664727066,-1.0241281,9.135797,3.7758741,3
30840667105973,-0.82313097,9.145369,3.6993039,3
30840669484879,-0.60777694,9.126225,3.6610186,3
30840671863785,-0.3924229,9.126225,3.694518,3
30840674242744,-0.16749759,9.12144,3.7567315,3
30840676621650,0.033499517,9.126225,3.8093736,3
30840679000556,0.22492532,9.126225,3.7998023,3
30840681379462,0.37806597,9.111869,3.737589,3
30840683758369,0.47377887,9.116654,3.6849468,3
30840686137327,0.51206404,9.116654,3.6610186,3
30840688516181,0.4833502,9.12144,3.6801612,3
30840690895139,0.3924229,9.111869,3.723232,3
30840693274046,0.25842485,9.102298,3.7710886,3
30840695652952,0.13399807,9.107083,3.7854455,3
30840698031858,-0.033499517,9.107083,3.7758741,3
30840700410816,-0.2440679,9.12144,3.7280176,3
30840702789723,-0.44985065,9.12144,3.6849468,3
30840705168629,-0.5982057,9.131011,3.723232,3
30840707547535,-0.75613195,9.135797,3.7854455,3
30840709926441,-0.86141616,9.150154,3.8141594,3
30840712305348,-0.93320084,9.12144,3.818945,3
30840714684306,-0.971486,9.140582,3.8093736,3
30840717063212,-0.94277215,9.145369,3.7806597,3
30840719442119,-0.8662018,9.15494,3.7615173,3
30840721821025,-0.7609176,9.150154,3.7471602,3
30840724199931,-0.6125626,9.135797,3.7758741,3
30840726578837,-0.4546363,9.12144,3.7950168,3
30840728957744,-0.29192436,9.126225,3.8093736,3
30840731336702,-0.1052842,9.107083,3.7998023,3
30840733715608,0.047856454,9.107083,3.751946,3
30840736094514,0.16749759,9.102298,3.7280176,3
30840738473421,0.26799613,9.102298,3.723232,3
30840740852327,0.33020952,9.097511,3.7423747,3
30840743231233,0.34456646,9.107083,3.7710886,3
30840745610191,0.28235307,9.097511,3.790231,3
30840747989098,0.22971097,9.102298,3.7806597,3
30840750368004,0.13878371,9.097511,3.7615173,3
30840752746910,0.0047856453,9.140582,3.7710886,3
30840755125816,-0.13878371,9.111869,3.790231,3
30840757504723,-0.2536392,9.092726,3.8141594,3
30840759883629,-0.4019942,9.097511,3.8285162,3
30840762262587,-0.52163535,9.092726,3.842873,3
30840764641494,-0.60777694,9.078369,3.8380876,3
30840767020400,-0.6795616,9.059227,3.8093736,3
30840769399306,-0.7369894,9.083155,3.8141594,3
30840771778212,-0.7369894,9.064013,3.8333018,3
30840774157171,-0.72263247,9.073584,3.8572302,3
30840776536077,-0.6556334,9.078369,3.842873,3
30840778914983,-0.55034924,9.073584,3.8476589,3
30840781293889,-0.41635114,9.064013,3.842873,3
30840783672796,-0.30149564,9.059227,3.8237305,3
30840786051650,-0.18185452,9.040084,3.818945,3
30840788430660,-0.0526421,9.020942,3.8093736,3
30840790809566,0.047856454,9.030513,3.8141594,3
30840793188473,0.13399807,9.020942,3.8093736,3
30840795567379,0.2105684,9.01137,3.8380876,3
30840797946285,0.2536392,9.025727,3.842873,3
30840800325191,0.22492532,9.035298,3.8380876,3
30840802704150,0.21535404,9.040084,3.842873,3
30840805083056,0.148355,9.064013,3.8572302,3
30840807461962,0.047856454,9.068798,3.8668015,3
30840809840869,-0.06699903,9.078369,3.8811584,3
30840812219775,-0.18185452,9.097511,3.885944,3
30840814598681,-0.29192436,9.102298,3.9050865,3
30840816977639,-0.40677986,9.107083,3.9242291,3
30840819356546,-0.5072784,9.126225,3.9290147,3
30840821735452,-0.5838487,9.131011,3.9146578,3
30840824114358,-0.6221339,9.126225,3.9290147,3
30840826493264,-0.6364908,9.140582,3.9433718,3
30840828872171,-0.6412765,9.102298,3.938586,3
30840831251129,-0.60777694,9.092726,3.9290147,3
30840833630035,-0.53599226,9.102298,3.9098723,3
30840836008941,-0.44985065,9.097511,3.9050865,3
30840838387848,-0.3684947,9.073584,3.9050865,3
30840840766754,-0.28235307,9.073584,3.885944,3
30840843145660,-0.2105684,9.059227,3.8763726,3
30840845524566,-0.11964113,9.073584,3.8811584,3
30840847903525,-0.043070808,9.059227,3.8668015,3
30840850282431,0.014356935,9.044869,3.8572302,3
30840852661337,0.043070808,9.068798,3.8333018,3
30840855040244,0.07178468,9.059227,3.842873,3
30840857419150,0.047856454,9.025727,3.8380876,3
30840859798108,0.0,9.020942,3.8333018,3
30840862177014,-0.062213387,9.044869,3.8237305,3
30840864555921,-0.15314065,9.035298,3.8380876,3
30840866934827,-0.26799613,9.040084,3.8524444,3
30840869313733,-0.3493521,9.040084,3.8333018,3
30840871692639,-0.4211368,9.064013,3.8524444,3
30840874071598,-0.4881358,9.059227,3.842873,3
30840876450504,-0.5599205,9.092726,3.8380876,3
30840878829410,-0.6029913,9.116654,3.8380876,3
30840881208316,-0.6412765,9.140582,3.842873,3
30840883587223,-0.6221339,9.140582,3.8476589,3
30840885966129,-0.5838487,9.135797,3.8380876,3
30840888345087,-0.53599226,9.135797,3.8333018,3
30840890723994,-0.46899325,9.135797,3.8333018,3
30840893102900,-0.39720857,9.12144,3.8237305,3
30840895481806,-0.29671,9.12144,3.8333018,3
30840897860712,-0.2009971,9.140582,3.8333018,3
30840900239619,-0.11485548,9.135797,3.8141594,3
30840902618525,-0.02871387,9.116654,3.7998023,3
30840904997483,0.023928227,9.116654,3.7998023,3
30840907376389,0.06699903,9.126225,3.8141594,3
30840909755296,0.086141616,9.111869,3.804588,3
30840912134202,0.0526421,9.102298,3.7854455,3
30840914513108,0.033499517,9.111869,3.7758741,3
30840916892014,-0.023928227,9.102298,3.7710886,3
30840919270973,-0.07178468,9.097511,3.7567315,3
30840921649879,-0.12921242,9.083155,3.751946,3
30840924028785,-0.20578274,9.083155,3.751946,3
30840926407691,-0.31585258,9.083155,3.7710886,3
30840928786598,-0.37806597,9.08794,3.790231,3
30840931165504,-0.42592242,9.08794,3.7806597,3
30840933544462,-0.5024927,9.08794,3.804588,3
30840935923369,-0.53599226,9.107083,3.8093736,3
30840938302223,-0.53599226,9.116654,3.8141594,3
30840940681181,-0.55034924,9.102298,3.790231,3
30840943060087,-0.5168497,9.102298,3.7998023,3
30840945438994,-0.45942193,9.107083,3.7998023,3
30840947817952,-0.41635114,9.12144,3.7806597,3
30840950196858,-0.3493521,9.111869,3.7806597,3
30840952575764,-0.28235307,9.145369,3.7806597,3
30840954954671,-0.2105684,9.135797,3.7950168,3
30840957333577,-0.15792629,9.102298,3.7854455,3
30840959712483,-0.09092726,9.092726,3.7854455,3
30840962091441,-0.06699903,9.102298,3.804588,3
30840964470348,-0.047856454,9.107083,3.7950168,3
30840966849254,-0.043070808,9.116654,3.7998023,3
30840969228160,-0.05742774,9.092726,3.7950168,3
30840971607066,-0.07178468,9.078369,3.7854455,3
30840973985973,-0.11006984,9.073584,3.7998023,3
30840976364931,-0.17228323,9.078369,3.7998023,3
30840978743837,-0.2632105,9.097511,3.818945,3
30840981122744,-0.32542387,9.111869,3.8093736,3
30840983501650,-0.38763726,9.107083,3.818945,3
30840985880504,-0.44027936,9.107083,3.8237305,3
30840988259462,-0.4881358,9.116654,3.8141594,3
30840990638421,-0.5407779,9.102298,3.8093736,3
30840993017327,-0.5407779,9.092726,3.8237305,3
30840995396233,-0.55034924,9.107083,3.8237305,3
30840997775139,-0.55034924,9.126225,3.818945,3
30841000154046,-0.5312066,9.107083,3.818945,3
30841002532952,-0.46899325,9.107083,3.8093736,3
30841004911910,-0.44027936,9.097511,3.7998023,3
30841007290816,-0.37328035,9.102298,3.7854455,3
30841009669723,-0.34456646,9.107083,3.7854455,3
30841012048629,-0.32542387,9.107083,3.7806597,3
30841014427535,-0.29192436,9.097511,3.7950168,3
30841016806441,-0.25842485,9.107083,3.804588,3
30841019185348,-0.22492532,9.08794,3.804588,3
30841021564306,-0.22971097,9.068798,3.8093736,3
30841023943212,-0.22971097,9.068798,3.7998023,3
30841026322119,-0.23928227,9.078369,3.7950168,3
30841028701025,-0.2632105,9.078369,3.7950168,3
30841031079931,-0.28235307,9.08794,3.7950168,3
30841033458837,-0.32063824,9.092726,3.7854455,3
30841035837796,-0.35413775,9.083155,3.7806597,3
30841038216702,-0.3924229,9.097511,3.7806597,3
30841040595608,-0.44506502,9.083155,3.7854455,3
30841042974514,-0.47377887,9.092726,3.7806597,3
30841045353421,-0.5024927,9.111869,3.7806597,3
30841047732327,-0.526421,9.102298,3.7854455,3
30841050111285,-0.53599226,9.116654,3.7854455,3
30841052490191,-0.51206404,9.107083,3.8093736,3
30841054869098,-0.47377887,9.12144,3.7950168,3
30841057248004,-0.45942193,9.107083,3.790231,3
30841059626910,-0.44506502,9.12144,3.7710886,3
30841062005816,-0.40677986,9.126225,3.790231,3
30841064384775,-0.3397808,9.131011,3.7854455,3
30841066763681,-0.29671,9.126225,3.7854455,3
30841069142587,-0.28235307,9.111869,3.7806597,3
30841071521494,-0.2632105,9.107083,3.751946,3
30841073900400,-0.23928227,9.102298,3.737589,3
30841076279306,-0.23928227,9.107083,3.7471602,3
30841078658264,-0.2536392,9.08794,3.737589,3
30841081037171,-0.26799613,9.102298,3.7567315,3
30841083416077,-0.28713873,9.097511,3.7710886,3
30841085794983,-0.3062813,9.097511,3.7758741,3
30841088173889,-0.31585258,9.126225,3.7567315,3
30841090552796,-0.3397808,9.111869,3.7615173,3
30841092931754,-0.3589234,9.116654,3.7567315,3
30841095310660,-0.38763726,9.116654,3.7423747,3
30841097689566,-0.4019942,9.116654,3.737589,3
30841100068473,-0.42592242,9.111869,3.7423747,3
30841102447379,-0.41635114,9.116654,3.7328033,3
30841104826285,-0.3924229,9.126225,3.7328033,3
30841107205244,-0.38763726,9.150154,3.7184465,3
30841109584150,-0.37806597,9.159725,3.7136607,3
30841111963056,-0.35413775,9.135797,3.7280176,3
30841114341962,-0.32063824,9.126225,3.7328033,3
30841116720869,-0.28713873,9.135797,3.7280176,3
30841119099775,-0.25842485,9.150154,3.7280176,3
30841121478681,-0.23449662,9.135797,3.737589,3
30841123857639,-0.22971097,9.131011,3.7280176,3
30841126236546,-0.21535404,9.135797,3.7136607,3
30841128615452,-0.22971097,9.131011,3.7136607,3
30841130994358,-0.22013968,9.135797,3.7136607,3
30841133373264,-0.23928227,9.12144,3.694518,3
30841135752171,-0.25842485,9.12144,3.694518,3
30841138131129,-0.29671,9.131011,3.694518,3
30841140510035,-0.33020952,9.116654,3.694518,3
30841142888941,-0.37328035,9.12144,3.7040894,3
30841145267848,-0.4019942,9.131011,3.694518,3
30841147646754,-0.44027936,9.135797,3.694518,3
30841150025660,-0.44985065,9.135797,3.6897326,3
30841152404619,-0.4354937,9.116654,3.6993039,3
30841154783525,-0.43070808,9.126225,3.6993039,3
30841157162431,-0.44027936,9.135797,3.7040894,3
30841159541337,-0.44506502,9.131011,3.7136607,3
30841161920244,-0.41156548,9.159725,3.6993039,3
30841164299150,-0.37806597,9.15494,3.723232,3
30841166678108,-0.35413775,9.140582,3.723232,3
30841169057014,-0.31585258,9.126225,3.7040894,3
30841171435921,-0.31106696,9.140582,3.723232,3
30841173814827,-0.27756742,9.140582,3.694518,3
30841176193733,-0.2536392,9.12144,3.6897326,3
30841178572639,-0.24885355,9.135797,3.6897326,3
30841180951546,-0.2440679,9.12144,3.7040894,3
30841183330504,-0.2440679,9.126225,3.7280176,3
30841185709410,-0.2632105,9.131011,3.7280176,3
30841188088316,-0.26799613,9.140582,3.723232,3
30841190467223,-0.29192436,9.150154,3.723232,3
30841192846129,-0.31585258,9.145369,3.7280176,3
30841195225035,-0.3397808,9.135797,3.7280176,3
30841197603994,-0.34456646,9.12144,3.7328033,3
30841199982900,-0.35413775,9.135797,3.7328033,3
30841202361806,-0.38285163,9.12144,3.7280176,3
30841204740712,-0.40677986,9.12144,3.7328033,3
30841207119566,-0.41635114,9.116654,3.7471602,3
30841209498525,-0.42592242,9.111869,3.7423747,3
30841211877483,-0.42592242,9.12144,3.7615173,3
30841214256389,-0.41156548,9.111869,3.7758741,3
30841216635296,-0.3684947,9.107083,3.7854455,3
30841219014202,-0.33020952,9.12144,3.790231,3
30841221393108,-0.33499518,9.12144,3.7854455,3
30841223772014,-0.30149564,9.107083,3.7806597,3
30841226150973,-0.2727818,9.12144,3.7998023,3
30841228529879,-0.25842485,9.12144,3.804588,3
30841230908785,-0.21535404,9.092726,3.7998023,3
30841233287691,-0.20578274,9.073584,3.7854455,3
30841235666598,-0.18664017,9.092726,3.7806597,3
30841238045504,-0.21535404,9.097511,3.7806597,3
30841240424462,-0.23449662,9.107083,3.8093736,3
30841242803369,-0.22492532,9.097511,3.8093736,3
30841245182275,-0.22971097,9.083155,3.8093736,3
30841247561181,-0.2632105,9.092726,3.8237305,3
30841249940087,-0.28713873,9.092726,3.8333018,3
30841252318994,-0.33020952,9.073584,3.818945,3
30841254697900,-0.3493521,9.073584,3.8237305,3
30841257076858,-0.35413775,9.059227,3.8380876,3
30841259455764,-0.38285163,9.0544405,3.8285162,3
30841261834671,-0.3924229,9.059227,3.8333018,3
30841264213577,-0.3924229,9.068798,3.8476589,3
30841266592483,-0.39720857,9.0544405,3.8380876,3
30841268971337,-0.40677986,9.044869,3.8476589,3
30841271350348,-0.37806597,9.040084,3.8572302,3
30841273729254,-0.35413775,9.059227,3.8524444,3
30841276108160,-0.33020952,9.0544405,3.8763726,3
30841278487066,-0.3062813,9.073584,3.885944,3
30841280865973,-0.2727818,9.064013,3.8572302,3
30841283244879,-0.2632105,9.0544405,3.8668015,3
30841285623837,-0.2536392,9.073584,3.8668015,3
30841288002744,-0.23449662,9.092726,3.842873,3
30841290381650,-0.22971097,9.08794,3.8333018,3
30841292760556,-0.22013968,9.092726,3.8333018,3
30841295139462,-0.23449662,9.092726,3.818945,3
30841297518369,-0.23449662,9.092726,3.8333018,3
30841299897327,-0.27756742,9.107083,3.8380876,3
30841302276233,-0.31585258,9.116654,3.8285162,3
30841304655139,-0.33020952,9.102298,3.804588,3
30841307034046,-0.34456646,9.092726,3.8237305,3
30841309412952,-0.35413775,9.097511,3.8237305,3
30841311791858,-0.35413775,9.083155,3.8093736,3
30841314170816,-0.36370903,9.083155,3.804588,3
30841316549723,-0.37328035,9.078369,3.8093736,3
30841318928629,-0.37806597,9.08794,3.7950168,3
30841321307535,-0.3684947,9.107083,3.7998023,3
30841323686441,-0.35413775,9.126225,3.8093736,3
30841326065348,-0.3493521,9.111869,3.8093736,3
30841328444254,-0.33020952,9.116654,3.790231,3
30841330823212,-0.3062813,9.12144,3.8093736,3
30841333202119,-0.28713873,9.135797,3.8141594,3
30841335581025,-0.28713873,9.140582,3.8141594,3
30841337959931,-0.23928227,9.135797,3.7758741,3
30841340338837,-0.22492532,9.159725,3.7710886,3
30841342717796,-0.22013968,9.169296,3.7567315,3
30841345096702,-0.22013968,9.15494,3.7328033,3
30841347475608,-0.20578274,9.159725,3.7088752,3
30841349854514,-0.2009971,9.159725,3.723232,3
30841352233421,-0.2105684,9.164511,3.7136607,3
30841354612327,-0.22971097,9.159725,3.7184465,3
30841356991233,-0.22971097,9.15494,3.723232,3
30841359370191,-0.2440679,9.145369,3.6993039,3
30841361749098,-0.26799613,9.145369,3.7136607,3
30841364128004,-0.26799613,9.140582,3.7136607,3
30841366506910,-0.28713873,9.12144,3.7040894,3
30841368885816,-0.3062813,9.126225,3.694518,3
30841371264723,-0.3062813,9.102298,3.6897326,3
30841373643681,-0.29192436,9.049655,3.6466618,3
30841376022587,-0.2440679,8.997013,3.603591,3
30841378401494,-0.21535404,9.025727,3.5413775,3
30841380780400,-0.18185452,9.030513,3.455236,3
30841383159306,-0.17228323,9.073584,3.4456646,3
30841385538212,-0.124426775,9.174082,3.5605202,3
30841387917119,-0.12921242,9.265009,3.7280176,3
30841390296077,-0.11006984,9.312865,3.8285162,3
30841392674983,-0.14356937,9.360723,3.7710886,3
30841395053889,-0.12921242,9.4229355,3.5892339,3
30841397432796,-0.13399807,9.427721,3.4456646,3
30841399811702,-0.15792629,9.370294,3.4217365,3
30841402190608,-0.17706887,9.332008,3.5365918,3
30841404569566,-0.15792629,9.303294,3.6227336,3
30841406948473,-0.2009971,9.2793665,3.6514473,3
30841409327379,-0.2009971,9.265009,3.5557344,3
30841411706285,-0.20578274,9.241081,3.4887354,3
30841414085191,-0.18185452,9.183653,3.4408789,3
30841416464150,-0.19142582,9.159725,3.4648073,3
30841418843056,-0.16271193,9.116654,3.546163,3
30841421221962,-0.17706887,9.049655,3.6227336,3
30841423600869,-0.16271193,9.025727,3.67059,3
30841425979775,-0.124426775,9.035298,3.7136607,3
30841428358681,-0.10049855,9.035298,3.7088752,3
30841430737535,-0.076570325,9.064013,3.7040894,3
30841433116546,-0.038285162,9.08794,3.7088752,3
30841435495452,0.014356935,9.116654,3.7280176,3
30841437874358,0.02871387,9.126225,3.7615173,3
30841440253264,0.019142581,9.135797,3.7998023,3
30841442632171,0.009571291,9.164511,3.8141594,3
30841445011077,-0.0047856453,9.193225,3.7806597,3
30841447390035,-0.014356935,9.202796,3.7471602,3
30841449768941,-0.07178468,9.2075815,3.7615173,3
30841452147848,-0.11485548,9.19801,3.8524444,3
30841454526754,-0.17706887,9.159725,3.952943,3
30841456905608,-0.2536392,9.140582,4.048656,3
30841459284566,-0.34456646,9.097511,4.0869412,3
30841461663473,-0.4019942,9.083155,4.024728,3
30841464042431,-0.44506502,9.073584,3.9577286,3
30841466421337,-0.5024927,9.0544405,3.9146578,3
30841468800244,-0.55513483,9.035298,3.9625144,3
30841471179150,-0.57427746,9.020942,4.034299,3
30841473558056,-0.57906306,8.977871,4.034299,3
30841475936962,-0.55513483,8.9826565,3.991228,3
30841478315921,-0.5407779,8.987442,3.900301,3
30841480694827,-0.47856453,8.9826565,3.8476589,3
30841483073733,-0.40677986,8.977871,3.8333018,3
30841485452639,-0.3684947,8.997013,3.900301,3
30841487831546,-0.35413775,8.968299,3.938586,3
30841490210452,-0.28713873,8.977871,3.9338005,3
30841492589358,-0.24885355,8.968299,3.8955152,3
30841494968316,-0.22492532,9.006584,3.8141594,3
30841497347223,-0.16749759,9.030513,3.7806597,3
30841499726129,-0.15314065,9.044869,3.7806597,3
30841502105035,-0.15792629,9.064013,3.790231,3
30841504483941,-0.148355,9.0544405,3.804588,3
30841506862900,-0.19142582,9.092726,3.7950168,3
30841509241806,-0.2440679,9.116654,3.7663028,3
30841511620712,-0.26799613,9.116654,3.6993039,3
30841513999619,-0.29671,9.12144,3.6514473,3
30841516378525,-0.3397808,9.126225,3.6179478,3
30841518757431,-0.3684947,9.107083,3.603591,3
30841521136389,-0.37806597,9.145369,3.6227336,3
30841523515244,-0.4211368,9.140582,3.6466618,3
30841525894202,-0.43070808,9.131011,3.641876,3
30841528273108,-0.4211368,9.140582,3.5892339,3
30841530652014,-0.4211368,9.159725,3.5270207,3
30841533030921,-0.3924229,9.150154,3.4839497,3
30841535409827,-0.33499518,9.150154,3.4695928,3
30841537788785,-0.29192436,9.150154,3.4648073,3
30841540167691,-0.24885355,9.193225,3.4648073,3
30841542546598,-0.19621146,9.226724,3.4360933,3
30841544925504,-0.13878371,9.241081,3.4073794,3
30841547304410,-0.09571291,9.260223,3.4169507,3
30841549683316,-0.062213387,9.312865,3.4360933,3
30841552062275,-0.06699903,9.341579,3.4408789,3
30841554441181,-0.062213387,9.341579,3.4695928,3
30841556820087,-0.09092726,9.360723,3.493521,3
30841559198941,-0.12921242,9.346365,3.5030923,3
30841561577900,-0.17706887,9.327223,3.5413775,3
30841563956806,-0.22492532,9.327223,3.5174494,3
30841566335712,-0.2536392,9.312865,3.5174494,3
30841568714671,-0.28235307,9.312865,3.5700915,3
30841571093577,-0.34456646,9.293723,3.6466618,3
30841573472483,-0.3684947,9.245867,3.694518,3
30841575851389,-0.38763726,9.212367,3.694518,3
30841578230296,-0.41635114,9.19801,3.6179478,3
30841580609254,-0.46899325,9.3511505,3.7471602,3
30841582988160,-0.44985065,9.346365,3.7806597,3
30841585367066,-0.53599226,9.312865,3.737589,3
30841587745973,-0.38285163,9.312865,3.5700915,3
30841590124879,-0.34456646,9.365508,3.507878,3
30841592503785,-0.2009971,9.303294,3.5892339,3
30841594882691,-0.13878371,9.212367,3.7328033,3
30841597261650,0.033499517,9.174082,3.737589,3
30841599640556,0.07178468,9.174082,3.7280176,3
30841602019462,0.22013968,9.044869,3.6897326,3
30841604398369,0.27756742,9.020942,3.7567315,3
30841606777275,0.28235307,8.939586,3.8285162,3
30841609156181,0.23928227,8.886943,3.938586,3
30841611535087,0.2105684,8.829515,3.9625144,3
30841613914046,0.06699903,8.819944,3.9577286,3
30841616292952,-0.076570325,8.815159,3.900301,3
30841618671858,-0.24885355,8.819944,3.8572302,3
30841621050764,-0.4354937,8.85823,3.8476589,3
30841623429671,-0.60777694,8.906086,3.900301,3
30841625808577,-0.7513463,8.953942,3.9338005,3
30841628187535,-0.8805587,9.006584,3.9433718,3
30841630566441,-0.971486,9.073584,3.9864426,3
30841632945348,-0.971486,9.092726,4.0390844,3
30841635324254,-0.94755775,9.092726,4.0007997,3
30841637703160,-0.85184485,9.12144,3.900301,3
30841640082014,-0.7369894,9.150154,3.8093736,3
30841642461025,-0.55034924,9.12144,3.7471602,3
30841644839931,-0.35413775,9.12144,3.7806597,3
30841647218837,-0.124426775,9.126225,3.8763726,3
30841649597744,0.0526421,9.08794,3.9864426,3
30841651976598,0.26799613,9.035298,4.0438704,3
30841654355556,0.39720857,9.035298,4.0677986,3
30841656734514,0.4977071,9.073584,4.005585,3
30841659113421,0.55034924,9.126225,3.9146578,3
30841661492327,0.5599205,9.202796,3.818945,3
30841663871233,0.5407779,9.159725,3.7040894,3
30841666250139,0.42592242,9.145369,3.8141594,3
30841668629046,0.3062813,9.135797,4.0965123,3
30841671007952,0.18664017,9.097511,4.354937,3
30841673386910,0.1052842,9.035298,4.1587257,3
30841675765816,-0.10049855,9.12144,3.67059,3
30841678144723,-0.15314065,9.174082,3.1728828,3
30841680523629,-0.22013968,9.221938,3.1872396,3
30841682902535,-0.32063824,9.188439,3.5413775,3
30841685281441,-0.4211368,9.169296,4.019942,3
30841687660400,-0.44506502,9.08794,4.173083,3
30841690039306,-0.4211368,9.131011,4.0773697,3
30841692418212,-0.37806597,9.15494,3.7423747,3
30841694797119,-0.27756742,9.174082,3.426522,3
30841697176025,-0.16271193,9.059227,3.2542388,3
30841699554931,-0.14356937,9.064013,3.5270207,3
30841701933837,-0.0526421,9.059227,4.091727,3
30841704312796,-0.043070808,8.977871,4.388437,3
30841706691702,0.033499517,8.882157,4.1108694,3
30841709070608,-0.02871387,9.020942,3.6227336,3
30841711449514,-0.06699903,9.178867,3.493521,3
30841713828421,-0.12921242,8.9826565,3.5030923,3
30841716207327,-0.2105684,9.001799,3.7088752,3
30841718586285,-0.34456646,9.0544405,3.9673,3
30841720965191,-0.47856453,8.9108715,4.1635113,3
30841723344098,-0.5694918,8.987442,4.254439,3
30841725723004,-0.74177504,9.145369,4.0295134,3
30841728101910,-0.7465607,9.073584,3.5940197,3
30841730480816,-0.79441714,9.12144,3.4313076,3
30841732859723,-0.8566305,9.2793665,3.737589,3
30841735238681,-0.79441714,9.188439,4.1922255,3
30841737617587,-0.7752745,9.12144,4.426722,3
30841739996494,-0.7513463,9.159725,4.273581,3
30841742375400,-0.5886344,9.135797,3.871587,3
30841744754306,-0.4354937,9.097511,3.6658044,3
30841747133264,-0.3589234,9.068798,3.7471602,3
30841749512171,-0.18185452,8.987442,3.9768713,3
30841751891077,-0.062213387,8.963513,4.273581,3
30841754269983,0.038285162,8.896515,4.2975097,3
30841756648889,0.09571291,8.973084,4.211368,3
30841759027796,0.22492532,9.0544405,4.0677986,3
30841761406702,0.26799613,9.001799,3.7663028,3
30841763785660,0.2105684,9.145369,3.6179478,3
30841766164566,0.12921242,9.2075815,3.6466618,3
30841768543473,0.09571291,9.078369,3.7710886,3
30841770922379,-0.05742774,9.178867,4.0773697,3
30841773301285,-0.19142582,9.150154,4.139583,3
30841775680191,-0.3062813,9.092726,3.8955152,3
30841778059098,-0.43070808,9.135797,3.5796626,3
30841780438056,-0.5312066,9.19801,3.4839497,3
30841782816962,-0.60777694,9.126225,3.5605202,3
30841785195869,-0.6843473,9.097511,3.790231,3
30841787574775,-0.7704889,9.092726,4.0103707,3
30841789953681,-0.7513463,9.064013,4.1491547,3
30841792332587,-0.70348984,9.025727,4.034299,3
30841794711546,-0.6125626,9.016156,3.7567315,3
30841797090452,-0.5168497,9.040084,3.5653057,3
30841799469358,-0.37806597,9.020942,3.522235,3
30841801848264,-0.20578274,9.025727,3.641876,3
30841804227171,-0.019142581,9.025727,3.7758741,3
30841806606077,0.17706887,9.035298,3.818945,3
30841808985035,0.35413775,9.059227,3.7280176,3
30841811363889,0.4833502,9.145369,3.546163,3
30841813742848,0.6269195,9.183653,3.3930225,3
30841816121754,0.6843473,9.188439,3.3930225,3
30841818500660,0.6939186,9.188439,3.574877,3
30841820879566,0.6987042,9.178867,3.751946,3
30841823258473,0.5982057,9.15494,3.8524444,3
30841825637431,0.46899325,9.145369,3.842873,3
30841828016337,0.32063824,9.159725,3.737589,3
30841830395244,0.17228323,9.15494,3.6370904,3
30841832774150,-0.062213387,9.174082,3.6083765,3
30841835153056,-0.30149564,9.183653,3.6658044,3
30841837531962,-0.5024927,9.188439,3.8093736,3
30841839910921,-0.7369894,9.188439,3.9146578,3
30841842289827,-0.9379865,9.202796,3.9290147,3
30841844668733,-1.0480564,9.188439,3.8668015,3
30841847047639,-1.1246266,9.131011,3.804588,3
30841849426546,-1.1485549,9.107083,3.7710886,3
30841851805452,-1.0863415,9.097511,3.8333018,3
30841854184410,-1.0193424,9.044869,3.9194436,3
30841856563316,-0.8997013,9.016156,3.952943,3
30841858942223,-0.70348984,9.030513,3.9290147,3
30841861321129,-0.49292147,9.073584,3.7998023,3
30841863700035,-0.28235307,9.150154,3.6849468,3
30841866078941,-0.086141616,9.140582,3.6227336,3
30841868457848,0.10049855,9.140582,3.67059,3
30841870836754,0.25842485,9.140582,3.7663028,3
30841873215712,0.38285163,9.111869,3.871587,3
30841875594619,0.4881358,9.083155,3.9050865,3
30841877973525,0.53599226,9.111869,3.8763726,3
30841880352431,0.5312066,9.12144,3.7806597,3
30841882731337,0.4977071,9.102298,3.7040894,3
30841885110296,0.4019942,9.12144,3.7567315,3
30841887489202,0.28235307,9.116654,3.818945,3
30841889868108,0.10049855,9.092726,3.8907297,3
30841892247014,-0.043070808,9.092726,3.8907297,3
30841894625921,-0.22013968,9.111869,3.8620157,3
30841897004827,-0.40677986,9.116654,3.7950168,3
30841899383733,-0.5694918,9.111869,3.7567315,3
30841901762691,-0.6939186,9.078369,3.790231,3
30841904141598,-0.8039884,9.083155,3.842873,3
30841906520504,-0.8757731,9.049655,3.9050865,3
30841908899358,-0.8853444,9.01137,3.9194436,3
30841911278316,-0.85184485,9.016156,3.885944,3
30841913657223,-0.7800602,9.040084,3.8285162,3
30841916036181,-0.65084773,9.068798,3.7615173,3
30841918415087,-0.47377887,9.08794,3.6993039,3
30841920793994,-0.33020952,9.078369,3.6993039,3
30841923172900,-0.18185452,9.097511,3.7280176,3
30841925551806,-0.009571291,9.107083,3.790231,3
30841927930660,0.11485548,9.097511,3.8093736,3
30841930309619,0.22492532,9.083155,3.7567315,3
30841932688577,0.31106696,9.102298,3.694518,3
30841935067483,0.3684947,9.126225,3.6370904,3
30841937446389,0.41156548,9.116654,3.6658044,3
30841939825296,0.4019942,9.116654,3.7184465,3
30841942204202,0.3589234,9.135797,3.7423747,3
30841944583108,0.3062813,9.169296,3.7184465,3
30841946962066,0.22492532,9.19801,3.6658044,3
30841949340973,0.15792629,9.221938,3.6275191,3
30841951719879,0.047856454,9.23151,3.656233,3
30841954098785,-0.043070808,9.193225,3.723232,3
30841956477691,-0.15792629,9.193225,3.7567315,3
30841958856598,-0.22971097,9.174082,3.7663028,3
30841961235556,-0.31106696,9.159725,3.7184465,3
30841963614462,-0.38285163,9.174082,3.6753755,3
30841965993369,-0.4211368,9.169296,3.6849468,3
30841968372275,-0.45942193,9.131011,3.6753755,3
30841970750869,-0.44985065,9.126225,3.6993039,3
30841973130087,-0.43070808,9.140582,3.7471602,3
30841975508994,-0.38763726,9.140582,3.7663028,3
30841977887952,-0.34456646,9.131011,3.7854455,3
30841980266858,-0.27756742,9.126225,3.7950168,3
30841982645764,-0.2009971,9.116654,3.8141594,3
30841985024671,-0.148355,9.097511,3.8333018,3
30841987403577,-0.1052842,9.083155,3.8572302,3
30841989782483,-0.0526421,9.068798,3.8907297,3
30841992161389,-0.014356935,9.059227,3.8668015,3
30841994540348,0.0047856453,9.049655,3.8572302,3
30841996919254,-0.0047856453,9.059227,3.818945,3
30841999298160,-0.0047856453,9.092726,3.790231,3
30842001677066,-0.009571291,9.08794,3.7471602,3
30842004055973,-0.023928227,9.078369,3.7471602,3
30842006434879,-0.07178468,9.073584,3.7663028,3
30842008813785,-0.12921242,9.097511,3.790231,3
30842011192744,-0.19621146,9.12144,3.751946,3
30842013571650,-0.23928227,9.131011,3.7280176,3
30842015950556,-0.29192436,9.159725,3.7280176,3
30842018329410,-0.37328035,9.159725,3.7471602,3
30842020708369,-0.41635114,9.164511,3.7854455,3
30842023087275,-0.4546363,9.183653,3.8141594,3
30842025466233,-0.5168497,9.188439,3.8237305,3
30842027845139,-0.55034924,9.178867,3.804588,3
30842030224046,-0.57427746,9.178867,3.7806597,3
30842032602952,-0.57427746,9.164511,3.7663028,3
30842034981858,-0.57906306,9.183653,3.7471602,3
30842037360764,-0.55034924,9.164511,3.7471602,3
30842039739723,-0.52163535,9.164511,3.7567315,3
30842042118629,-0.4881358,9.188439,3.7998023,3
30842044497535,-0.44506502,9.159725,3.8237305,3
30842046876441,-0.37806597,9.126225,3.842873,3
30842049255348,-0.33020952,9.126225,3.8093736,3
30842051634254,-0.2632105,9.12144,3.804588,3
30842054013160,-0.2105684,9.126225,3.804588,3
30842056392119,-0.15792629,9.107083,3.818945,3
30842058771025,-0.11006984,9.111869,3.8524444,3
30842061149931,-0.07178468,9.107083,3.8668015,3
30842063528837,-0.019142581,9.097511,3.8524444,3
30842065907744,-0.02871387,9.08794,3.8333018,3
30842068286650,-0.033499517,9.083155,3.8285162,3
30842070665556,-0.02871387,9.073584,3.8668015,3
30842073044514,-0.023928227,9.097511,3.885944,3
30842075423421,-0.038285162,9.092726,3.885944,3
30842077802327,-0.08135597,9.092726,3.8668015,3
30842080181233,-0.11964113,9.073584,3.8620157,3
30842082560139,-0.12921242,9.08794,3.8476589,3
30842084939046,-0.15314065,9.111869,3.8237305,3
30842087317952,-0.17706887,9.116654,3.8141594,3
30842089696910,-0.17228323,9.102298,3.8141594,3
30842092075816,-0.19621146,9.092726,3.8093736,3
30842094454723,-0.2105684,9.097511,3.7854455,3
30842096833629,-0.21535404,9.116654,3.7328033,3
30842099212535,-0.21535404,9.111869,3.6658044,3
30842101591494,-0.21535404,9.12144,3.6466618,3
30842103970400,-0.2105684,9.135797,3.6466618,3
30842106349306,-0.2009971,9.15494,3.67059,3
30842108728212,-0.22013968,9.193225,3.694518,3
30842111107119,-0.22492532,9.212367,3.694518,3
30842113486025,-0.22971097,9.217153,3.6801612,3
30842115864983,-0.23928227,9.226724,3.67059,3
30842118243889,-0.27756742,9.236296,3.6753755,3
30842120622796,-0.29192436,9.250652,3.7040894,3
30842123001702,-0.3062813,9.226724,3.7328033,3
30842125380608,-0.33499518,9.202796,3.7471602,3
30842127759514,-0.3493521,9.193225,3.7663028,3
30842130138421,-0.3684947,9.19801,3.7663028,3
30842132517327,-0.38763726,9.159725,3.751946,3
30842134896285,-0.3684947,9.135797,3.7663028,3
30842137275191,-0.33020952,9.102298,3.7950168,3
30842139654098,-0.27756742,9.092726,3.842873,3
30842142033004,-0.22492532,9.073584,3.842873,3
30842144411910,-0.16749759,9.044869,3.8524444,3
30842146790816,-0.086141616,9.025727,3.8620157,3
30842149169775,-0.033499517,8.992228,3.8333018,3
30842151548681,0.023928227,8.997013,3.8333018,3
30842153927587,0.1052842,9.020942,3.8476589,3
30842156306494,0.12921242,9.040084,3.8093736,3
30842158685400,0.14356937,9.025727,3.790231,3
30842161064306,0.148355,9.044869,3.7950168,3
30842163443264,0.1052842,9.064013,3.7663028,3
30842165822171,0.0526421,9.064013,3.751946,3
30842168201077,-0.043070808,9.107083,3.7567315,3
30842170579983,-0.10049855,9.12144,3.751946,3
30842172958889,-0.20578274,9.135797,3.7567315,3
30842175337796,-0.29192436,9.145369,3.7663028,3
30842177716754,-0.38763726,9.126225,3.7854455,3
30842180095660,-0.44027936,9.174082,3.7998023,3
30842182474566,-0.49292147,9.202796,3.7998023,3
30842184853473,-0.5072784,9.202796,3.7998023,3
30842187232379,-0.5312066,9.212367,3.804588,3
30842189611285,-0.5312066,9.221938,3.8380876,3
30842191990244,-0.4881358,9.19801,3.8572302,3
30842194369150,-0.42592242,9.202796,3.8572302,3
30842196748056,-0.36370903,9.188439,3.842873,3
30842199126962,-0.28713873,9.15494,3.8333018,3
30842201505869,-0.21535404,9.145369,3.8572302,3
30842203884775,-0.11964113,9.140582,3.8668015,3
30842206263681,-0.043070808,9.126225,3.804588,3
30842208642587,0.06699903,9.126225,3.7184465,3
30842211021546,0.11485548,9.102298,3.67059,3
30842213400452,0.16271193,9.0544405,3.7040894,3
30842215779358,0.18185452,9.040084,3.842873,3
30842218158264,0.19621146,9.035298,3.9481573,3
30842220537171,0.17706887,9.040084,3.9338005,3
30842222916077,0.1052842,9.073584,3.7950168,3
30842225295035,0.033499517,9.097511,3.67059,3
30842227673941,-0.062213387,9.102298,3.6275191,3
30842230052848,-0.19621146,9.107083,3.656233,3
30842232431754,-0.32063824,9.097511,3.7710886,3
30842234810660,-0.43070808,9.116654,3.8524444,3
30842237189566,-0.5694918,9.097511,3.8237305,3
30842239568473,-0.6795616,9.135797,3.737589,3
30842241947379,-0.75613195,9.193225,3.641876,3
30842244326337,-0.81834537,9.2075815,3.5844483,3
30842246705244,-0.8279166,9.202796,3.6323047,3
30842249084150,-0.83748794,9.193225,3.7184465,3
30842251463056,-0.82313097,9.19801,3.7663028,3
30842253841962,-0.7800602,9.212367,3.7758741,3
30842256220869,-0.6939186,9.2075815,3.6993039,3
30842258599827,-0.61734825,9.2075815,3.6275191,3
30842260978733,-0.5312066,9.212367,3.6083765,3
30842263357639,-0.42592242,9.183653,3.6801612,3
30842265736546,-0.3062813,9.169296,3.7567315,3
30842268115452,-0.23928227,9.150154,3.804588,3
30842270494358,-0.18185452,9.140582,3.7854455,3
30842272873264,-0.16749759,9.15494,3.7088752,3
30842275252223,-0.15792629,9.145369,3.6227336,3
30842277631129,-0.17706887,9.12144,3.5988052,3
30842280010035,-0.18664017,9.131011,3.6323047,3
30842282388941,-0.22013968,9.135797,3.6993039,3
30842284767848,-0.25842485,9.126225,3.723232,3
30842287146754,-0.25842485,9.111869,3.7328033,3
30842289525712,-0.29192436,9.12144,3.7136607,3
30842291904619,-0.31585258,9.140582,3.6801612,3
30842294283525,-0.32063824,9.135797,3.656233,3
30842296662431,-0.3493521,9.15494,3.6753755,3
30842299041337,-0.38285163,9.145369,3.7184465,3
30842301420244,-0.4354937,9.126225,3.7998023,3
30842303799150,-0.4546363,9.064013,3.842873,3
30842306178108,-0.47856453,9.064013,3.8524444,3
30842308557014,-0.4019942,9.049655,3.8333018,3
30842310935921,-0.3062813,9.040084,3.8285162,3
30842313314827,-0.16271193,9.020942,3.8285162,3
30842315693733,-0.0047856453,9.044869,3.8285162,3
30842318072639,0.16749759,9.049655,3.8141594,3
30842320451546,0.29192436,9.020942,3.7567315,3
30842322830504,0.3589234,9.08794,3.7280176,3
30842325209410,0.42592242,9.12144,3.723232,3
30842327588316,0.38763726,9.107083,3.7710886,3
30842329967223,0.32542387,9.08794,3.7998023,3
30842332346129,0.23928227,9.102298,3.790231,3
30842334725035,0.14356937,9.111869,3.7758741,3
30842337103941,0.062213387,9.107083,3.7280176,3
30842339482848,-0.019142581,9.236296,3.8476589,3
30842341861806,-0.009571291,9.317652,3.885944,3
30842344240712,0.023928227,9.202796,3.3355947,3
30842346619619,0.16271193,9.332008,2.7182465,3
30842348998525,0.28235307,9.3511505,2.507678,3
30842351377483,0.2727818,9.126225,3.1633115,3
30842353756337,0.33499518,8.863015,4.278367,3
30842356135296,0.38763726,8.949157,5.0105705,3
30842358514202,0.45942193,9.035298,4.6229334,3
30842360893108,0.51206404,9.145369,3.5270207,3
30842363271962,0.59342,9.250652,2.5459633,3
30842365650921,0.60777694,9.23151,2.4885356,3
30842368029879,0.5694918,9.064013,3.3499517,3
30842370408785,0.6029913,8.977871,4.4410787,3
30842372787691,0.57906306,9.001799,4.8861437,3
30842375166598,0.6125626,9.020942,4.3836513,3
30842377545504,0.6221339,9.102298,3.4313076,3
30842379924410,0.6556334,9.164511,2.751746,3
30842382303316,0.6269195,9.150154,2.8426733,3
30842384682223,0.5024927,9.12144,3.6323047,3
30842387061181,0.31106696,9.068798,4.517649,3
30842389440087,0.16271193,9.01137,4.8861437,3
30842391818994,0.07178468,9.025727,4.56072,3
30842394197900,-0.02871387,9.12144,3.8524444,3
30842396576806,-0.13878371,9.19801,3.3212378,3
30842398955712,-0.19621146,9.19801,3.3882368,3
30842401334671,-0.2536392,9.111869,3.9481573,3
30842403713577,-0.28235307,9.078369,4.56072,3
30842406092483,-0.2105684,9.049655,4.7808595,3
30842408471389,-0.11485548,9.073584,4.4554358,3
30842410850296,-0.014356935,9.150154,3.8668015,3
30842413229202,0.11485548,9.212367,3.3882368,3
30842415608108,0.19142582,9.2075815,3.3020952,3
30842417987066,0.2727818,9.169296,3.6179478,3
30842420365973,0.32063824,9.116654,4.0438704,3
30842422744879,0.31585258,9.08794,4.249653,3
30842425123785,0.36370903,9.102298,4.034299,3
30842427502691,0.37806597,9.150154,3.5940197,3
30842429881598,0.36370903,9.12144,3.2350962,3
30842432260504,0.29671,9.145369,3.1920254,3
30842434639462,0.2727818,9.083155,3.4648073,3
30842437018369,0.23449662,9.064013,3.8333018,3
30842439397275,0.19142582,9.044869,4.0151563,3
30842441776181,0.14356937,9.102298,3.8955152,3
30842444155087,0.13399807,9.126225,3.5844483,3
30842446534046,0.11485548,9.135797,3.306881,3
30842448912952,0.11964113,9.159725,3.2542388,3
30842451291858,0.10049855,9.150154,3.4600215,3
30842453670764,0.086141616,9.08794,3.7663028,3
30842456049671,0.06699903,9.078369,3.938586,3
30842458428577,0.07178468,9.111869,3.9098723,3
30842460807483,0.076570325,9.102298,3.7088752,3
30842463186441,0.09571291,9.111869,3.522235,3
30842465565348,0.08135597,9.140582,3.4839497,3
30842467944254,0.11485548,9.135797,3.6227336,3
30842470323160,0.15792629,9.064013,3.8572302,3
30842472702066,0.15314065,9.044869,3.9960139,3
30842475080973,0.17228323,9.078369,3.9577286,3
30842477459879,0.21535404,9.116654,3.7710886,3
30842479838837,0.2536392,9.126225,3.6179478,3
30842482217744,0.28235307,9.145369,3.5700915,3
30842484596650,0.29192436,9.12144,3.67059,3
30842486975556,0.28235307,9.083155,3.8572302,3
30842489354462,0.2536392,9.064013,3.9768713,3
30842491733369,0.19621146,9.08794,3.9625144,3
30842494112275,0.13878371,9.08794,3.8524444,3
30842496491233,0.062213387,9.116654,3.7280176,3
30842498870139,-0.0047856453,9.140582,3.67059,3
30842501249046,-0.1052842,9.169296,3.7567315,3
30842503627952,-0.16271193,9.174082,3.8763726,3
30842506006858,-0.19621146,9.164511,3.9433718,3
30842508385764,-0.24885355,9.15494,3.9577286,3
30842510764671,-0.2105684,9.164511,3.8572302,3
30842513143629,-0.17706887,9.183653,3.7471602,3
30842515522535,-0.11485548,9.188439,3.7184465,3
30842517901441,-0.02871387,9.15494,3.7710886,3
30842520280348,0.043070808,9.140582,3.8955152,3
30842522659254,0.124426775,9.116654,3.9625144,3
30842525038160,0.21535404,9.131011,3.952943,3
30842527417066,0.2727818,9.135797,3.8668015,3
30842529796025,0.34456646,9.140582,3.7663028,3
30842532174931,0.41635114,9.145369,3.694518,3
30842534553837,0.4642076,9.15494,3.723232,3
30842536932744,0.49292147,9.131011,3.7806597,3
30842539311650,0.5072784,9.116654,3.8524444,3
30842541690556,0.47856453,9.135797,3.8572302,3
30842544069462,0.4546363,9.092726,3.790231,3
30842546448421,0.4354937,9.12144,3.723232,3
30842548827327,0.39720857,9.107083,3.694518,3
30842551206233,0.33020952,9.073584,3.7423747,3
30842553585139,0.2632105,9.078369,3.804588,3
30842555964046,0.2105684,9.073584,3.871587,3
30842558342952,0.16271193,9.092726,3.8572302,3
30842560721910,0.13399807,9.073584,3.8285162,3
30842563100816,0.11964113,9.116654,3.7663028,3
30842565479723,0.11485548,9.15494,3.723232,3
30842567858629,0.15314065,9.150154,3.737589,3
30842570237535,0.17228323,9.12144,3.7758741,3
30842572616441,0.22013968,9.126225,3.804588,3
30842574995348,0.29192436,9.150154,3.804588,3
30842577374306,0.34456646,9.145369,3.751946,3
30842579753212,0.3924229,9.12144,3.7040894,3
30842582132119,0.4211368,9.145369,3.6658044,3
30842584511025,0.44027936,9.15494,3.6897326,3
30842586889931,0.42592242,9.150154,3.737589,3
30842589268837,0.3924229,9.135797,3.7854455,3
30842591647744,0.32542387,9.12144,3.7854455,3
30842594026702,0.2727818,9.092726,3.7280176,3
30842596405608,0.20578274,9.131011,3.7088752,3
30842598784514,0.13399807,9.12144,3.7040894,3
30842601163421,0.11485548,9.102298,3.7423747,3
30842603542327,0.07178468,9.102298,3.790231,3
30842605921233,0.043070808,9.097511,3.8093736,3
30842608300139,0.019142581,9.068798,3.804588,3
30842610679046,0.014356935,9.073584,3.7710886,3
30842613058004,0.038285162,9.102298,3.7328033,3
30842615436910,0.043070808,9.097511,3.6993039,3
30842617815816,0.0526421,9.102298,3.7184465,3
30842620194723,0.062213387,9.150154,3.7471602,3
30842622573629,0.076570325,9.126225,3.751946,3
30842624952535,0.043070808,9.140582,3.751946,3
30842627331494,0.076570325,9.131011,3.7471602,3
30842629710400,0.09571291,9.150154,3.737589,3
30842632089306,0.10049855,9.159725,3.7423747,3
30842634468212,0.09571291,9.145369,3.7663028,3
30842636847119,0.1052842,9.140582,3.7998023,3
30842639226025,0.10049855,9.135797,3.8285162,3
30842641604931,0.124426775,9.12144,3.8380876,3
30842643983889,0.13878371,9.140582,3.8285162,3
30842646362796,0.15792629,9.145369,3.804588,3
30842648741702,0.17228323,9.135797,3.790231,3
30842651120608,0.17706887,9.107083,3.7710886,3
30842653499514,0.19142582,9.092726,3.7710886,3
30842655878421,0.17706887,9.111869,3.7854455,3
30842658257379,0.18185452,9.102298,3.804588,3
30842660636285,0.22013968,9.097511,3.7806597,3
30842663015191,0.2105684,9.08794,3.7423747,3
30842665394098,0.24885355,9.097511,3.7184465,3
30842667773004,0.27756742,9.08794,3.7136607,3
30842670151910,0.3062813,9.078369,3.7423747,3
30842672530869,0.33020952,9.073584,3.751946,3
30842674909775,0.3493521,9.08794,3.7663028,3
30842677288681,0.3684947,9.083155,3.723232,3
30842679667587,0.33020952,9.097511,3.7136607,3
30842682046494,0.31585258,9.107083,3.6993039,3
30842684425400,0.29671,9.12144,3.7136607,3
30842686804306,0.25842485,9.135797,3.7423747,3
30842689183264,0.22013968,9.126225,3.7758741,3
30842691562171,0.2009971,9.131011,3.7663028,3
30842693941077,0.18664017,9.131011,3.7423747,3
30842696319983,0.17706887,9.145369,3.7040894,3
30842698698889,0.16749759,9.159725,3.6993039,3
30842701077796,0.17228323,9.140582,3.7088752,3
30842703456702,0.18185452,9.131011,3.7280176,3
30842705835660,0.16749759,9.135797,3.7567315,3
30842708214566,0.15314065,9.126225,3.7615173,3
30842710593473,0.15792629,9.135797,3.737589,3
30842712972379,0.17228323,9.140582,3.7184465,3
30842715351285,0.18185452,9.116654,3.7471602,3
30842717730191,0.16749759,9.097511,3.7567315,3
30842720109098,0.15314065,9.092726,3.7950168,3
30842722488056,0.16271193,9.08794,3.7998023,3
30842724866962,0.16271193,9.078369,3.8141594,3
30842727245869,0.15792629,9.064013,3.8285162,3
30842729624775,0.2009971,9.073584,3.818945,3
30842732003681,0.2105684,9.068798,3.804588,3
30842734382587,0.2105684,9.044869,3.8285162,3
30842736761494,0.25842485,9.059227,3.8572302,3
30842739140452,0.23928227,9.068798,3.8620157,3
30842741519358,0.23449662,9.073584,3.8476589,3
30842743898264,0.20578274,9.083155,3.8285162,3
30842746277171,0.18664017,9.111869,3.7998023,3
30842748656077,0.13399807,9.107083,3.7854455,3
30842751034983,0.09571291,9.107083,3.7998023,3
30842753413889,0.062213387,9.111869,3.8141594,3
30842755792848,0.023928227,9.12144,3.8093736,3
30842758171754,0.0,9.102298,3.790231,3
30842760550660,-0.05742774,9.107083,3.7710886,3
30842762929566,-0.06699903,9.12144,3.7758741,3
30842765308473,-0.0526421,9.126225,3.7663028,3
30842767687379,-0.06699903,9.145369,3.7806597,3
30842770066285,-0.076570325,9.145369,3.790231,3
30842772445244,-0.0526421,9.131011,3.790231,3
30842774824150,-0.0047856453,9.12144,3.7758741,3
30842777203056,0.033499517,9.12144,3.7710886,3
30842779581962,0.0526421,9.111869,3.7423747,3
30842781960869,0.086141616,9.102298,3.737589,3
30842784339775,0.124426775,9.092726,3.723232,3
30842786718681,0.148355,9.097511,3.7088752,3
30842789097587,0.17706887,9.102298,3.7040894,3
30842791476546,0.17706887,9.107083,3.7088752,3
30842793855452,0.16749759,9.092726,3.694518,3
30842796234358,0.15792629,9.078369,3.6849468,3
30842798613264,0.148355,9.078369,3.6897326,3
30842800992171,0.11006984,9.078369,3.6993039,3
30842803371077,0.038285162,9.097511,3.7184465,3
30842805750035,-0.019142581,9.08794,3.7328033,3
30842808128941,-0.06699903,9.111869,3.7328033,3
30842810507848,-0.13878371,9.12144,3.7280176,3
30842812886754,-0.18664017,9.140582,3.7423747,3
30842815265660,-0.21535404,9.15494,3.7423747,3
30842817644566,-0.23928227,9.174082,3.751946,3
30842820023473,-0.24885355,9.174082,3.7806597,3
30842822402431,-0.24885355,9.174082,3.7854455,3
30842824781337,-0.22013968,9.169296,3.804588,3
30842827160244,-0.17228323,9.178867,3.790231,3
30842829539150,-0.08135597,9.178867,3.7806597,3
30842831918056,-0.009571291,9.145369,3.8093736,3
30842834296962,0.038285162,9.126225,3.8285162,3
30842836675869,0.11964113,9.116654,3.8285162,3
30842839054827,0.17228323,9.092726,3.842873,3
30842841433733,0.22492532,9.073584,3.8285162,3
30842843812639,0.23928227,9.064013,3.8333018,3
30842846191546,0.21535404,9.08794,3.8333018,3
30842848570452,0.19621146,9.08794,3.8333018,3
30842850949358,0.17706887,9.102298,3.818945,3
30842853328264,0.11485548,9.073584,3.818945,3
30842855707223,0.062213387,9.08794,3.818945,3
30842858086129,-0.02871387,9.08794,3.818945,3
30842860465035,-0.06699903,9.097511,3.8141594,3
30842862843941,-0.124426775,9.102298,3.8333018,3
30842865222848,-0.18185452,9.126225,3.7998023,3
30842867601754,-0.23449662,9.15494,3.7806597,3
30842869980660,-0.2536392,9.169296,3.7758741,3
30842872359619,-0.27756742,9.164511,3.7758741,3
30842874738525,-0.30149564,9.174082,3.751946,3
30842877117431,-0.28713873,9.174082,3.737589,3
30842879496337,-0.23928227,9.193225,3.723232,3
30842881875244,-0.20578274,9.19801,3.6993039,3
30842884254150,-0.15792629,9.212367,3.67059,3
30842886633004,-0.11485548,9.19801,3.6753755,3
30842889012014,-0.0526421,9.178867,3.6801612,3
30842891390921,0.014356935,9.174082,3.6897326,3
30842893769827,0.08135597,9.150154,3.6993039,3
30842896148733,0.124426775,9.150154,3.7040894,3
30842898527639,0.18185452,9.145369,3.7328033,3
30842900906546,0.18185452,9.131011,3.7136607,3
30842903285452,0.18664017,9.12144,3.723232,3
30842905664358,0.19142582,9.116654,3.7423747,3
30842908043316,0.148355,9.126225,3.7567315,3
30842910422223,0.11006984,9.073584,3.7471602,3
30842912801129,0.062213387,9.097511,3.7615173,3
30842915180035,-0.0047856453,9.078369,3.7423747,3
30842917558941,-0.08135597,9.097511,3.7423747,3
30842919937848,-0.14356937,9.083155,3.7806597,3
30842922316806,-0.19142582,9.08794,3.8141594,3
30842924695712,-0.23449662,9.08794,3.7998023,3
30842927074619,-0.2440679,9.111869,3.804588,3
30842929453525,-0.2727818,9.135797,3.804588,3
30842931832431,-0.2632105,9.145369,3.7998023,3
30842934211337,-0.25842485,9.164511,3.7806597,3
30842936590244,-0.22013968,9.159725,3.7567315,3
30842938969202,-0.20578274,9.169296,3.7423747,3
30842941348108,-0.16749759,9.164511,3.7758741,3
30842943727014,-0.13878371,9.15494,3.7758741,3
30842946105921,-0.10049855,9.178867,3.7758741,3
30842948484775,-0.043070808,9.193225,3.7423747,3
30842950863733,0.014356935,9.174082,3.723232,3
30842953242639,0.076570325,9.145369,3.7423747,3
30842955621598,0.10049855,9.131011,3.7615173,3
30842958000504,0.12921242,9.12144,3.751946,3
30842960379410,0.17228323,9.116654,3.737589,3
30842962758316,0.18185452,9.107083,3.7136607,3
30842965137223,0.20578274,9.12144,3.6993039,3
30842967516129,0.18664017,9.111869,3.7088752,3
30842969894983,0.17228323,9.073584,3.7280176,3
30842972273941,0.15314065,9.078369,3.7615173,3
30842974652900,0.1052842,9.092726,3.751946,3
30842977031806,0.05742774,9.08794,3.751946,3
30842979410712,-0.0047856453,9.08794,3.7471602,3
30842981789619,-0.05742774,9.102298,3.7136607,3
30842984168525,-0.1052842,9.116654,3.723232,3
30842986548212,-0.16749759,9.107083,3.723232,3
30842988926389,-0.19621146,9.12144,3.7567315,3
30842991305296,-0.22013968,9.116654,3.7758741,3
30842993684202,-0.22013968,9.150154,3.7758741,3
30842996063056,-0.22492532,9.140582,3.7615173,3
30842998442014,-0.22492532,9.169296,3.7423747,3
30843000820921,-0.21535404,9.19801,3.7280176,3
30843003199827,-0.17228323,9.183653,3.7280176,3
30843005578785,-0.13878371,9.174082,3.7806597,3
30843007957691,-0.11964113,9.183653,3.804588,3
30843010336598,-0.07178468,9.174082,3.804588,3
30843012715504,-0.038285162,9.159725,3.7998023,3
30843015094410,0.02871387,9.150154,3.7567315,3
30843017473316,0.08135597,9.140582,3.737589,3
30843019852223,0.09092726,9.131011,3.7615173,3
30843022231181,0.13399807,9.116654,3.7806597,3
30843024610087,0.148355,9.107083,3.804588,3
30843026988994,0.148355,9.08794,3.7758741,3
30843029367900,0.17228323,9.08794,3.7663028,3
30843031746806,0.16749759,9.083155,3.751946,3
30843034125712,0.13878371,9.111869,3.7471602,3
30843036504619,0.11006984,9.111869,3.7471602,3
30843038883525,0.06699903,9.083155,3.7758741,3
30843041262483,0.019142581,9.092726,3.7950168,3
30843043641389,-0.033499517,9.078369,3.7854455,3
30843046020296,-0.08135597,9.083155,3.7663028,3
30843048399202,-0.13878371,9.107083,3.7328033,3
30843050778108,-0.17228323,9.131011,3.7184465,3
30843053157014,-0.2105684,9.135797,3.7184465,3
30843055535921,-0.22971097,9.150154,3.7328033,3
30843057914879,-0.23449662,9.159725,3.7663028,3
30843060293785,-0.23449662,9.15494,3.7806597,3
30843062672691,-0.22492532,9.150154,3.7615173,3
30843065051598,-0.22492532,9.174082,3.7471602,3
30843067430504,-0.148355,9.159725,3.7280176,3
30843069809410,-0.086141616,9.164511,3.7423747,3
30843072188316,-0.047856454,9.174082,3.7567315,3
30843074567275,0.0047856453,9.15494,3.7758741,3
30843076946181,0.0526421,9.140582,3.7710886,3
30843079325087,0.086141616,9.150154,3.7615173,3
30843081703994,0.10049855,9.12144,3.7471602,3
30843084082900,0.13878371,9.126225,3.7136607,3
30843086461806,0.15792629,9.111869,3.7280176,3
30843088840712,0.18185452,9.111869,3.7471602,3
30843091219671,0.17228323,9.078369,3.7710886,3
30843093598577,0.148355,9.073584,3.804588,3
30843095977483,0.12921242,9.08794,3.790231,3
30843098356389,0.09092726,9.092726,3.790231,3
30843100735296,0.062213387,9.073584,3.7710886,3
30843103114202,0.02871387,9.083155,3.7998023,3
30843105493108,-0.038285162,9.083155,3.8093736,3
30843107872066,-0.086141616,9.092726,3.7998023,3
30843110250973,-0.148355,9.111869,3.7950168,3
30843112629879,-0.15792629,9.08794,3.7806597,3
30843115008785,-0.17228323,9.12144,3.7615173,3
30843117387691,-0.17706887,9.145369,3.7328033,3
30843119766598,-0.19621146,9.159725,3.7471602,3
30843122145504,-0.2009971,9.140582,3.7567315,3
30843124524462,-0.17228323,9.135797,3.7615173,3
30843126903369,-0.12921242,9.131011,3.737589,3
30843129282275,-0.12921242,9.135797,3.7328033,3
30843131661181,-0.06699903,9.150154,3.7423747,3
30843134040087,-0.033499517,9.164511,3.737589,3
30843136418994,-0.02871387,9.159725,3.7423747,3
30843138797900,0.0,9.159725,3.751946,3
30843141176858,0.023928227,9.159725,3.7423747,3
30843143555764,0.038285162,9.159725,3.7567315,3
30843145934671,0.02871387,9.150154,3.7710886,3
30843148313577,0.023928227,9.150154,3.751946,3
30843150692483,0.014356935,9.145369,3.7280176,3
30843153071389,0.0047856453,9.12144,3.7423747,3
30843155450296,0.0,9.126225,3.7806597,3
30843157829202,-0.019142581,9.111869,3.7758741,3
30843160208160,-0.023928227,9.107083,3.7710886,3
30843162587066,-0.043070808,9.097511,3.7663028,3
30843164965973,-0.062213387,9.08794,3.7567315,3
30843167344879,-0.08135597,9.097511,3.7806597,3
30843169723785,-0.07178468,9.126225,3.7758741,3
30843172102691,-0.06699903,9.116654,3.7758741,3
30843174481598,-0.07178468,9.116654,3.7854455,3
30843176860556,-0.06699903,9.126225,3.7854455,3
30843179239462,-0.06699903,9.107083,3.7854455,3
30843181618369,-0.0526421,9.102298,3.7758741,3
30843183997275,0.009571291,9.092726,3.7567315,3
30843186376181,0.0,9.097511,3.7663028,3
30843188755087,0.033499517,9.097511,3.7710886,3
30843191133994,0.05742774,9.107083,3.7710886,3
30843193512952,0.062213387,9.111869,3.751946,3
30843195891858,0.086141616,9.102298,3.751946,3
30843198270764,0.11485548,9.126225,3.7471602,3
30843200649671,0.124426775,9.126225,3.7328033,3
30843203028577,0.11485548,9.12144,3.7328033,3
30843205407483,0.1052842,9.111869,3.7280176,3
30843207786389,0.09092726,9.12144,3.7328033,3
30843210165348,0.09092726,9.131011,3.737589,3
30843212544254,0.08135597,9.12144,3.737589,3
30843214923160,0.06699903,9.126225,3.7471602,3
30843217302066,0.033499517,9.111869,3.7280176,3
30843219680973,0.019142581,9.111869,3.7423747,3
30843222059879,0.0,9.135797,3.7567315,3
30843224438785,-0.019142581,9.140582,3.7615173,3
30843226817744,-0.033499517,9.145369,3.7663028,3
30843229196650,-0.02871387,9.131011,3.7806597,3
30843231575556,-0.043070808,9.116654,3.7950168,3
30843233954462,-0.043070808,9.131011,3.7758741,3
30843236333369,-0.02871387,9.150154,3.7615173,3
30843238712223,-0.02871387,9.150154,3.7758741,3
30843241091181,-0.009571291,9.159725,3.7615173,3
30843243470087,-0.0047856453,9.131011,3.7567315,3
30843245849046,0.0047856453,9.116654,3.7663028,3
30843248227952,0.0047856453,9.15494,3.7758741,3
30843250606858,-0.0047856453,9.140582,3.7758741,3
30843252985764,-0.009571291,9.111869,3.7567315,3
30843255364671,-0.019142581,9.12144,3.7615173,3
30843257743577,-0.038285162,9.102298,3.7758741,3
30843260122483,-0.047856454,9.102298,3.7854455,3
30843262501441,-0.076570325,9.107083,3.790231,3
30843264880348,-0.06699903,9.126225,3.7998023,3
30843267259254,-0.11485548,9.145369,3.7998023,3
30843269638160,-0.13878371,9.131011,3.790231,3
30843272017066,-0.16271193,9.12144,3.7806597,3
30843274396077,-0.16271193,9.102298,3.790231,3
30843276774827,-0.15792629,9.107083,3.7998023,3
30843279153837,-0.16749759,9.111869,3.7998023,3
30843281532744,-0.18185452,9.116654,3.790231,3
30843283911650,-0.16749759,9.131011,3.7710886,3
30843286290556,-0.16749759,9.111869,3.7615173,3
30843288669462,-0.16271193,9.102298,3.737589,3
30843291048369,-0.16271193,9.140582,3.737589,3
30843293427275,-0.15314065,9.140582,3.737589,3
30843295806181,-0.1052842,9.126225,3.7471602,3
30843298185139,-0.09571291,9.126225,3.7136607,3
30843300564046,-0.09571291,9.140582,3.7088752,3
30843302942952,-0.09571291,9.135797,3.6849468,3
30843305321858,-0.08135597,9.15494,3.6658044,3
30843307700764,-0.11006984,9.135797,3.6849468,3
30843310079671,-0.11006984,9.116654,3.694518,3
30843312458577,-0.11485548,9.126225,3.7184465,3
30843314837535,-0.12921242,9.111869,3.737589,3
30843317216441,-0.15792629,9.126225,3.7423747,3
30843319595348,-0.19142582,9.126225,3.7184465,3
30843321974254,-0.18185452,9.126225,3.7136607,3
30843324353160,-0.19142582,9.116654,3.7280176,3
30843326732066,-0.22013968,9.12144,3.7280176,3
30843329110973,-0.22971097,9.126225,3.751946,3
30843331489879,-0.22013968,9.145369,3.7615173,3
30843333868837,-0.22013968,9.15494,3.7615173,3
30843336247744,-0.18185452,9.140582,3.790231,3
30843338626650,-0.17228323,9.12144,3.8141594,3
30843341005556,-0.12921242,9.116654,3.8333018,3
30843343384462,-0.1052842,9.116654,3.8333018,3
30843345763369,-0.08135597,9.131011,3.8141594,3
30843348142275,-0.06699903,9.126225,3.804588,3
30843350521233,-0.038285162,9.116654,3.790231,3
30843352900139,-0.019142581,9.08794,3.7998023,3
30843355279046,0.019142581,9.092726,3.7950168,3
30843357657952,0.019142581,9.116654,3.7806597,3
30843360036858,0.014356935,9.12144,3.8141594,3
30843362415764,0.014356935,9.111869,3.7806597,3
30843364794671,0.02871387,9.111869,3.7710886,3
30843367173629,0.0047856453,9.116654,3.7663028,3
30843369552535,-0.019142581,9.131011,3.7567315,3
30843371931441,-0.019142581,9.15494,3.7567315,3
30843374310348,-0.047856454,9.15494,3.7615173,3
30843376689254,-0.0526421,9.145369,3.7567315,3
30843379068160,-0.07178468,9.150154,3.7423747,3
30843381447066,-0.06699903,9.145369,3.723232,3
30843383826025,-0.11006984,9.15494,3.737589,3
30843386204931,-0.124426775,9.159725,3.751946,3
30843388583837,-0.13399807,9.159725,3.7615173,3
30843390962744,-0.15792629,9.145369,3.7567315,3
30843393341650,-0.15792629,9.135797,3.7663028,3
30843395720556,-0.15792629,9.135797,3.7328033,3
30843398099462,-0.16271193,9.135797,3.7423747,3
30843400478369,-0.14356937,9.107083,3.737589,3
30843402857327,-0.14356937,9.126225,3.751946,3
30843405236233,-0.13878371,9.126225,3.7758741,3
30843407615139,-0.12921242,9.111869,3.7806597,3
30843409994046,-0.10049855,9.102298,3.7758741,3
30843412372952,-0.09092726,9.08794,3.7710886,3
30843414751858,-0.076570325,9.092726,3.7567315,3
30843417130764,-0.0526421,9.107083,3.7471602,3
30843419509723,-0.033499517,9.08794,3.7663028,3
30843421888629,-0.019142581,9.097511,3.7758741,3
30843424267535,-0.033499517,9.12144,3.7758741,3
30843426646441,-0.02871387,9.116654,3.7758741,3
30843429025348,-0.014356935,9.12144,3.7758741,3
30843431404254,-0.043070808,9.126225,3.7806597,3
30843433783160,-0.043070808,9.12144,3.7663028,3
30843436162066,-0.10049855,9.107083,3.7758741,3
30843438541025,-0.11964113,9.12144,3.7663028,3
30843440919931,-0.148355,9.131011,3.7615173,3
30843443298837,-0.19142582,9.107083,3.7471602,3
30843445677744,-0.20578274,9.111869,3.7615173,3
30843448056650,-0.23449662,9.111869,3.751946,3
30843450435556,-0.2440679,9.12144,3.7471602,3
30843452814462,-0.24885355,9.116654,3.7567315,3
30843455193369,-0.28235307,9.126225,3.7471602,3
30843457572327,-0.29671,9.107083,3.751946,3
30843459951233,-0.29671,9.102298,3.737589,3
30843462330139,-0.25842485,9.102298,3.751946,3
30843464708994,-0.26799613,9.126225,3.7423747,3
30843467087952,-0.23928227,9.131011,3.7184465,3
30843469466858,-0.22971097,9.150154,3.6897326,3
30843471845764,-0.19621146,9.145369,3.7184465,3
30843474224723,-0.19621146,9.150154,3.7280176,3
30843476603629,-0.19142582,9.135797,3.751946,3
30843478982535,-0.16749759,9.145369,3.7423747,3
30843481361441,-0.14356937,9.135797,3.7423747,3
30843483740348,-0.12921242,9.140582,3.7328033,3
30843486119254,-0.12921242,9.15494,3.7328033,3
30843488498160,-0.11006984,9.135797,3.7328033,3
30843490877119,-0.09092726,9.140582,3.7567315,3
30843493256025,-0.07178468,9.126225,3.790231,3
30843495634931,-0.09571291,9.131011,3.7950168,3
30843498013837,-0.09571291,9.131011,3.7854455,3
30843500392744,-0.11485548,9.131011,3.7615173,3
30843502771650,-0.11485548,9.135797,3.751946,3
30843505150556,-0.08135597,9.116654,3.7567315,3
30843507529514,-0.07178468,9.12144,3.7710886,3
30843509908421,-0.05742774,9.107083,3.7758741,3
30843512287327,-0.062213387,9.116654,3.790231,3
30843514666233,-0.07178468,9.140582,3.7663028,3
30843517045139,-0.05742774,9.131011,3.751946,3
30843519424046,-0.05742774,9.140582,3.7471602,3
30843521802900,-0.05742774,9.135797,3.751946,3
30843524181858,-0.038285162,9.131011,3.7567315,3
30843526560816,-0.033499517,9.131011,3.7663028,3
30843528939723,-0.043070808,9.145369,3.7663028,3
30843531318629,-0.023928227,9.131011,3.7567315,3
30843533697535,-0.023928227,9.140582,3.751946,3
30843536076441,-0.0047856453,9.145369,3.737589,3
30843538455348,0.019142581,9.145369,3.723232,3
30843540834254,0.02871387,9.140582,3.7280176,3
30843543213160,0.02871387,9.145369,3.7423747,3
30843545592119,0.009571291,9.140582,3.7854455,3
30843547971025,0.014356935,9.116654,3.7854455,3
30843550349931,0.0,9.131011,3.7710886,3
30843552728837,0.0,9.145369,3.737589,3
30843555107744,0.009571291,9.131011,3.7471602,3
30843557486650,0.0047856453,9.135797,3.7567315,3
30843559865556,-0.014356935,9.126225,3.7663028,3
30843562244514,-0.043070808,9.116654,3.790231,3
30843564623421,-0.038285162,9.140582,3.7710886,3
30843567002327,-0.043070808,9.140582,3.7758741,3
30843569381233,-0.043070808,9.150154,3.7615173,3
30843571760139,-0.033499517,9.145369,3.7567315,3
30843574139046,-0.047856454,9.140582,3.7615173,3
30843576517952,-0.0526421,9.107083,3.7710886,3
30843578896858,-0.014356935,9.107083,3.7854455,3
30843581275816,-0.019142581,9.140582,3.7950168,3
30843583654723,-0.033499517,9.135797,3.790231,3
30843586033629,-0.02871387,9.135797,3.7615173,3
30843588412535,-0.038285162,9.131011,3.7567315,3
30843590791441,-0.014356935,9.116654,3.7423747,3
30843593170348,-0.009571291,9.116654,3.737589,3
30843595549254,-0.023928227,9.107083,3.751946,3
30843597928108,-0.0526421,9.08794,3.7471602,3
30843600307119,-0.023928227,9.08794,3.7471602,3
30843602686025,-0.009571291,9.107083,3.7471602,3
30843605064931,-0.023928227,9.097511,3.7423747,3
30843607443837,-0.047856454,9.08794,3.7471602,3
30843609822744,-0.062213387,9.107083,3.7423747,3
30843612201650,-0.062213387,9.107083,3.7471602,3
30843614580556,-0.086141616,9.107083,3.7471602,3
30843616959514,-0.086141616,9.12144,3.737589,3
30843619338421,-0.09571291,9.131011,3.723232,3
30843621717327,-0.11006984,9.12144,3.7136607,3
30843624096233,-0.11964113,9.140582,3.7136607,3
30843626475139,-0.11485548,9.145369,3.723232,3
30843628854046,-0.13399807,9.12144,3.7328033,3
30843631232900,-0.13399807,9.12144,3.737589,3
30843633611858,-0.14356937,9.116654,3.7328033,3
30843635990816,-0.15314065,9.116654,3.737589,3
30843638369723,-0.15314065,9.107083,3.737589,3
30843640748629,-0.15314065,9.107083,3.723232,3
30843643127535,-0.15314065,9.111869,3.7136607,3
30843645506389,-0.16749759,9.116654,3.7136607,3
30843647885348,-0.15792629,9.12144,3.7280176,3
30843650264254,-0.17706887,9.111869,3.751946,3
30843652643212,-0.16749759,9.12144,3.7423747,3
30843655022119,-0.15792629,9.111869,3.7471602,3
30843657400973,-0.14356937,9.150154,3.7423747,3
30843659779931,-0.15314065,9.126225,3.7280176,3
30843662158837,-0.148355,9.116654,3.737589,3
30843664537744,-0.124426775,9.097511,3.7854455,3
30843666916650,-0.11485548,9.092726,3.804588,3
30843669295556,-0.09092726,9.092726,3.804588,3
30843671674514,-0.07178468,9.073584,3.7854455,3
30843674053421,-0.05742774,9.111869,3.7710886,3
30843676432327,-0.0526421,9.126225,3.737589,3
30843678811233,-0.038285162,9.116654,3.7663028,3
30843681190139,-0.043070808,9.102298,3.7806597,3
30843683569046,-0.023928227,9.097511,3.7998023,3
30843685947952,-0.023928227,9.097511,3.804588,3
30843688326910,-0.033499517,9.111869,3.7615173,3
30843690705816,-0.019142581,9.111869,3.7567315,3
30843693084723,-0.019142581,9.116654,3.7615173,3
30843695463629,-0.023928227,9.116654,3.7567315,3
30843697842535,-0.033499517,9.131011,3.7663028,3
30843700221441,-0.0526421,9.116654,3.7758741,3
30843702600348,-0.047856454,9.111869,3.7758741,3
30843704979254,-0.08135597,9.107083,3.7567315,3
30843707358212,-0.09571291,9.135797,3.7471602,3
30843709737119,-0.11485548,9.159725,3.7280176,3
30843712116025,-0.13878371,9.164511,3.7280176,3
30843714494931,-0.14356937,9.135797,3.723232,3
30843716873837,-0.124426775,9.150154,3.723232,3
30843719252744,-0.11006984,9.140582,3.7471602,3
30843721631650,-0.11485548,9.15494,3.751946,3
30843724010556,-0.09092726,9.169296,3.7471602,3
30843726389514,-0.09092726,9.150154,3.7567315,3
30843728768421,-0.0526421,9.135797,3.7423747,3
30843731147327,-0.023928227,9.131011,3.737589,3
30843733526233,0.0,9.140582,3.7567315,3
30843735905139,0.043070808,9.131011,3.751946,3
30843738284046,0.05742774,9.126225,3.7567315,3
30843740662952,0.05742774,9.111869,3.7567315,3
30843743041858,0.047856454,9.107083,3.7615173,3
30843745420816,0.019142581,9.111869,3.7663028,3
30843747799723,0.023928227,9.135797,3.7615173,3
30843750178629,0.02871387,9.126225,3.7471602,3
30843752557535,0.009571291,9.131011,3.751946,3
30843754936441,-0.023928227,9.12144,3.7471602,3
30843757315348,-0.047856454,9.131011,3.7615173,3
30843759694254,-0.047856454,9.126225,3.7758741,3
30843762073108,-0.076570325,9.131011,3.7615173,3
30843764452119,-0.10049855,9.135797,3.7663028,3
30843766831025,-0.10049855,9.150154,3.751946,3
30843769209931,-0.09571291,9.150154,3.7328033,3
30843771588837,-0.1052842,9.174082,3.7280176,3
30843773967691,-0.09571291,9.164511,3.7328033,3
30843776346650,-0.09571291,9.140582,3.7328033,3
30843778725556,-0.10049855,9.140582,3.7567315,3
30843781104514,-0.047856454,9.140582,3.737589,3
30843783483421,-0.033499517,9.145369,3.7471602,3
30843785862327,-0.023928227,9.131011,3.723232,3
30843788241233,0.023928227,9.131011,3.7328033,3
30843790620139,0.038285162,9.126225,3.737589,3
30843792999046,0.0526421,9.135797,3.751946,3
30843795377952,0.05742774,9.140582,3.751946,3
30843797756858,0.038285162,9.140582,3.7471602,3
30843800135816,0.009571291,9.131011,3.7328033,3
30843802514723,0.02871387,9.126225,3.7280176,3
30843804893629,-0.0047856453,9.116654,3.7088752,3
30843807272535,-0.02871387,9.126225,3.7136607,3
30843809651441,-0.062213387,9.131011,3.737589,3
30843812030348,-0.10049855,9.107083,3.7567315,3
30843814409254,-0.11485548,9.083155,3.7471602,3
30843816788160,-0.17228323,9.092726,3.7663028,3
30843819167119,-0.18664017,9.08794,3.7615173,3
30843821546025,-0.19142582,9.111869,3.7663028,3
30843823924931,-0.19621146,9.135797,3.7567315,3
30843826303837,-0.2009971,9.145369,3.737589,3
30843828682744,-0.18664017,9.164511,3.7710886,3
30843831061650,-0.16749759,9.145369,3.7758741,3
30843833440556,-0.148355,9.150154,3.7615173,3
30843835819514,-0.11485548,9.145369,3.7663028,3
30843838198421,-0.07178468,9.15494,3.7615173,3
30843840577327,-0.033499517,9.140582,3.7471602,3
30843842956233,-0.0047856453,9.150154,3.751946,3
30843845335139,0.009571291,9.150154,3.7806597,3
30843847714046,0.033499517,9.131011,3.7998023,3
30843850092952,0.05742774,9.145369,3.7806597,3
30843852471858,0.033499517,9.131011,3.7710886,3
30843854850764,0.05742774,9.126225,3.751946,3
30843857229723,0.02871387,9.140582,3.7471602,3
30843859608629,0.009571291,9.102298,3.7663028,3
30843861987535,-0.023928227,9.102298,3.7710886,3
30843864366441,-0.086141616,9.097511,3.7758741,3
30843866745348,-0.09571291,9.102298,3.7806597,3
30843869124254,-0.11964113,9.126225,3.7663028,3
30843871503160,-0.13878371,9.116654,3.751946,3
30843873882119,-0.15314065,9.12144,3.7663028,3
30843876261025,-0.16749759,9.131011,3.7806597,3
30843878639931,-0.15792629,9.111869,3.7950168,3
30843881018837,-0.148355,9.126225,3.790231,3
30843883397744,-0.11485548,9.150154,3.7854455,3
30843885776650,-0.1052842,9.159725,3.7615173,3
30843888155556,-0.062213387,9.150154,3.751946,3
30843890534410,-0.02871387,9.135797,3.751946,3
30843892913421,-0.009571291,9.140582,3.7710886,3
30843895292327,0.014356935,9.12144,3.7806597,3
30843897671233,0.043070808,9.116654,3.7710886,3
30843900050139,0.06699903,9.126225,3.7567315,3
30843902429046,0.062213387,9.140582,3.723232,3
30843904807952,0.047856454,9.131011,3.723232,3
30843907186858,0.023928227,9.131011,3.7280176,3
30843909565764,-0.0047856453,9.12144,3.7328033,3
30843911944723,-0.047856454,9.150154,3.7471602,3
30843914323629,-0.09092726,9.131011,3.7663028,3
30843916702535,-0.13399807,9.12144,3.737589,3
30843919081441,-0.17706887,9.131011,3.7184465,3
30843921460348,-0.20578274,9.135797,3.7088752,3
30843923839254,-0.22492532,9.131011,3.7184465,3
30843926218160,-0.2536392,9.140582,3.7280176,3
30843928597066,-0.2440679,9.12144,3.751946,3
30843930976025,-0.2440679,9.12144,3.7758741,3
30843933354931,-0.22013968,9.131011,3.7663028,3
30843935733837,-0.19142582,9.135797,3.7663028,3
30843938112744,-0.15792629,9.145369,3.7567315,3
30843940491650,-0.11006984,9.135797,3.7423747,3
30843942870556,-0.076570325,9.116654,3.7471602,3
30843945249462,0.0,9.135797,3.7567315,3
30843947628369,0.043070808,9.150154,3.7567315,3
30843950007327,0.06699903,9.159725,3.7663028,3
30843952386233,0.09571291,9.140582,3.7423747,3
30843954765139,0.09571291,9.126225,3.7136607,3
30843957144046,0.11964113,9.135797,3.723232,3
30843959522952,0.10049855,9.107083,3.7280176,3
30843961901858,0.10049855,9.102298,3.7423747,3
30843964280764,0.062213387,9.116654,3.7663028,3
30843966659671,0.009571291,9.102298,3.7615173,3
30843969038629,-0.06699903,9.102298,3.7471602,3
30843971417535,-0.09092726,9.116654,3.7328033,3
30843973796441,-0.13878371,9.12144,3.737589,3
30843976175348,-0.14356937,9.126225,3.7328033,3
30843978554254,-0.18185452,9.126225,3.7615173,3
30843980933160,-0.19621146,9.135797,3.7806597,3
30843983312066,-0.18185452,9.145369,3.790231,3
30843985690973,-0.19621146,9.159725,3.7615173,3
30843988069931,-0.17706887,9.15494,3.751946,3
30843990448837,-0.15792629,9.15494,3.7280176,3
30843992827744,-0.11485548,9.145369,3.7471602,3
30843995206650,-0.09571291,9.145369,3.7567315,3
30843997585556,-0.07178468,9.145369,3.7854455,3
30843999964462,-0.033499517,9.102298,3.7758741,3
30844002343369,-0.02871387,9.12144,3.7806597,3
30844004722275,-0.009571291,9.126225,3.7471602,3
30844007101233,0.0,9.102298,3.751946,3
30844009480139,-0.0047856453,9.078369,3.7710886,3
30844011859046,-0.019142581,9.102298,3.7758741,3
30844014237952,-0.014356935,9.107083,3.7854455,3
30844016616858,-0.043070808,9.083155,3.7663028,3
30844018995764,-0.086141616,9.097511,3.7615173,3
30844021374671,-0.11006984,9.092726,3.7423747,3
30844023753629,-0.12921242,9.12144,3.7184465,3
30844026132535,-0.15792629,9.08794,3.723232,3
30844028511389,-0.20578274,9.083155,3.7184465,3
30844030890348,-0.2105684,9.08794,3.737589,3
30844033269254,-0.22971097,9.097511,3.7328033,3
30844035648160,-0.23928227,9.131011,3.7184465,3
30844038027066,-0.23928227,9.126225,3.737589,3
30844040405973,-0.22971097,9.131011,3.737589,3
30844042784879,-0.22971097,9.131011,3.737589,3
30844045163837,-0.19142582,9.135797,3.7328033,3
30844047542744,-0.17706887,9.140582,3.737589,3
30844049921650,-0.16749759,9.140582,3.723232,3
30844052300556,-0.16271193,9.135797,3.7280176,3
30844054679462,-0.148355,9.131011,3.7328033,3
30844057058369,-0.13878371,9.116654,3.7423747,3
30844059437275,-0.11485548,9.107083,3.737589,3
30844061816181,-0.10049855,9.111869,3.751946,3
30844064195139,-0.07178468,9.111869,3.7471602,3
30844066574046,-0.09092726,9.111869,3.7615173,3
30844068952900,-0.09092726,9.116654,3.751946,3
30844071331858,-0.06699903,9.131011,3.751946,3
30844073710764,-0.08135597,9.111869,3.7328033,3
30844076089671,-0.086141616,9.116654,3.7423747,3
30844078468577,-0.10049855,9.107083,3.7471602,3
30844080847483,-0.11006984,9.102298,3.751946,3
30844083226441,-0.1052842,9.131011,3.7567315,3
30844085605348,-0.1052842,9.107083,3.7567315,3
30844087984254,-0.11006984,9.12144,3.751946,3
30844090363160,-0.1052842,9.131011,3.7615173,3
30844092742066,-0.124426775,9.131011,3.7423747,3
30844095120973,-0.12921242,9.131011,3.7328033,3
30844097499879,-0.1052842,9.116654,3.7423747,3
30844099878785,-0.10049855,9.12144,3.737589,3
30844102257744,-0.086141616,9.126225,3.7471602,3
30844104636650,-0.10049855,9.150154,3.751946,3
30844107015556,-0.086141616,9.131011,3.737589,3
30844109394462,-0.07178468,9.116654,3.751946,3
30844111773369,-0.076570325,9.145369,3.7471602,3
30844114152275,-0.076570325,9.140582,3.751946,3
30844116531181,-0.076570325,9.159725,3.751946,3
30844118910087,-0.08135597,9.164511,3.7663028,3
30844121289046,-0.06699903,9.145369,3.7806597,3
30844123667952,-0.06699903,9.140582,3.7663028,3
30844126046858,-0.07178468,9.131011,3.7806597,3
30844128425764,-0.07178468,9.135797,3.7854455,3
30844130804671,-0.08135597,9.145369,3.804588,3
30844133183577,-0.08135597,9.126225,3.8141594,3
30844135562483,-0.086141616,9.126225,3.790231,3
30844137941389,-0.062213387,9.111869,3.7806597,3
30844140320296,-0.05742774,9.131011,3.7806597,3
30844142699254,-0.0526421,9.116654,3.7615173,3
30844145078160,-0.076570325,9.131011,3.7710886,3
30844147457066,-0.06699903,9.12144,3.7663028,3
30844149835973,-0.076570325,9.116654,3.7663028,3
30844152214879,-0.09092726,9.12144,3.7471602,3
30844154593785,-0.09092726,9.116654,3.737589,3
30844156972691,-0.12921242,9.131011,3.7280176,3
30844159351598,-0.15314065,9.15494,3.7136607,3
30844161730556,-0.18664017,9.135797,3.7328033,3
30844164109462,-0.2009971,9.135797,3.7184465,3
30844166488369,-0.24885355,9.126225,3.6993039,3
30844168867275,-0.2727818,9.150154,3.7088752,3
30844171246181,-0.28235307,9.164511,3.7184465,3
30844173625087,-0.29192436,9.15494,3.737589,3
30844176003994,-0.29192436,9.140582,3.7471602,3
30844178382952,-0.28235307,9.159725,3.7615173,3
30844180761858,-0.2727818,9.15494,3.7663028,3
30844183140712,-0.24885355,9.15494,3.7615173,3
30844185519671,-0.23449662,9.131011,3.7567315,3
30844187898577,-0.19621146,9.111869,3.7710886,3
30844190277483,-0.14356937,9.111869,3.7615173,3
30844192656389,-0.124426775,9.111869,3.7663028,3
30844195035296,-0.11964113,9.126225,3.7758741,3
30844197414254,-0.08135597,9.131011,3.790231,3
30844199793160,-0.076570325,9.131011,3.7854455,3
30844202172066,-0.0526421,9.102298,3.7663028,3
30844204550973,-0.0526421,9.12144,3.7615173,3
30844206929879,-0.07178468,9.131011,3.7663028,3
30844209308785,-0.09092726,9.111869,3.7615173,3
30844211687691,-0.124426775,9.12144,3.7615173,3
30844214066598,-0.13878371,9.102298,3.7710886,3
30844216445504,-0.18664017,9.12144,3.7615173,3
30844218824462,-0.23449662,9.111869,3.7663028,3
30844221203369,-0.26799613,9.126225,3.751946,3
30844223582275,-0.28713873,9.159725,3.7471602,3
30844225961181,-0.32063824,9.135797,3.7423747,3
30844228340087,-0.33020952,9.150154,3.7471602,3
30844230718994,-0.3062813,9.164511,3.7758741,3
30844233097900,-0.30149564,9.145369,3.7615173,3
30844235476806,-0.2727818,9.145369,3.7663028,3
30844237855764,-0.23928227,9.150154,3.7615173,3
30844240234671,-0.2105684,9.159725,3.7471602,3
30844242613577,-0.19142582,9.140582,3.7423747,3
30844244992483,-0.12921242,9.150154,3.7615173,3
30844247371389,-0.10049855,9.12144,3.7806597,3
30844249750296,-0.05742774,9.111869,3.7615173,3
30844252129202,-0.009571291,9.126225,3.7471602,3
30844254508108,0.023928227,9.116654,3.7328033,3
30844256887066,0.023928227,9.102298,3.737589,3
30844259265973,0.0047856453,9.102298,3.7710886,3
30844261644879,0.0047856453,9.107083,3.7710886,3
30844264023785,-0.0047856453,9.092726,3.790231,3
30844266402691,-0.043070808,9.116654,3.7950168,3
30844268781598,-0.09571291,9.097511,3.7663028,3
30844271160504,-0.13399807,9.111869,3.7423747,3
30844273539410,-0.17706887,9.135797,3.7567315,3
30844275918369,-0.22013968,9.126225,3.7663028,3
30844278297275,-0.24885355,9.12144,3.790231,3
30844280676181,-0.2727818,9.135797,3.8093736,3
30844283055087,-0.29671,9.145369,3.7998023,3
30844285433994,-0.3062813,9.150154,3.7663028,3
30844287812900,-0.3062813,9.135797,3.7567315,3
30844290191806,-0.3062813,9.131011,3.751946,3
30844292570660,-0.28713873,9.150154,3.7710886,3
30844294949671,-0.2632105,9.150154,3.7854455,3
30844297328577,-0.23449662,9.126225,3.7806597,3
30844299707483,-0.19142582,9.140582,3.751946,3
30844302086389,-0.15314065,9.145369,3.737589,3
30844304465296,-0.11485548,9.131011,3.7184465,3
30844306844202,-0.086141616,9.126225,3.7280176,3
30844309223108,-0.08135597,9.135797,3.7423747,3
30844311602014,-0.07178468,9.126225,3.7471602,3
30844313980921,-0.09571291,9.116654,3.7423747,3
30844316359879,-0.11964113,9.12144,3.737589,3
30844318738785,-0.11485548,9.116654,3.737589,3
30844321117691,-0.16271193,9.097511,3.7184465,3
30844323496598,-0.19621146,9.111869,3.7184465,3
30844325875504,-0.22013968,9.12144,3.737589,3
30844328254410,-0.23928227,9.140582,3.7567315,3
30844330633316,-0.26799613,9.135797,3.7471602,3
30844333012223,-0.32542387,9.150154,3.7615173,3
30844335391181,-0.33020952,9.164511,3.751946,3
30844337770087,-0.33499518,9.159725,3.751946,3
30844340148994,-0.33020952,9.15494,3.7328033,3
30844342527900,-0.27756742,9.159725,3.7471602,3
30844344906806,-0.2440679,9.140582,3.7710886,3
30844347285712,-0.2009971,9.140582,3.7663028,3
30844349664619,-0.17706887,9.12144,3.7758741,3
30844352043525,-0.148355,9.140582,3.7710886,3
30844354422483,-0.1052842,9.126225,3.7567315,3
30844356801389,-0.08135597,9.116654,3.7423747,3
30844359180296,-0.0526421,9.107083,3.7423747,3
30844361559202,-0.047856454,9.111869,3.751946,3
30844363938108,-0.038285162,9.111869,3.737589,3
30844366317014,-0.019142581,9.092726,3.7471602,3
30844368695921,-0.05742774,9.08794,3.751946,3
30844371074827,-0.09092726,9.116654,3.7471602,3
30844373453785,-0.13878371,9.126225,3.7328033,3
30844375832691,-0.16749759,9.131011,3.7328033,3
30844378211598,-0.22013968,9.116654,3.7471602,3
30844380590504,-0.24885355,9.131011,3.751946,3
30844382969410,-0.28713873,9.131011,3.7423747,3
30844385348316,-0.3062813,9.135797,3.751946,3
30844387727223,-0.31106696,9.145369,3.7567315,3
30844390106129,-0.32542387,9.164511,3.751946,3
30844392485035,-0.29671,9.135797,3.751946,3
30844394863994,-0.3062813,9.12144,3.7471602,3
30844397242900,-0.26799613,9.131011,3.7615173,3
30844399621806,-0.23449662,9.145369,3.751946,3
30844402000712,-0.22013968,9.131011,3.7615173,3
30844404379619,-0.18185452,9.107083,3.7663028,3
30844406758525,-0.15792629,9.097511,3.7710886,3
30844409137431,-0.124426775,9.097511,3.7615173,3
30844411516337,-0.09092726,9.097511,3.7567315,3
30844413895296,-0.06699903,9.102298,3.7423747,3
30844416274202,-0.047856454,9.078369,3.7471602,3
30844418653108,-0.047856454,9.097511,3.751946,3
30844421032014,-0.076570325,9.116654,3.7423747,3
30844423410869,-0.11964113,9.116654,3.7423747,3
30844425789775,-0.12921242,9.111869,3.751946,3
30844428168733,-0.16749759,9.111869,3.737589,3
30844430547639,-0.2009971,9.131011,3.7280176,3
30844432926598,-0.23928227,9.131011,3.7328033,3
30844435305504,-0.28713873,9.12144,3.7423747,3
30844437684410,-0.33020952,9.140582,3.751946,3
30844440063316,-0.35413775,9.131011,3.7471602,3
30844442442223,-0.3684947,9.126225,3.751946,3
30844444821129,-0.36370903,9.12144,3.7615173,3
30844447200035,-0.34456646,9.135797,3.751946,3
30844449578941,-0.32542387,9.145369,3.737589,3
30844451957848,-0.33020952,9.145369,3.751946,3
30844454336806,-0.3062813,9.135797,3.7567315,3
30844456715712,-0.2440679,9.140582,3.751946,3
30844459094619,-0.2105684,9.131011,3.7567315,3
30844461473525,-0.18664017,9.126225,3.737589,3
30844463852431,-0.148355,9.145369,3.737589,3
30844466231337,-0.11006984,9.135797,3.7423747,3
30844468610244,-0.086141616,9.131011,3.751946,3
30844470989150,-0.062213387,9.116654,3.7615173,3
30844473368108,-0.09571291,9.131011,3.7567315,3
30844475747014,-0.086141616,9.131011,3.7471602,3
30844478125921,-0.12921242,9.135797,3.751946,3
30844480504827,-0.14356937,9.145369,3.7663028,3
30844482883733,-0.15792629,9.131011,3.7615173,3
30844485262639,-0.18185452,9.135797,3.7567315,3
30844487641546,-0.22492532,9.12144,3.7854455,3
30844490020504,-0.23928227,9.164511,3.7615173,3
30844492399358,-0.25842485,9.140582,3.751946,3
30844494778316,-0.28235307,9.131011,3.7710886,3
30844497157223,-0.30149564,9.15494,3.7567315,3
30844499536129,-0.31106696,9.159725,3.7567315,3
30844501915035,-0.30149564,9.145369,3.7471602,3
30844504293941,-0.28235307,9.145369,3.7615173,3
30844506672848,-0.2536392,9.150154,3.7615173,3
30844509051754,-0.21535404,9.131011,3.751946,3
30844511430712,-0.19142582,9.131011,3.7328033,3
30844513809619,-0.14356937,9.116654,3.7423747,3
30844516188525,-0.124426775,9.131011,3.7328033,3
30844518567431,-0.09571291,9.126225,3.737589,3
30844520946337,-0.08135597,9.107083,3.737589,3
30844523325244,-0.05742774,9.116654,3.737589,3
30844525704150,-0.0526421,9.102298,3.737589,3
30844528083056,-0.043070808,9.092726,3.7471602,3
30844530461962,-0.07178468,9.116654,3.7280176,3
30844532840869,-0.086141616,9.111869,3.737589,3
30844535219827,-0.11006984,9.12144,3.7567315,3
30844537598733,-0.11964113,9.140582,3.7615173,3
30844539977639,-0.13399807,9.131011,3.7615173,3
30844542356546,-0.15792629,9.126225,3.751946,3
30844544735452,-0.2105684,9.145369,3.7758741,3
30844547114358,-0.22492532,9.140582,3.7663028,3
30844549493264,-0.22492532,9.131011,3.7471602,3
30844551872171,-0.23928227,9.150154,3.737589,3
30844554251129,-0.24885355,9.174082,3.737589,3
30844556630035,-0.2536392,9.159725,3.7567315,3
30844559008941,-0.2632105,9.150154,3.751946,3
30844561387848,-0.22492532,9.159725,3.7615173,3
30844563766754,-0.18664017,9.150154,3.7471602,3
30844566145660,-0.15314065,9.135797,3.7471602,3
30844568524566,-0.11964113,9.126225,3.7471602,3
30844570903473,-0.11006984,9.145369,3.737589,3
30844573282431,-0.11006984,9.126225,3.751946,3
30844575661337,-0.10049855,9.12144,3.7710886,3
30844578040244,-0.09092726,9.111869,3.7615173,3
30844580419150,-0.062213387,9.12144,3.751946,3
30844582798056,-0.07178468,9.107083,3.7423747,3
30844585176962,-0.09571291,9.116654,3.7471602,3
30844587555869,-0.11485548,9.097511,3.7423747,3
30844589934775,-0.11485548,9.12144,3.7328033,3
30844592313629,-0.14356937,9.107083,3.7423747,3
30844594692639,-0.17706887,9.135797,3.751946,3
30844597071546,-0.20578274,9.111869,3.7567315,3
30844599450452,-0.21535404,9.111869,3.7663028,3
30844601829358,-0.22492532,9.140582,3.7471602,3
30844604208264,-0.22492532,9.135797,3.7567315,3
30844606587171,-0.23449662,9.135797,3.7615173,3
30844608966025,-0.2536392,9.116654,3.7615173,3
30844611344983,-0.23928227,9.116654,3.7567315,3
30844613723941,-0.23928227,9.111869,3.7471602,3
30844616102848,-0.22492532,9.131011,3.7758741,3
30844618481754,-0.19621146,9.135797,3.751946,3
30844620860660,-0.16749759,9.135797,3.737589,3
30844623239566,-0.13878371,9.15494,3.751946,3
30844625618473,-0.14356937,9.135797,3.7567315,3
30844627997379,-0.11006984,9.126225,3.7471602,3
30844630376285,-0.086141616,9.12144,3.7423747,3
30844632755244,-0.076570325,9.145369,3.723232,3
30844635134150,-0.06699903,9.15494,3.7328033,3
30844637513056,-0.06699903,9.150154,3.7423747,3
30844639891962,-0.062213387,9.135797,3.7184465,3
30844642270869,-0.076570325,9.12144,3.723232,3
30844644649775,-0.11485548,9.131011,3.723232,3
30844647028681,-0.15792629,9.12144,3.723232,3
30844649407587,-0.17706887,9.126225,3.7280176,3
30844651786494,-0.19621146,9.126225,3.7184465,3
30844654165452,-0.19621146,9.135797,3.7184465,3
30844656544358,-0.23449662,9.150154,3.7136607,3
30844658923264,-0.24885355,9.126225,3.723232,3
30844661302171,-0.24885355,9.131011,3.7184465,3
30844663681077,-0.25842485,9.107083,3.7280176,3
30844666059983,-0.22013968,9.08794,3.723232,3
30844668438889,-0.20578274,9.111869,3.7280176,3
30844670817796,-0.18664017,9.12144,3.7184465,3
30844673196754,-0.15792629,9.116654,3.7328033,3
30844675575660,-0.13878371,9.140582,3.7471602,3
30844677954566,-0.13399807,9.135797,3.7615173,3
30844680333473,-0.1052842,9.140582,3.7615173,3
30844682712379,-0.07178468,9.140582,3.7663028,3
30844685091285,-0.047856454,9.12144,3.7615173,3
30844687470191,-0.033499517,9.140582,3.7615173,3
30844689849098,-0.043070808,9.126225,3.751946,3
30844692228004,-0.043070808,9.131011,3.7710886,3
30844694606962,-0.05742774,9.12144,3.7567315,3
30844696985869,-0.086141616,9.116654,3.737589,3
30844699364775,-0.08135597,9.12144,3.7471602,3
30844701743681,-0.11964113,9.111869,3.7471602,3
30844704122587,-0.14356937,9.126225,3.751946,3
30844706501494,-0.18664017,9.126225,3.7806597,3
30844708880400,-0.16271193,9.126225,3.7806597,3
30844711259306,-0.18664017,9.116654,3.7567315,3
30844713638212,-0.20578274,9.12144,3.7615173,3
30844716017171,-0.2105684,9.111869,3.7615173,3
30844718396077,-0.22013968,9.131011,3.7710886,3
30844720774983,-0.21535404,9.131011,3.751946,3
30844723153889,-0.19621146,9.150154,3.7471602,3
30844725532796,-0.17706887,9.135797,3.7471602,3
30844727911702,-0.16749759,9.116654,3.7280176,3
30844730290608,-0.13878371,9.12144,3.7471602,3
30844732669514,-0.12921242,9.126225,3.737589,3
30844735048473,-0.09571291,9.135797,3.7471602,3
30844737427379,-0.07178468,9.111869,3.7615173,3
30844739806285,-0.038285162,9.116654,3.751946,3
30844742185191,-0.033499517,9.111869,3.7567315,3
30844744564098,-0.0526421,9.12144,3.751946,3
30844746943004,-0.06699903,9.111869,3.7567315,3
30844749321910,-0.06699903,9.126225,3.7663028,3
30844751700816,-0.05742774,9.126225,3.7567315,3
30844754079775,-0.07178468,9.126225,3.7615173,3
30844756458681,-0.05742774,9.159725,3.751946,3
30844758837587,-0.08135597,9.135797,3.7280176,3
30844761216494,-0.10049855,9.145369,3.7471602,3
30844763595400,-0.13878371,9.135797,3.7471602,3
30844765974306,-0.148355,9.131011,3.7567315,3
30844768353212,-0.15314065,9.15494,3.7615173,3
30844770732119,-0.16749759,9.145369,3.7710886,3
30844773111025,-0.15314065,9.145369,3.7663028,3
30844775489983,-0.16271193,9.145369,3.7615173,3
30844777868889,-0.16271193,9.131011,3.7423747,3
30844780247796,-0.13878371,9.140582,3.7280176,3
30844782626702,-0.12921242,9.145369,3.7471602,3
30844785005608,-0.11006984,9.126225,3.7423747,3
30844787384514,-0.086141616,9.131011,3.7423747,3
30844789763421,-0.05742774,9.126225,3.7328033,3
30844792142327,-0.05742774,9.135797,3.7088752,3
30844794521285,-0.0526421,9.126225,3.7328033,3
30844796900191,-0.023928227,9.12144,3.751946,3
30844799279098,-0.033499517,9.111869,3.751946,3
30844801658004,-0.043070808,9.12144,3.7423747,3
30844804036910,-0.0526421,9.126225,3.7423747,3
30844806415816,-0.05742774,9.126225,3.737589,3
30844808794723,-0.10049855,9.116654,3.7423747,3
30844811173629,-0.11964113,9.135797,3.723232,3
30844813552535,-0.15792629,9.145369,3.7280176,3
30844815931494,-0.19142582,9.131011,3.751946,3
30844818310400,-0.17228323,9.111869,3.7710886,3
30844820689306,-0.18664017,9.116654,3.7567315,3
30844823068212,-0.19621146,9.097511,3.7471602,3
30844825447119,-0.2009971,9.116654,3.7471602,3
30844827826025,-0.2009971,9.111869,3.751946,3
30844830204931,-0.19621146,9.126225,3.7567315,3
30844832583837,-0.18185452,9.126225,3.751946,3
30844834962744,-0.18664017,9.126225,3.751946,3
30844837341650,-0.16271193,9.140582,3.751946,3
30844839720608,-0.13878371,9.135797,3.7567315,3
30844842099514,-0.12921242,9.107083,3.7423747,3
30844844478421,-0.1052842,9.131011,3.7423747,3
30844846857327,-0.09092726,9.135797,3.7328033,3
30844849236233,-0.086141616,9.150154,3.737589,3
30844851615139,-0.1052842,9.12144,3.7471602,3
30844853994046,-0.10049855,9.12144,3.7471602,3
30844856373004,-0.11006984,9.12144,3.7615173,3
30844858751910,-0.086141616,9.12144,3.7567315,3
30844861130816,-0.11006984,9.135797,3.7423747,3
30844863509723,-0.11485548,9.140582,3.737589,3
30844865888629,-0.124426775,9.12144,3.737589,3
30844868267535,-0.13878371,9.131011,3.751946,3
30844870646441,-0.12921242,9.116654,3.7567315,3
30844873025348,-0.15314065,9.116654,3.7710886,3
30844875404254,-0.148355,9.116654,3.751946,3
30844877783212,-0.148355,9.131011,3.7328033,3
30844880162119,-0.15792629,9.111869,3.723232,3
30844882541025,-0.17706887,9.140582,3.7184465,3
30844884919931,-0.17228323,9.140582,3.7471602,3
30844887298837,-0.16749759,9.145369,3.7758741,3
30844889677744,-0.14356937,9.135797,3.7854455,3
30844892056650,-0.15792629,9.131011,3.751946,3
30844894435556,-0.148355,9.12144,3.737589,3
30844896814514,-0.13399807,9.135797,3.7136607,3
30844899193421,-0.10049855,9.126225,3.7328033,3
30844901572327,-0.1052842,9.111869,3.7758741,3
30844903951233,-0.09571291,9.116654,3.7758741,3
30844906330035,-0.10049855,9.107083,3.7854455,3
30844908709046,-0.09571291,9.097511,3.7806597,3
30844911087952,-0.08135597,9.111869,3.7615173,3
30844913466858,-0.062213387,9.12144,3.7423747,3
30844915845764,-0.038285162,9.126225,3.751946,3
30844918224723,-0.0526421,9.092726,3.7471602,3
30844920603629,-0.05742774,9.08794,3.7567315,3
30844922982535,-0.08135597,9.111869,3.737589,3
30844925361441,-0.09571291,9.102298,3.7328033,3
30844927740348,-0.09571291,9.08794,3.737589,3
30844930119254,-0.10049855,9.116654,3.7423747,3
30844932498160,-0.14356937,9.116654,3.7567315,3
30844934877066,-0.16271193,9.126225,3.7567315,3
30844937255973,-0.16271193,9.131011,3.7567315,3
30844939634931,-0.18664017,9.140582,3.751946,3
30844942013837,-0.16749759,9.135797,3.751946,3
30844944392744,-0.18185452,9.140582,3.7423747,3
30844946771650,-0.2009971,9.159725,3.7423747,3
30844949150556,-0.18664017,9.135797,3.7328033,3
30844951529462,-0.18664017,9.150154,3.7423747,3
30844953908369,-0.16749759,9.140582,3.7471602,3
30844956287275,-0.14356937,9.116654,3.723232,3
30844958666181,-0.13399807,9.126225,3.7471602,3
30844961045139,-0.11964113,9.111869,3.7471602,3
30844963424046,-0.11485548,9.116654,3.7471602,3
30844965802952,-0.1052842,9.140582,3.7567315,3
30844968181858,-0.1052842,9.12144,3.7567315,3
30844970560764,-0.06699903,9.111869,3.7615173,3
30844972939671,-0.07178468,9.107083,3.7615173,3
30844975318577,-0.06699903,9.12144,3.7615173,3
30844977697483,-0.062213387,9.111869,3.7710886,3
30844980076389,-0.062213387,9.102298,3.7663028,3
30844982455348,-0.06699903,9.111869,3.7615173,3
30844984834254,-0.08135597,9.097511,3.7471602,3
30844987213160,-0.09571291,9.135797,3.7423747,3
30844989592066,-0.11006984,9.126225,3.751946,3
30844991970973,-0.124426775,9.140582,3.751946,3
30844994349879,-0.12921242,9.131011,3.751946,3
30844996728785,-0.16271193,9.140582,3.7471602,3
30844999107691,-0.16749759,9.126225,3.751946,3
30845001486598,-0.18185452,9.131011,3.7710886,3
30845003865556,-0.19621146,9.131011,3.7663028,3
30845006244462,-0.19621146,9.131011,3.7663028,3
30845008623369,-0.19621146,9.135797,3.7663028,3
30845011002275,-0.2009971,9.126225,3.751946,3
30845013381181,-0.16749759,9.145369,3.751946,3
30845015760087,-0.16271193,9.135797,3.7663028,3
30845018138994,-0.14356937,9.12144,3.7806597,3
30845020517952,-0.13399807,9.111869,3.7567315,3
30845022896858,-0.11485548,9.126225,3.751946,3
30845025275764,-0.11485548,9.111869,3.7423747,3
30845027654671,-0.086141616,9.135797,3.7280176,3
30845030033577,-0.076570325,9.140582,3.7423747,3
30845032412483,-0.08135597,9.145369,3.7615173,3
30845034791389,-0.08135597,9.150154,3.7663028,3
30845037170296,-0.08135597,9.12144,3.7567315,3
30845039549202,-0.09092726,9.131011,3.7471602,3
30845041928108,-0.10049855,9.135797,3.737589,3
30845044307066,-0.13878371,9.131011,3.751946,3
30845046685973,-0.124426775,9.107083,3.7663028,3
30845049064879,-0.15314065,9.111869,3.7710886,3
30845051443785,-0.15792629,9.12144,3.7854455,3
30845053822691,-0.17228323,9.140582,3.790231,3
30845056201598,-0.20578274,9.131011,3.7806597,3
30845058580504,-0.19142582,9.131011,3.7471602,3
30845060959410,-0.20578274,9.126225,3.7423747,3
30845063338369,-0.20578274,9.140582,3.7423747,3
30845065717275,-0.23928227,9.140582,3.7615173,3
30845068096181,-0.20578274,9.126225,3.7471602,3
30845070475087,-0.19621146,9.131011,3.7423747,3
30845072853994,-0.2105684,9.131011,3.7471602,3
30845075232900,-0.17228323,9.126225,3.7423747,3
30845077611806,-0.16749759,9.131011,3.7567315,3
30845079990712,-0.148355,9.131011,3.7758741,3
30845082369619,-0.13878371,9.135797,3.7806597,3
30845084748577,-0.12921242,9.131011,3.7615173,3
30845087127483,-0.13399807,9.116654,3.7567315,3
30845089506389,-0.148355,9.126225,3.7423747,3
30845091885296,-0.16271193,9.12144,3.7328033,3
30845094264202,-0.148355,9.131011,3.7280176,3
30845096643108,-0.16749759,9.131011,3.7423747,3
30845099022014,-0.20578274,9.135797,3.7663028,3
30845101400921,-0.21535404,9.135797,3.7710886,3
30845103779827,-0.23928227,9.135797,3.7710886,3
30845106158785,-0.23928227,9.159725,3.751946,3
30845108537691,-0.2536392,9.135797,3.7471602,3
30845110916598,-0.24885355,9.116654,3.7471602,3
30845113295504,-0.25842485,9.111869,3.7710886,3
30845115674410,-0.23928227,9.102298,3.790231,3
30845118053316,-0.23449662,9.102298,3.7950168,3
30845120432223,-0.2440679,9.107083,3.790231,3
30845122811129,-0.2009971,9.097511,3.7615173,3
30845125190035,-0.2009971,9.12144,3.7471602,3
30845127568994,-0.19142582,9.131011,3.7280176,3
30845129947900,-0.19142582,9.111869,3.7280176,3
30845132326806,-0.148355,9.107083,3.7423747,3
30845134705712,-0.14356937,9.111869,3.7615173,3
30845137084619,-0.14356937,9.116654,3.7567315,3
30845139463525,-0.12921242,9.140582,3.751946,3
30845141842431,-0.16749759,9.131011,3.737589,3
30845144221337,-0.15314065,9.092726,3.7184465,3
30845146600244,-0.16271193,9.107083,3.6993039,3
30845148979202,-0.18664017,9.135797,3.7136607,3
30845151358108,-0.2009971,9.135797,3.7328033,3
30845153737014,-0.2105684,9.12144,3.7423747,3
30845156115921,-0.22013968,9.111869,3.7280176,3
30845158494827,-0.23928227,9.102298,3.723232,3
30845160873681,-0.25842485,9.107083,3.7184465,3
30845163252639,-0.26799613,9.145369,3.7088752,3
30845165631546,-0.2440679,9.126225,3.7088752,3
30845168010452,-0.23449662,9.12144,3.7423747,3
30845170389410,-0.2536392,9.116654,3.751946,3
30845172768316,-0.23928227,9.116654,3.751946,3
30845175147223,-0.2105684,9.131011,3.7328033,3
30845177526129,-0.18185452,9.135797,3.7328033,3
30845179905035,-0.18185452,9.126225,3.7280176,3
30845182283941,-0.15792629,9.12144,3.7471602,3
30845184662848,-0.13878371,9.12144,3.7615173,3
30845187041754,-0.13878371,9.12144,3.7710886,3
30845189420712,-0.13878371,9.126225,3.7854455,3
30845191799619,-0.12921242,9.126225,3.7710886,3
30845194178525,-0.13399807,9.126225,3.7471602,3
30845196557431,-0.12921242,9.131011,3.7471602,3
30845198936337,-0.13878371,9.126225,3.7423747,3
30845201315244,-0.12921242,9.126225,3.7567315,3
30845203694150,-0.15314065,9.135797,3.7710886,3
30845206073056,-0.15792629,9.135797,3.7710886,3
30845208451962,-0.16271193,9.126225,3.7998023,3
30845210830921,-0.19142582,9.116654,3.7998023,3
30845213209827,-0.2009971,9.135797,3.7615173,3
30845215588733,-0.20578274,9.126225,3.751946,3
30845217967639,-0.19142582,9.126225,3.751946,3
30845220346546,-0.2009971,9.131011,3.7663028,3
30845222725452,-0.2009971,9.145369,3.7663028,3
30845225104358,-0.19621146,9.116654,3.7615173,3
30845227483264,-0.2009971,9.097511,3.7615173,3
30845229862171,-0.18664017,9.107083,3.7663028,3
30845232241129,-0.19621146,9.116654,3.751946,3
30845234620035,-0.19621146,9.131011,3.7471602,3
30845236998941,-0.18664017,9.150154,3.7471602,3
30845239377848,-0.17228323,9.131011,3.751946,3
30845241756754,-0.19142582,9.12144,3.7423747,3
30845244135660,-0.19621146,9.145369,3.723232,3
30845246514566,-0.2105684,9.116654,3.7184465,3
30845248893473,-0.20578274,9.12144,3.6993039,3
30845251272379,-0.2009971,9.126225,3.7040894,3
30845253651337,-0.22492532,9.131011,3.6993039,3
30845256030244,-0.20578274,9.159725,3.7184465,3
30845258409150,-0.23928227,9.164511,3.7136607,3
30845260788056,-0.23449662,9.12144,3.7040894,3
30845263166962,-0.23928227,9.097511,3.6993039,3
30845265545869,-0.22492532,9.107083,3.6897326,3
30845267924775,-0.23928227,9.131011,3.6897326,3
30845270303681,-0.23928227,9.126225,3.7136607,3
30845272682639,-0.2105684,9.126225,3.7184465,3
30845275061546,-0.2009971,9.12144,3.7471602,3
30845277440452,-0.2009971,9.131011,3.7423747,3
30845279819358,-0.20578274,9.131011,3.7328033,3
30845282198264,-0.19142582,9.131011,3.7184465,3
30845284577171,-0.18185452,9.12144,3.7471602,3
30845286956077,-0.17706887,9.102298,3.7471602,3
30845289334983,-0.17706887,9.111869,3.7758741,3
30845291713889,-0.19621146,9.111869,3.7854455,3
30845294092796,-0.19621146,9.131011,3.7758741,3
30845296471754,-0.19142582,9.12144,3.7710886,3
30845298850660,-0.20578274,9.116654,3.7615173,3
30845301229566,-0.23928227,9.126225,3.7471602,3
30845303608473,-0.2536392,9.116654,3.7280176,3
30845305987379,-0.2727818,9.111869,3.751946,3
30845308366285,-0.29671,9.140582,3.7567315,3
30845310745191,-0.33020952,9.140582,3.7567315,3
30845313124098,-0.3589234,9.135797,3.7471602,3
30845315503004,-0.3589234,9.140582,3.7615173,3
30845317881962,-0.3684947,9.164511,3.7615173,3
30845320260869,-0.38763726,9.174082,3.751946,3
30845322639775,-0.38763726,9.174082,3.7423747,3
30845325018681,-0.37328035,9.178867,3.737589,3
30845327397587,-0.3493521,9.164511,3.7328033,3
30845329776494,-0.33499518,9.140582,3.723232,3
30845332155400,-0.34456646,9.145369,3.7328033,3
30845334534306,-0.32542387,9.126225,3.7423747,3
30845336913264,-0.2632105,9.116654,3.7567315,3
30845339292171,-0.2440679,9.097511,3.7663028,3
30845341671077,-0.20578274,9.12144,3.7615173,3
30845344049983,-0.18185452,9.116654,3.7615173,3
30845346428889,-0.18185452,9.111869,3.7615173,3
30845348807796,-0.16271193,9.107083,3.7806597,3
30845351186702,-0.16271193,9.092726,3.7806597,3
30845353565608,-0.18185452,9.116654,3.7758741,3
30845355944514,-0.18664017,9.116654,3.7950168,3
30845358323473,-0.19621146,9.111869,3.7950168,3
30845360702379,-0.2440679,9.111869,3.7950168,3
30845363081285,-0.2536392,9.111869,3.790231,3
30845365460191,-0.2727818,9.107083,3.804588,3
30845367839098,-0.29671,9.102298,3.8141594,3
30845370218004,-0.31585258,9.111869,3.8237305,3
30845372596910,-0.28235307,9.111869,3.8285162,3
30845374975816,-0.27756742,9.126225,3.8141594,3
30845377354723,-0.2727818,9.140582,3.8141594,3
30845379733681,-0.25842485,9.140582,3.7998023,3
30845382112587,-0.22492532,9.131011,3.7806597,3
30845384491494,-0.2105684,9.116654,3.7854455,3
30845386870400,-0.19621146,9.12144,3.7854455,3
30845389249306,-0.2009971,9.135797,3.7998023,3
30845391628212,-0.17228323,9.140582,3.7806597,3
30845394007119,-0.13878371,9.131011,3.7615173,3
30845396386025,-0.124426775,9.150154,3.737589,3
30845398764931,-0.11006984,9.145369,3.7280176,3
30845401143889,-0.11006984,9.131011,3.737589,3
30845403522796,-0.124426775,9.15494,3.7184465,3
30845405901702,-0.124426775,9.159725,3.723232,3
30845408280608,-0.13399807,9.169296,3.7088752,3
30845410659514,-0.14356937,9.150154,3.694518,3
30845413038421,-0.15314065,9.135797,3.694518,3
30845415417327,-0.16271193,9.150154,3.7136607,3
30845417796233,-0.14356937,9.116654,3.723232,3
30845420175139,-0.148355,9.116654,3.7328033,3
30845422554098,-0.15314065,9.102298,3.737589,3
30845424933004,-0.15792629,9.116654,3.7328033,3
30845427311910,-0.16271193,9.102298,3.7471602,3
30845429690816,-0.16749759,9.111869,3.7423747,3
30845432069723,-0.15792629,9.111869,3.7567315,3
30845434448629,-0.15314065,9.111869,3.7758741,3
30845436827535,-0.15792629,9.116654,3.7758741,3
30845439206441,-0.17228323,9.111869,3.7567315,3
30845441585348,-0.16749759,9.107083,3.7663028,3
30845443964306,-0.13399807,9.111869,3.7471602,3
30845446343212,-0.11006984,9.116654,3.7615173,3
30845448722119,-0.11006984,9.102298,3.7423747,3
30845451101025,-0.076570325,9.102298,3.7423747,3
30845453479931,-0.0526421,9.126225,3.7471602,3
30845455858837,-0.06699903,9.164511,3.7423747,3
30845458237744,-0.06699903,9.164511,3.7184465,3
30845460616650,-0.08135597,9.159725,3.7136607,3
30845462995608,-0.11485548,9.164511,3.723232,3
30845465374514,-0.12921242,9.188439,3.7136607,3
30845467753421,-0.17228323,9.169296,3.723232,3
30845470132327,-0.18664017,9.145369,3.7423747,3
30845472511233,-0.2105684,9.164511,3.751946,3
30845474890139,-0.20578274,9.150154,3.7758741,3
30845477269046,-0.18185452,9.135797,3.7758741,3
30845479647952,-0.14356937,9.12144,3.7854455,3
30845482026858,-0.10049855,9.102298,3.7854455,3
30845484405712,-0.076570325,9.126225,3.7854455,3
30845486784723,-0.023928227,9.12144,3.7950168,3
30845489163629,0.0047856453,9.135797,3.790231,3
30845491542535,0.033499517,9.092726,3.7998023,3
30845493921441,0.023928227,9.092726,3.7854455,3
30845496300348,0.043070808,9.102298,3.7710886,3
30845498679254,0.047856454,9.116654,3.7710886,3
30845501058160,0.023928227,9.116654,3.7854455,3
30845503437066,0.0,9.111869,3.7663028,3
30845505815973,0.014356935,9.102298,3.7710886,3
30845508194931,-0.014356935,9.102298,3.7710886,3
30845510573837,-0.0526421,9.111869,3.7663028,3
30845512952744,-0.076570325,9.135797,3.7710886,3
30845515331650,-0.1052842,9.140582,3.7567315,3
30845517710556,-0.15314065,9.135797,3.7471602,3
30845520089462,-0.17228323,9.135797,3.723232,3
30845522468369,-0.2105684,9.140582,3.7184465,3
30845524847275,-0.2536392,9.159725,3.7136607,3
30845527226233,-0.2536392,9.159725,3.7184465,3
30845529605139,-0.25842485,9.164511,3.7280176,3
30845531984046,-0.24885355,9.140582,3.751946,3
30845534362952,-0.2440679,9.145369,3.7471602,3
30845536741858,-0.24885355,9.140582,3.7280176,3
30845539120764,-0.2105684,9.131011,3.6993039,3
30845541499671,-0.17706887,9.126225,3.6993039,3
30845543878577,-0.124426775,9.131011,3.6897326,3
30845546257483,-0.09092726,9.12144,3.7040894,3
30845548636389,-0.05742774,9.116654,3.7184465,3
30845551015348,-0.033499517,9.116654,3.7184465,3
30845553394254,-0.014356935,9.12144,3.7088752,3
30845555773160,-0.014356935,9.097511,3.7040894,3
30845558152066,-0.019142581,9.116654,3.6897326,3
30845560530973,-0.05742774,9.12144,3.6993039,3
30845562909879,-0.08135597,9.08794,3.723232,3
30845565288785,-0.1052842,9.097511,3.7423747,3
30845567667691,-0.12921242,9.08794,3.7423747,3
30845570046598,-0.16749759,9.092726,3.737589,3
30845572425556,-0.17706887,9.111869,3.737589,3
30845574804462,-0.18185452,9.126225,3.7088752,3
30845577183369,-0.2105684,9.116654,3.7088752,3
30845579562275,-0.22971097,9.131011,3.7184465,3
30845581941181,-0.22971097,9.145369,3.7184465,3
30845584320087,-0.25842485,9.150154,3.7280176,3
30845586698994,-0.24885355,9.150154,3.7184465,3
30845589077900,-0.22492532,9.15494,3.7184465,3
30845591456806,-0.2009971,9.15494,3.7184465,3
30845593835764,-0.18664017,9.145369,3.7184465,3
30845596214671,-0.15314065,9.145369,3.7088752,3
30845598593577,-0.13399807,9.140582,3.723232,3
30845600972483,-0.10049855,9.145369,3.751946,3
30845603351389,-0.086141616,9.15494,3.7710886,3
30845605730296,-0.062213387,9.15494,3.7615173,3
30845608109202,-0.02871387,9.135797,3.7471602,3
30845610488108,-0.023928227,9.126225,3.737589,3
30845612867066,-0.019142581,9.116654,3.7758741,3
30845615245921,-0.047856454,9.102298,3.7710886,3
30845617624879,-0.0526421,9.102298,3.7854455,3
30845620003785,-0.047856454,9.097511,3.7998023,3
30845622382691,-0.07178468,9.092726,3.804588,3
30845624761598,-0.086141616,9.092726,3.7950168,3
30845627140504,-0.086141616,9.08794,3.7854455,3
30845629519410,-0.09092726,9.107083,3.7758741,3
30845631898316,-0.1052842,9.097511,3.7758741,3
30845634277223,-0.11964113,9.102298,3.804588,3
30845636656181,-0.124426775,9.111869,3.818945,3
30845639035087,-0.1052842,9.111869,3.8285162,3
30845641413994,-0.11006984,9.097511,3.7950168,3
30845643792900,-0.10049855,9.107083,3.7950168,3
30845646171806,-0.076570325,9.102298,3.7758741,3
30845648550712,-0.05742774,9.12144,3.7806597,3
30845650929619,-0.047856454,9.116654,3.7854455,3
30845653308525,-0.043070808,9.111869,3.8237305,3
30845655687431,-0.033499517,9.102298,3.8093736,3
30845658066389,-0.038285162,9.102298,3.790231,3
30845660445296,-0.038285162,9.092726,3.7758741,3
30845662824202,-0.02871387,9.102298,3.7615173,3
30845665203108,-0.02871387,9.107083,3.7471602,3
30845667582014,-0.047856454,9.116654,3.737589,3
30845669960921,-0.062213387,9.116654,3.7663028,3
30845672339827,-0.076570325,9.107083,3.7710886,3
30845674718733,-0.09571291,9.111869,3.7423747,3
30845677097639,-0.1052842,9.140582,3.7184465,3
30845679476598,-0.11485548,9.145369,3.7184465,3
30845681855504,-0.13878371,9.140582,3.723232,3
30845684234410,-0.15314065,9.111869,3.7280176,3
30845686613316,-0.19142582,9.111869,3.737589,3
30845688992223,-0.20578274,9.131011,3.7423747,3
30845691371129,-0.2105684,9.131011,3.7136607,3
30845693750035,-0.2009971,9.140582,3.6897326,3
30845696128941,-0.21535404,9.150154,3.694518,3
30845698507848,-0.19142582,9.140582,3.7136607,3
30845700886806,-0.16271193,9.150154,3.7423747,3
30845703265660,-0.15314065,9.145369,3.7615173,3
30845705644619,-0.13399807,9.135797,3.7567315,3
30845708023525,-0.1052842,9.140582,3.737589,3
30845710402431,-0.06699903,9.126225,3.751946,3
30845712781337,-0.05742774,9.111869,3.7567315,3
30845715160244,-0.0526421,9.111869,3.7615173,3
30845717539150,-0.033499517,9.102298,3.7710886,3
30845719918108,-0.014356935,9.097511,3.7806597,3
30845722297014,-0.009571291,9.102298,3.7806597,3
30845724675921,-0.014356935,9.135797,3.7471602,3
30845727054827,-0.0047856453,9.116654,3.7471602,3
30845729433733,-0.019142581,9.126225,3.751946,3
30845731812639,-0.05742774,9.131011,3.7710886,3
30845734191546,-0.07178468,9.111869,3.7950168,3
30845736570452,-0.05742774,9.12144,3.8093736,3
30845738949358,-0.062213387,9.12144,3.7854455,3
30845741328264,-0.076570325,9.150154,3.751946,3
30845743707223,-0.062213387,9.169296,3.7040894,3
30845746086129,-0.08135597,9.15494,3.7184465,3
30845748465035,-0.06699903,9.135797,3.7328033,3
30845750843941,-0.07178468,9.150154,3.7328033,3
30845753222848,-0.076570325,9.164511,3.737589,3
30845755601754,-0.08135597,9.164511,3.7423747,3
30845757980660,-0.07178468,9.159725,3.7184465,3
30845760359566,-0.06699903,9.183653,3.6993039,3
30845762738473,-0.043070808,9.169296,3.7088752,3
30845765117431,-0.05742774,9.174082,3.737589,3
30845767496337,-0.043070808,9.15494,3.737589,3
30845769875244,-0.047856454,9.150154,3.7567315,3
30845772254150,-0.043070808,9.135797,3.7471602,3
30845774633056,-0.0526421,9.131011,3.751946,3
30845777011962,-0.033499517,9.159725,3.7567315,3
30845779390869,-0.033499517,9.150154,3.7758741,3
30845781769775,-0.06699903,9.135797,3.7806597,3
30845784148681,-0.08135597,9.159725,3.804588,3
30845786527639,-0.086141616,9.140582,3.804588,3
30845788906546,-0.1052842,9.131011,3.7998023,3
30845791285452,-0.11964113,9.126225,3.7758741,3
30845793664358,-0.148355,9.15494,3.7854455,3
30845796043264,-0.15792629,9.135797,3.7710886,3
30845798422171,-0.15314065,9.140582,3.7950168,3
30845800801025,-0.18185452,9.12144,3.7950168,3
30845803179983,-0.16749759,9.135797,3.7950168,3
30845805558889,-0.15792629,9.12144,3.790231,3
30845807937796,-0.13878371,9.111869,3.7567315,3
30845810316754,-0.14356937,9.126225,3.7328033,3
30845812695660,-0.11485548,9.145369,3.7184465,3
30845815074566,-0.11485548,9.15494,3.737589,3
30845817453473,-0.11964113,9.116654,3.751946,3
30845819832379,-0.124426775,9.126225,3.7567315,3
30845822211285,-0.13878371,9.135797,3.751946,3
30845824590191,-0.11964113,9.131011,3.7423747,3
30845826969098,-0.1052842,9.116654,3.7136607,3
30845829348056,-0.12921242,9.150154,3.7088752,3
30845831726962,-0.11485548,9.145369,3.7184465,3
30845834105869,-0.12921242,9.145369,3.7184465,3
30845836484775,-0.14356937,9.12144,3.7471602,3
30845838863681,-0.17228323,9.12144,3.751946,3
30845841242587,-0.19142582,9.126225,3.7423747,3
30845843621494,-0.19142582,9.131011,3.723232,3
30845846000400,-0.19142582,9.102298,3.7471602,3
30845848379306,-0.2009971,9.092726,3.7280176,3
30845850758264,-0.2105684,9.102298,3.7088752,3
30845853137171,-0.23449662,9.107083,3.7280176,3
30845855516077,-0.23928227,9.126225,3.7280176,3
30845857894983,-0.22492532,9.102298,3.7280176,3
30845860273889,-0.22492532,9.092726,3.7423747,3
30845862652796,-0.18664017,9.107083,3.7328033,3
30845865031702,-0.16271193,9.097511,3.737589,3
30845867410608,-0.12921242,9.092726,3.751946,3
30845869789514,-0.09092726,9.131011,3.751946,3
30845872168421,-0.06699903,9.140582,3.723232,3
30845874547379,-0.08135597,9.140582,3.6897326,3
30845876926285,-0.047856454,9.15494,3.6993039,3
30845879305191,-0.02871387,9.15494,3.694518,3
30845881684098,-0.019142581,9.140582,3.7136607,3
30845884063004,-0.033499517,9.140582,3.7471602,3
30845886441910,-0.043070808,9.159725,3.7328033,3
30845888820816,-0.06699903,9.131011,3.723232,3
30845891199723,-0.06699903,9.126225,3.694518,3
30845893578577,-0.09092726,9.131011,3.694518,3
30845895957587,-0.1052842,9.131011,3.7136607,3
30845898336494,-0.10049855,9.135797,3.737589,3
30845900715400,-0.1052842,9.135797,3.7806597,3
30845903094306,-0.124426775,9.140582,3.7806597,3
30845905473212,-0.11964113,9.126225,3.7758741,3
30845907852119,-0.13878371,9.131011,3.7328033,3
30845910231025,-0.14356937,9.140582,3.723232,3
30845912609931,-0.14356937,9.12144,3.7328033,3
30845914988889,-0.13399807,9.135797,3.7567315,3
30845917367796,-0.13399807,9.131011,3.7806597,3
30845919746702,-0.148355,9.131011,3.7806597,3
30845922125608,-0.148355,9.140582,3.7423747,3
30845924504514,-0.12921242,9.140582,3.7615173,3
30845926883421,-0.11964113,9.150154,3.7663028,3
30845929262327,-0.11485548,9.131011,3.7854455,3
30845931641233,-0.11964113,9.131011,3.7998023,3
30845934020139,-0.124426775,9.131011,3.790231,3
30845936399098,-0.13878371,9.12144,3.7950168,3
30845938778004,-0.11006984,9.126225,3.7806597,3
30845941156910,-0.11964113,9.107083,3.7710886,3
30845943535816,-0.11964113,9.111869,3.7471602,3
30845945914723,-0.13878371,9.12144,3.7423747,3
30845948293629,-0.12921242,9.111869,3.7710886,3
30845950672535,-0.11006984,9.08794,3.7950168,3
30845953051441,-0.11006984,9.092726,3.790231,3
30845955430348,-0.11006984,9.107083,3.7854455,3
30845957809254,-0.13878371,9.131011,3.751946,3
30845960188212,-0.14356937,9.102298,3.7136607,3
30845962567066,-0.148355,9.126225,3.7088752,3
30845964946025,-0.148355,9.12144,3.7423747,3
30845967324931,-0.15792629,9.145369,3.7567315,3
30845969703837,-0.17706887,9.135797,3.751946,3
30845972082744,-0.2009971,9.159725,3.7423747,3
30845974461650,-0.19621146,9.174082,3.7184465,3
30845976840556,-0.2105684,9.174082,3.694518,3
30845979219462,-0.20578274,9.174082,3.6801612,3
30845981598421,-0.2009971,9.169296,3.7040894,3
30845983977327,-0.2009971,9.164511,3.7184465,3
30845986356233,-0.18664017,9.164511,3.723232,3
30845988735139,-0.17706887,9.159725,3.7136607,3
30845991114046,-0.14356937,9.15494,3.694518,3
30845993492952,-0.12921242,9.126225,3.6897326,3
30845995871858,-0.09571291,9.135797,3.67059,3
30845998250764,-0.09571291,9.164511,3.6658044,3
30846000629671,-0.11964113,9.135797,3.6993039,3
30846003008577,-0.124426775,9.126225,3.7280176,3
30846005387535,-0.11485548,9.126225,3.7423747,3
30846007766441,-0.11964113,9.116654,3.737589,3
30846010145348,-0.124426775,9.116654,3.7280176,3
30846012524254,-0.12921242,9.116654,3.7280176,3
30846014903160,-0.13878371,9.102298,3.737589,3
30846017282066,-0.14356937,9.08794,3.7663028,3
30846019660973,-0.15792629,9.097511,3.7854455,3
30846022039879,-0.148355,9.111869,3.7854455,3
30846024418837,-0.2009971,9.131011,3.7615173,3
30846026797744,-0.20578274,9.15494,3.7280176,3
30846029176650,-0.22971097,9.126225,3.7184465,3
30846031555556,-0.2536392,9.131011,3.7136607,3
30846033934462,-0.2536392,9.131011,3.7615173,3
30846036313369,-0.2536392,9.140582,3.7806597,3
30846038692275,-0.24885355,9.135797,3.7710886,3
30846041071181,-0.2727818,9.145369,3.7710886,3
30846043450087,-0.25842485,9.135797,3.7710886,3
30846045829046,-0.26799613,9.12144,3.751946,3
30846048207952,-0.2440679,9.131011,3.7567315,3
30846050586858,-0.24885355,9.126225,3.7663028,3
30846052965764,-0.24885355,9.131011,3.751946,3
30846055344671,-0.23928227,9.116654,3.7758741,3
30846057723577,-0.22492532,9.131011,3.7710886,3
30846060102483,-0.22013968,9.116654,3.7710886,3
30846062481389,-0.22013968,9.111869,3.7663028,3
30846064860296,-0.2105684,9.111869,3.751946,3
30846067239202,-0.21535404,9.097511,3.7758741,3
30846069618108,-0.22492532,9.131011,3.7710886,3
30846071997066,-0.19621146,9.12144,3.7663028,3
30846074375973,-0.20578274,9.135797,3.7615173,3
30846076754879,-0.2105684,9.126225,3.751946,3
30846079133785,-0.20578274,9.102298,3.751946,3
30846081512691,-0.22492532,9.107083,3.7423747,3
30846083891598,-0.21535404,9.111869,3.7663028,3
30846086270504,-0.24885355,9.111869,3.7663028,3
30846088649410,-0.23928227,9.135797,3.7615173,3
30846091028369,-0.24885355,9.140582,3.7280176,3
30846093407275,-0.2536392,9.135797,3.7423747,3
30846095786181,-0.24885355,9.15494,3.751946,3
30846098165087,-0.23449662,9.145369,3.7615173,3
30846100543994,-0.22492532,9.126225,3.751946,3
30846102922900,-0.22971097,9.135797,3.7567315,3
30846105301806,-0.22492532,9.140582,3.7663028,3
30846107680712,-0.19621146,9.107083,3.7758741,3
30846110059619,-0.19621146,9.116654,3.737589,3
30846112438577,-0.15792629,9.12144,3.7088752,3
30846114817483,-0.15314065,9.140582,3.694518,3
30846117196389,-0.14356937,9.150154,3.694518,3
30846119575296,-0.13399807,9.169296,3.7040894,3
30846121954202,-0.15792629,9.178867,3.737589,3
30846124333108,-0.15792629,9.169296,3.7567315,3
30846126712014,-0.14356937,9.188439,3.7471602,3
30846129090921,-0.16271193,9.145369,3.7280176,3
30846131469827,-0.17228323,9.140582,3.7280176,3
30846133848785,-0.17228323,9.150154,3.7328033,3
30846136227639,-0.18185452,9.145369,3.7663028,3
30846138606598,-0.2105684,9.116654,3.737589,3
30846140985504,-0.21535404,9.126225,3.7471602,3
30846143364410,-0.22492532,9.131011,3.7567315,3
30846145743316,-0.22492532,9.111869,3.7328033,3
30846148122223,-0.22971097,9.145369,3.7280176,3
30846150501129,-0.23449662,9.140582,3.7280176,3
30846152880035,-0.2632105,9.145369,3.7423747,3
30846155258994,-0.23449662,9.135797,3.7663028,3
30846157637900,-0.2105684,9.116654,3.7758741,3
30846160016806,-0.19621146,9.12144,3.7806597,3
30846162395712,-0.19142582,9.126225,3.7854455,3
30846164774619,-0.18664017,9.116654,3.737589,3
30846167153473,-0.16271193,9.116654,3.7328033,3
30846169532431,-0.15314065,9.12144,3.751946,3
30846171911337,-0.16749759,9.135797,3.7423747,3
30846174290244,-0.16749759,9.126225,3.737589,3
30846176669150,-0.148355,9.111869,3.7280176,3
30846179048108,-0.148355,9.08794,3.7280176,3
30846181427014,-0.15792629,9.107083,3.723232,3
30846183805921,-0.16749759,9.131011,3.7328033,3
30846186184827,-0.16749759,9.126225,3.723232,3
30846188563733,-0.20578274,9.116654,3.737589,3
30846190942639,-0.19142582,9.116654,3.7280176,3
30846193321546,-0.18664017,9.126225,3.7280176,3
30846195700452,-0.20578274,9.140582,3.7040894,3
30846198079410,-0.2009971,9.150154,3.6993039,3
30846200458316,-0.19142582,9.15494,3.694518,3
30846202837223,-0.2009971,9.150154,3.7040894,3
30846205216129,-0.19621146,9.169296,3.723232,3
30846207595035,-0.2009971,9.164511,3.7423747,3
30846209973941,-0.18185452,9.164511,3.7471602,3
30846212352848,-0.17228323,9.15494,3.7423747,3
30846214731754,-0.17706887,9.164511,3.751946,3
30846217110660,-0.148355,9.145369,3.751946,3
30846219489566,-0.18185452,9.131011,3.7663028,3
30846221868525,-0.17228323,9.150154,3.7806597,3
30846224247431,-0.18664017,9.111869,3.7998023,3
30846226626337,-0.17228323,9.126225,3.804588,3
30846229005244,-0.17228323,9.116654,3.7998023,3
30846231384150,-0.19621146,9.092726,3.7615173,3
30846233763056,-0.19621146,9.116654,3.7471602,3
30846236141962,-0.20578274,9.12144,3.7567315,3
30846238520869,-0.17706887,9.12144,3.7615173,3
30846240899827,-0.18185452,9.107083,3.7854455,3
30846243278733,-0.2009971,9.08794,3.790231,3
30846245657639,-0.2009971,9.097511,3.7663028,3
30846248036546,-0.17706887,9.092726,3.7471602,3
30846250415452,-0.15314065,9.102298,3.7328033,3
30846252794358,-0.16271193,9.092726,3.7328033,3
30846255173264,-0.16271193,9.097511,3.737589,3
30846257552171,-0.17706887,9.12144,3.7280176,3
30846259931077,-0.18185452,9.116654,3.7088752,3
30846262309983,-0.18664017,9.126225,3.694518,3
30846264688941,-0.20578274,9.140582,3.694518,3
30846267067848,-0.2105684,9.140582,3.6897326,3
30846269446754,-0.2009971,9.131011,3.7088752,3
30846271825660,-0.2009971,9.159725,3.7328033,3
30846274204566,-0.22013968,9.15494,3.7280176,3
30846276583473,-0.21535404,9.164511,3.7328033,3
30846278962379,-0.20578274,9.15494,3.7280176,3
30846281341285,-0.19142582,9.169296,3.7184465,3
30846283720191,-0.18185452,9.188439,3.7184465,3
30846286099150,-0.18664017,9.178867,3.723232,3
30846288478056,-0.17706887,9.183653,3.7615173,3
30846290856962,-0.18664017,9.145369,3.7663028,3
30846293235869,-0.19142582,9.164511,3.751946,3
30846295614775,-0.17228323,9.150154,3.7567315,3
30846297993681,-0.18664017,9.131011,3.7423747,3
30846300372587,-0.17706887,9.12144,3.7615173,3
30846302751494,-0.17706887,9.097511,3.7663028,3
30846305130452,-0.15314065,9.092726,3.7710886,3
30846307509306,-0.13399807,9.092726,3.7854455,3
30846309888264,-0.11964113,9.083155,3.7615173,3
30846312267171,-0.09571291,9.08794,3.7328033,3
30846314646077,-0.076570325,9.08794,3.7423747,3
30846317024983,-0.09571291,9.102298,3.7663028,3
30846319403889,-0.11006984,9.102298,3.7806597,3
30846321782796,-0.11485548,9.097511,3.7663028,3
30846324161702,-0.12921242,9.116654,3.7615173,3
30846326540608,-0.13399807,9.135797,3.7280176,3
30846328919514,-0.12921242,9.131011,3.723232,3
30846331298473,-0.14356937,9.135797,3.7280176,3
30846333677379,-0.16271193,9.126225,3.7423747,3
30846336056285,-0.19621146,9.131011,3.7471602,3
30846338435191,-0.22971097,9.135797,3.737589,3
30846340814098,-0.2536392,9.140582,3.7136607,3
30846343193004,-0.2440679,9.169296,3.6801612,3
30846345571910,-0.2440679,9.169296,3.7136607,3
30846347950816,-0.2632105,9.178867,3.7040894,3
30846350329775,-0.29192436,9.169296,3.7088752,3
30846352708681,-0.26799613,9.164511,3.723232,3
30846355087587,-0.24885355,9.135797,3.723232,3
30846357466494,-0.22013968,9.131011,3.7471602,3
30846359845400,-0.17706887,9.140582,3.737589,3
30846362224306,-0.15314065,9.126225,3.7136607,3
30846364603212,-0.14356937,9.145369,3.723232,3
30846366982119,-0.11485548,9.131011,3.7423747,3
30846369361025,-0.09571291,9.116654,3.7471602,3
30846371739983,-0.06699903,9.12144,3.7423747,3
30846374118889,-0.02871387,9.116654,3.7471602,3
30846376497796,-0.033499517,9.126225,3.7615173,3
30846378876650,-0.05742774,9.135797,3.7806597,3
30846381255608,-0.033499517,9.111869,3.7615173,3
30846383634514,-0.019142581,9.116654,3.7615173,3
30846386013421,-0.047856454,9.107083,3.7423747,3
30846388392327,-0.09092726,9.111869,3.7471602,3
30846390771233,-0.1052842,9.102298,3.7471602,3
30846393150139,-0.13399807,9.097511,3.7567315,3
30846395529098,-0.18185452,9.083155,3.751946,3
30846397908004,-0.19142582,9.116654,3.7471602,3
30846400286910,-0.20578274,9.131011,3.737589,3
30846402665816,-0.19621146,9.135797,3.7471602,3
30846405044723,-0.22492532,9.131011,3.7471602,3
30846407423629,-0.2632105,9.135797,3.7854455,3
30846409802535,-0.23449662,9.116654,3.790231,3
30846412181441,-0.21535404,9.116654,3.7758741,3
30846414560348,-0.19621146,9.131011,3.7280176,3
30846416939306,-0.2105684,9.126225,3.7423747,3
30846419318212,-0.19142582,9.131011,3.7471602,3
30846421697119,-0.18185452,9.145369,3.7423747,3
30846424076025,-0.14356937,9.159725,3.7423747,3
30846426454931,-0.10049855,9.145369,3.737589,3
30846428833837,-0.062213387,9.145369,3.7040894,3
30846431212744,-0.07178468,9.140582,3.6897326,3
30846433591650,-0.047856454,9.159725,3.7088752,3
30846435970556,-0.023928227,9.169296,3.7328033,3
30846438349514,-0.023928227,9.140582,3.7423747,3
30846440728421,-0.023928227,9.145369,3.7423747,3
30846443107327,-0.023928227,9.131011,3.7328033,3
30846445486233,-0.047856454,9.140582,3.7088752,3
30846447865139,-0.0526421,9.116654,3.7088752,3
30846450244046,-0.086141616,9.102298,3.7280176,3
30846452622952,-0.086141616,9.111869,3.7423747,3
30846455001858,-0.1052842,9.126225,3.723232,3
30846457380764,-0.124426775,9.12144,3.7040894,3
30846459759723,-0.13878371,9.107083,3.723232,3
30846462138629,-0.15792629,9.092726,3.7615173,3
30846464517535,-0.14356937,9.102298,3.7806597,3
30846466896441,-0.13878371,9.102298,3.7854455,3
30846469275348,-0.13399807,9.126225,3.7758741,3
30846471654254,-0.11485548,9.145369,3.7615173,3
30846474033160,-0.076570325,9.159725,3.7423747,3
30846476412066,-0.076570325,9.15494,3.7567315,3
30846478790973,-0.062213387,9.183653,3.7758741,3
30846481169879,-0.07178468,9.188439,3.7806597,3
30846483548837,-0.062213387,9.178867,3.790231,3
30846485927744,-0.06699903,9.150154,3.7615173,3
30846488306650,-0.09571291,9.159725,3.7615173,3
30846490685556,-0.10049855,9.131011,3.7567315,3
30846493064462,-0.086141616,9.116654,3.7567315,3
30846495443369,-0.11964113,9.131011,3.751946,3
30846497822275,-0.13399807,9.140582,3.7615173,3
