t_ns,ax,ay,az,bx,by,bz
21846310232325,-0.5599205,8.805588,4.2448673,0.0,0.0,0.0
21846312611284,-0.6029913,8.819944,4.2257247,0.0,0.0,0.0
21846314990242,-0.66999036,8.834301,4.2927237,0.0,0.0,0.0
21846317369148,-0.7704889,8.829515,4.3501515,0.0,0.0,0.0
21846319748106,-0.8997013,8.834301,4.4171505,0.0,0.0,0.0
21846322127065,-1.0097711,8.843872,4.4554358,0.0,0.0,0.0
21846324506023,-1.1246266,8.867801,4.469793,0.0,0.0,0.0
21846326884929,-1.1629118,8.848659,4.426722,0.0,0.0,0.0
21846329263888,-1.2490535,8.839087,4.412365,0.0,0.0,0.0
21846331642846,-1.2777673,8.843872,4.4075794,0.0,0.0,0.0
21846334021804,-1.282553,8.843872,4.4075794,0.0,0.0,0.0
21846336400711,-1.2634103,8.863015,4.412365,0.0,0.0,0.0
21846338779669,-1.253839,8.882157,4.388437,0.0,0.0,0.0
21846341158627,-1.2059826,8.891729,4.3405805,0.0,0.0,0.0
21846343537586,-1.1485549,8.915657,4.254439,0.0,0.0,0.0
21846345916492,-1.0959128,8.915657,4.220939,0.0,0.0,0.0
21846348295450,-1.0145568,8.944371,4.2017965,0.0,0.0,0.0
21846350674409,-0.971486,8.958728,4.182654,0.0,0.0,0.0
21846353053315,-0.9379865,8.944371,4.168297,0.0,0.0,0.0
21846355432273,-0.89491564,8.925228,4.168297,0.0,0.0,0.0
21846357811231,-0.8997013,8.925228,4.1491547,0.0,0.0,0.0
21846360190190,-0.91884387,8.906086,4.15394,0.0,0.0,0.0
21846362569096,-0.91884387,8.886943,4.1491547,0.0,0.0,0.0
21846364948054,-0.95712906,8.867801,4.1443686,0.0,0.0,0.0
21846367327013,-0.9906286,8.877372,4.1874394,0.0,0.0,0.0
21846369705971,-0.9667004,8.872586,4.2352962,0.0,0.0,0.0
21846372084929,-0.98584294,8.853444,4.273581,0.0,0.0,0.0
21846374463836,-0.9954142,8.834301,4.2831526,0.0,0.0,0.0
21846376842794,-0.9810573,8.839087,4.273581,0.0,0.0,0.0
21846379221752,-0.95712906,8.834301,4.254439,0.0,0.0,0.0
21846381600659,-0.9284152,8.819944,4.220939,0.0,0.0,0.0
21846383979617,-0.91884387,8.834301,4.2257247,0.0,0.0,0.0
21846386358575,-0.8805587,8.82473,4.240082,0.0,0.0,0.0
21846388737534,-0.8422736,8.805588,4.2352962,0.0,0.0,0.0
21846391116440,-0.7896315,8.82473,4.240082,0.0,0.0,0.0
21846393495398,-0.76570326,8.819944,4.23051,0.0,0.0,0.0
21846395874356,-0.74177504,8.819944,4.206582,0.0,0.0,0.0
21846398253315,-0.7322037,8.82473,4.2017965,0.0,0.0,0.0
21846400632221,-0.7322037,8.82473,4.197011,0.0,0.0,0.0
21846403011179,-0.7322037,8.815159,4.2161536,0.0,0.0,0.0
21846405390138,-0.7513463,8.815159,4.2448673,0.0,0.0,0.0
21846407769096,-0.7609176,8.819944,4.26401,0.0,0.0,0.0
21846410148002,-0.7848458,8.819944,4.302295,0.0,0.0,0.0
21846412526961,-0.8327023,8.82473,4.331009,0.0,0.0,0.0
21846414905919,-0.8662018,8.815159,4.388437,0.0,0.0,0.0
21846417284877,-0.8997013,8.796016,4.3932223,0.0,0.0,0.0
21846419663784,-0.91884387,8.786445,4.421936,0.0,0.0,0.0
21846422042742,-0.9379865,8.796016,4.4410787,0.0,0.0,0.0
21846424421648,-0.91884387,8.810373,4.421936,0.0,0.0,0.0
21846426800659,-0.8709874,8.810373,4.4075794,0.0,0.0,0.0
21846429179513,-0.8662018,8.7673025,4.3836513,0.0,0.0,0.0
21846431558523,-0.8470592,8.762517,4.331009,0.0,0.0,0.0
21846433937481,-0.8135597,8.776874,4.273581,0.0,0.0,0.0
21846436316440,-0.7704889,8.7673025,4.240082,0.0,0.0,0.0
21846438695346,-0.7752745,8.79123,4.211368,0.0,0.0,0.0
21846441074304,-0.7752745,8.781659,4.1778684,0.0,0.0,0.0
21846443453263,-0.8039884,8.79123,4.1443686,0.0,0.0,0.0
21846445832221,-0.85184485,8.82473,4.1491547,0.0,0.0,0.0
21846448211127,-0.91884387,8.839087,4.1635113,0.0,0.0,0.0
21846450590086,-0.9810573,8.853444,4.1443686,0.0,0.0,0.0
21846452969044,-1.052842,8.9013,4.130012,0.0,0.0,0.0
21846455348002,-1.1294123,8.9348,4.1347976,0.0,0.0,0.0
21846457726909,-1.2059826,8.953942,4.1587257,0.0,0.0,0.0
21846460105867,-1.282553,8.963513,4.197011,0.0,0.0,0.0
21846462484825,-1.3351951,8.968299,4.249653,0.0,0.0,0.0
21846464863784,-1.3782659,8.9826565,4.278367,0.0,0.0,0.0
21846467242690,-1.4069797,8.973084,4.2831526,0.0,0.0,0.0
21846469621648,-1.3926228,8.977871,4.240082,0.0,0.0,0.0
21846472000606,-1.3830515,8.963513,4.249653,0.0,0.0,0.0
21846474379565,-1.3208381,8.949157,4.240082,0.0,0.0,0.0
21846476758471,-1.2346965,8.920443,4.249653,0.0,0.0,0.0
21846479137429,-1.1533405,8.882157,4.240082,0.0,0.0,0.0
21846481516388,-1.0671989,8.882157,4.2592244,0.0,0.0,0.0
21846483895346,-0.971486,8.863015,4.278367,0.0,0.0,0.0
21846486274252,-0.89013004,8.867801,4.2592244,0.0,0.0,0.0
21846488653211,-0.79441714,8.839087,4.2448673,0.0,0.0,0.0
21846491032169,-0.7513463,8.848659,4.23051,0.0,0.0,0.0
21846493411127,-0.6891329,8.839087,4.240082,0.0,0.0,0.0
21846495790034,-0.6652047,8.815159,4.2448673,0.0,0.0,0.0
21846498168992,-0.65084773,8.815159,4.2592244,0.0,0.0,0.0
21846500547898,-0.67477596,8.815159,4.2687955,0.0,0.0,0.0
21846502926909,-0.7082755,8.82473,4.316652,0.0,0.0,0.0
21846505305815,-0.74177504,8.810373,4.3501515,0.0,0.0,0.0
21846507684773,-0.7704889,8.82473,4.359723,0.0,0.0,0.0
21846510063731,-0.8709874,8.796016,4.3788652,0.0,0.0,0.0
21846512442638,-0.9284152,8.805588,4.421936,0.0,0.0,0.0
21846514821596,-0.9667004,8.834301,4.436293,0.0,0.0,0.0
21846517200554,-1.0001999,8.829515,4.4075794,0.0,0.0,0.0
21846519579513,-1.0432707,8.82473,4.3645086,0.0,0.0,0.0
21846521958471,-1.0767702,8.839087,4.2831526,0.0,0.0,0.0
21846524337377,-1.0767702,8.853444,4.240082,0.0,0.0,0.0
21846526716336,-1.052842,8.85823,4.2352962,0.0,0.0,0.0
21846529095294,-1.0432707,8.848659,4.2352962,0.0,0.0,0.0
21846531474200,-1.0432707,8.82473,4.23051,0.0,0.0,0.0
21846533853159,-1.052842,8.82473,4.197011,0.0,0.0,0.0
21846536232117,-1.0097711,8.843872,4.139583,0.0,0.0,0.0
21846538611075,-0.98584294,8.839087,4.0773697,0.0,0.0,0.0
21846540989981,-0.9619147,8.834301,4.0534415,0.0,0.0,0.0
21846543368940,-0.9523434,8.843872,4.0677986,0.0,0.0,0.0
21846545747898,-0.9619147,8.819944,4.106084,0.0,0.0,0.0
21846548126856,-0.93320084,8.781659,4.1347976,0.0,0.0,0.0
21846550505815,-0.93320084,8.776874,4.168297,0.0,0.0,0.0
21846552884721,-0.9523434,8.772088,4.1587257,0.0,0.0,0.0
21846555263679,-0.9762716,8.79123,4.1491547,0.0,0.0,0.0
21846557642638,-0.95712906,8.800801,4.1108694,0.0,0.0,0.0
21846560021544,-0.9092726,8.810373,4.082155,0.0,0.0,0.0
21846562400502,-0.9092726,8.834301,4.106084,0.0,0.0,0.0
21846564779461,-0.91884387,8.834301,4.173083,0.0,0.0,0.0
21846567158419,-0.91884387,8.85823,4.2352962,0.0,0.0,0.0
21846569537377,-0.95712906,8.891729,4.254439,0.0,0.0,0.0
21846571916231,-1.0193424,8.9013,4.240082,0.0,0.0,0.0
21846574295242,-1.0719845,8.920443,4.2161536,0.0,0.0,0.0
21846576674200,-1.1389836,8.915657,4.211368,0.0,0.0,0.0
21846579053106,-1.2155539,8.944371,4.2257247,0.0,0.0,0.0
21846581432065,-1.268196,8.915657,4.206582,0.0,0.0,0.0
21846583811023,-1.2634103,8.867801,4.168297,0.0,0.0,0.0
21846586189981,-1.2634103,8.9826565,4.3645086,0.0,0.0,0.0
21846588568888,-1.3399807,8.882157,4.5272202,0.0,0.0,0.0
21846590947846,-1.3686945,8.781659,4.546363,0.0,0.0,0.0
21846593326804,-1.3016955,8.9013,4.4841495,0.0,0.0,0.0
21846595705763,-1.2634103,8.930014,4.3118663,0.0,0.0,0.0
21846598084669,-1.2634103,8.877372,4.211368,0.0,0.0,0.0
21846600463627,-1.1820544,8.872586,4.2831526,0.0,0.0,0.0
21846602842586,-1.1246266,8.925228,4.4075794,0.0,0.0,0.0
21846605221544,-1.0815558,8.843872,4.4889355,0.0,0.0,0.0
21846607600450,-1.0097711,8.839087,4.503292,0.0,0.0,0.0
21846609979409,-0.90448695,8.915657,4.421936,0.0,0.0,0.0
21846612358367,-0.8279166,8.906086,4.2592244,0.0,0.0,0.0
21846614737325,-0.74177504,8.886943,4.15394,0.0,0.0,0.0
21846617116231,-0.6795616,8.896515,4.173083,0.0,0.0,0.0
21846619495190,-0.6652047,8.9108715,4.249653,0.0,0.0,0.0
21846621874148,-0.6364908,8.863015,4.278367,0.0,0.0,0.0
21846624253106,-0.59342,8.882157,4.316652,0.0,0.0,0.0
21846626632013,-0.55513483,8.896515,4.2975097,0.0,0.0,0.0
21846629010971,-0.59342,8.853444,4.211368,0.0,0.0,0.0
21846631389929,-0.6125626,8.839087,4.139583,0.0,0.0,0.0
21846633768888,-0.6364908,8.834301,4.1347976,0.0,0.0,0.0
21846636147794,-0.72263247,8.819944,4.139583,0.0,0.0,0.0
21846638526752,-0.7848458,8.796016,4.1922255,0.0,0.0,0.0
21846640905711,-0.83748794,8.805588,4.211368,0.0,0.0,0.0
21846643284669,-0.8709874,8.805588,4.2161536,0.0,0.0,0.0
21846645663575,-0.8853444,8.786445,4.1922255,0.0,0.0,0.0
21846648042534,-0.86141616,8.819944,4.15394,0.0,0.0,0.0
21846650421492,-0.85184485,8.839087,4.082155,0.0,0.0,0.0
21846652800450,-0.8662018,8.85823,4.0534415,0.0,0.0,0.0
21846655179356,-0.89013004,8.882157,4.0534415,0.0,0.0,0.0
21846657558315,-0.91405827,8.891729,4.1108694,0.0,0.0,0.0
21846659937273,-0.94277215,8.9013,4.168297,0.0,0.0,0.0
21846662316231,-0.98584294,8.882157,4.182654,0.0,0.0,0.0
21846664695138,-1.0432707,8.877372,4.173083,0.0,0.0,0.0
21846667074096,-1.119841,8.886943,4.15394,0.0,0.0,0.0
21846669453054,-1.1916257,8.882157,4.139583,0.0,0.0,0.0
21846671831961,-1.2394822,8.839087,4.182654,0.0,0.0,0.0
21846674210919,-1.2634103,8.829515,4.254439,0.0,0.0,0.0
21846676589877,-1.2921243,8.800801,4.3070807,0.0,0.0,0.0
21846678968836,-1.282553,8.762517,4.3357944,0.0,0.0,0.0
21846681347794,-1.268196,8.752945,4.3501515,0.0,0.0,0.0
21846683726700,-1.2394822,8.762517,4.321438,0.0,0.0,0.0
21846686105659,-1.1485549,8.772088,4.2927237,0.0,0.0,0.0
21846688484617,-1.0671989,8.810373,4.2592244,0.0,0.0,0.0
21846690863575,-0.9762716,8.796016,4.273581,0.0,0.0,0.0
21846693242481,-0.8853444,8.79123,4.302295,0.0,0.0,0.0
21846695621440,-0.82313097,8.82473,4.3118663,0.0,0.0,0.0
21846698000398,-0.7513463,8.853444,4.316652,0.0,0.0,0.0
21846700379304,-0.7082755,8.863015,4.273581,0.0,0.0,0.0
21846702758263,-0.66041905,8.896515,4.23051,0.0,0.0,0.0
21846705137221,-0.64606214,8.882157,4.206582,0.0,0.0,0.0
21846707516179,-0.6795616,8.9013,4.220939,0.0,0.0,0.0
21846709895086,-0.6939186,8.891729,4.2592244,0.0,0.0,0.0
21846712273992,-0.7752745,8.891729,4.287938,0.0,0.0,0.0
21846714653002,-0.86141616,8.9013,4.2831526,0.0,0.0,0.0
21846717031961,-0.9379865,8.9013,4.302295,0.0,0.0,0.0
21846719410919,-1.0097711,8.9013,4.2927237,0.0,0.0,0.0
21846721789825,-1.0911272,8.886943,4.3118663,0.0,0.0,0.0
21846724168784,-1.1581261,8.863015,4.3357944,0.0,0.0,0.0
21846726547742,-1.2155539,8.848659,4.359723,0.0,0.0,0.0
21846728926648,-1.2586247,8.848659,4.388437,0.0,0.0,0.0
21846731305606,-1.2729816,8.839087,4.369294,0.0,0.0,0.0
21846733684565,-1.2586247,8.829515,4.321438,0.0,0.0,0.0
21846736063523,-1.2299109,8.853444,4.249653,0.0,0.0,0.0
21846738442481,-1.18684,8.848659,4.1922255,0.0,0.0,0.0
21846740821388,-1.119841,8.872586,4.1635113,0.0,0.0,0.0
21846743200346,-1.0576276,8.877372,4.15394,0.0,0.0,0.0
21846745579304,-1.0097711,8.867801,4.1587257,0.0,0.0,0.0
21846747958211,-0.9523434,8.882157,4.168297,0.0,0.0,0.0
21846750337169,-0.89013004,8.882157,4.173083,0.0,0.0,0.0
21846752716127,-0.85184485,8.891729,4.1491547,0.0,0.0,0.0
21846755095086,-0.8135597,8.882157,4.1204405,0.0,0.0,0.0
21846757474044,-0.75613195,8.85823,4.115655,0.0,0.0,0.0
21846759852950,-0.7848458,8.867801,4.106084,0.0,0.0,0.0
21846762231909,-0.79920274,8.863015,4.168297,0.0,0.0,0.0
21846764610867,-0.8135597,8.85823,4.240082,0.0,0.0,0.0
21846766989773,-0.81834537,8.886943,4.278367,0.0,0.0,0.0
21846769368731,-0.8566305,8.886943,4.3118663,0.0,0.0,0.0
21846771747690,-0.8805587,8.877372,4.3357944,0.0,0.0,0.0
21846774126648,-0.90448695,8.9013,4.3740797,0.0,0.0,0.0
21846776505554,-0.9379865,8.85823,4.402794,0.0,0.0,0.0
21846778884513,-0.9284152,8.834301,4.436293,0.0,0.0,0.0
21846781263471,-0.91884387,8.843872,4.4410787,0.0,0.0,0.0
21846783642377,-0.9092726,8.800801,4.4458647,0.0,0.0,0.0
21846786021336,-0.90448695,8.752945,4.4075794,0.0,0.0,0.0
21846788400294,-0.89013004,8.738588,4.3645086,0.0,0.0,0.0
21846790779252,-0.8853444,8.762517,4.316652,0.0,0.0,0.0
21846793158211,-0.8709874,8.748159,4.2831526,0.0,0.0,0.0
21846795537117,-0.8997013,8.743374,4.249653,0.0,0.0,0.0
21846797916075,-0.9092726,8.805588,4.2448673,0.0,0.0,0.0
21846800295034,-0.8997013,8.829515,4.2161536,0.0,0.0,0.0
21846802673992,-0.94277215,8.815159,4.2017965,0.0,0.0,0.0
21846805052898,-0.9810573,8.819944,4.182654,0.0,0.0,0.0
21846807431856,-1.0336994,8.843872,4.1874394,0.0,0.0,0.0
21846809810815,-1.0815558,8.834301,4.211368,0.0,0.0,0.0
21846812189773,-1.1294123,8.829515,4.240082,0.0,0.0,0.0
21846814568679,-1.1724831,8.834301,4.249653,0.0,0.0,0.0
21846816947638,-1.2155539,8.867801,4.2448673,0.0,0.0,0.0
21846819326544,-1.2394822,8.839087,4.254439,0.0,0.0,0.0
21846821705554,-1.2394822,8.853444,4.26401,0.0,0.0,0.0
21846824084461,-1.2059826,8.853444,4.278367,0.0,0.0,0.0
21846826463419,-1.2251252,8.853444,4.302295,0.0,0.0,0.0
21846828842377,-1.1820544,8.863015,4.321438,0.0,0.0,0.0
21846831221336,-1.1437693,8.848659,4.3118663,0.0,0.0,0.0
21846833600242,-1.0959128,8.863015,4.331009,0.0,0.0,0.0
21846835979200,-1.0480564,8.829515,4.321438,0.0,0.0,0.0
21846838358159,-0.9810573,8.834301,4.2975097,0.0,0.0,0.0
21846840737117,-0.9236295,8.839087,4.2687955,0.0,0.0,0.0
21846843116023,-0.89013004,8.829515,4.2592244,0.0,0.0,0.0
21846845494981,-0.8470592,8.848659,4.2448673,0.0,0.0,0.0
21846847873940,-0.8279166,8.843872,4.249653,0.0,0.0,0.0
21846850252898,-0.79920274,8.819944,4.240082,0.0,0.0,0.0
21846852631804,-0.80877405,8.843872,4.249653,0.0,0.0,0.0
21846855010763,-0.83748794,8.843872,4.273581,0.0,0.0,0.0
21846857389721,-0.89013004,8.839087,4.2927237,0.0,0.0,0.0
21846859768627,-0.91405827,8.82473,4.287938,0.0,0.0,0.0
21846862147586,-0.9762716,8.839087,4.2975097,0.0,0.0,0.0
21846864526544,-1.0289137,8.843872,4.3262234,0.0,0.0,0.0
21846866905502,-1.052842,8.843872,4.331009,0.0,0.0,0.0
21846869284461,-1.0671989,8.834301,4.321438,0.0,0.0,0.0
21846871663367,-1.0624132,8.853444,4.3070807,0.0,0.0,0.0
21846874042325,-1.0671989,8.867801,4.278367,0.0,0.0,0.0
21846876421284,-1.0767702,8.843872,4.2352962,0.0,0.0,0.0
21846878800242,-1.038485,8.834301,4.1922255,0.0,0.0,0.0
21846881179148,-1.0193424,8.834301,4.1587257,0.0,0.0,0.0
21846883558106,-0.98584294,8.85823,4.1491547,0.0,0.0,0.0
21846885937065,-0.9667004,8.863015,4.139583,0.0,0.0,0.0
21846888316023,-0.9236295,8.863015,4.1108694,0.0,0.0,0.0
21846890694929,-0.91405827,8.882157,4.106084,0.0,0.0,0.0
21846893073888,-0.8853444,8.882157,4.101298,0.0,0.0,0.0
21846895452846,-0.9092726,8.867801,4.082155,0.0,0.0,0.0
21846897831804,-0.93320084,8.891729,4.0677986,0.0,0.0,0.0
21846900210711,-0.95712906,8.9108715,4.091727,0.0,0.0,0.0
21846902589669,-0.971486,8.891729,4.125226,0.0,0.0,0.0
21846904968627,-1.0241281,8.853444,4.173083,0.0,0.0,0.0
21846907347586,-1.0719845,8.85823,4.2017965,0.0,0.0,0.0
21846909726492,-1.0863415,8.853444,4.249653,0.0,0.0,0.0
21846912105450,-1.134198,8.843872,4.254439,0.0,0.0,0.0
21846914484409,-1.1581261,8.800801,4.2975097,0.0,0.0,0.0
21846916863367,-1.1964114,8.805588,4.345366,0.0,0.0,0.0
21846919242273,-1.1916257,8.800801,4.398008,0.0,0.0,0.0
21846921621231,-1.1581261,8.815159,4.4075794,0.0,0.0,0.0
21846924000190,-1.1676974,8.805588,4.421936,0.0,0.0,0.0
21846926379148,-1.119841,8.805588,4.398008,0.0,0.0,0.0
21846928758054,-1.0624132,8.82473,4.3501515,0.0,0.0,0.0
21846931137013,-1.0001999,8.839087,4.331009,0.0,0.0,0.0
21846933515971,-0.971486,8.886943,4.3357944,0.0,0.0,0.0
21846935894929,-0.9619147,8.882157,4.345366,0.0,0.0,0.0
21846938273836,-0.9092726,8.867801,4.3501515,0.0,0.0,0.0
21846940652794,-0.89013004,8.877372,4.3262234,0.0,0.0,0.0
21846943031752,-0.8853444,8.877372,4.302295,0.0,0.0,0.0
21846945410711,-0.8709874,8.891729,4.273581,0.0,0.0,0.0
21846947789617,-0.91405827,8.877372,4.278367,0.0,0.0,0.0
21846950168575,-0.94755775,8.882157,4.2975097,0.0,0.0,0.0
21846952547534,-0.9810573,8.9108715,4.2975097,0.0,0.0,0.0
21846954926440,-1.0145568,8.906086,4.3070807,0.0,0.0,0.0
21846957305398,-1.0480564,8.896515,4.302295,0.0,0.0,0.0
21846959684356,-1.0624132,8.906086,4.316652,0.0,0.0,0.0
21846962063263,-1.0959128,8.906086,4.316652,0.0,0.0,0.0
21846964442273,-1.105484,8.877372,4.321438,0.0,0.0,0.0
21846966821179,-1.119841,8.896515,4.316652,0.0,0.0,0.0
21846969200138,-1.134198,8.872586,4.287938,0.0,0.0,0.0
21846971579096,-1.1150553,8.867801,4.2687955,0.0,0.0,0.0
21846973958054,-1.0767702,8.867801,4.2161536,0.0,0.0,0.0
21846976336961,-1.0145568,8.9013,4.173083,0.0,0.0,0.0
21846978715919,-1.0097711,8.896515,4.1443686,0.0,0.0,0.0
21846981094877,-0.9810573,8.877372,4.115655,0.0,0.0,0.0
21846983473836,-0.9619147,8.882157,4.0773697,0.0,0.0,0.0
21846985852742,-0.9523434,8.867801,4.091727,0.0,0.0,0.0
21846988231700,-0.94277215,8.848659,4.1108694,0.0,0.0,0.0
21846990610659,-0.9379865,8.886943,4.1347976,0.0,0.0,0.0
21846992989617,-0.9619147,8.867801,4.130012,0.0,0.0,0.0
21846995368523,-0.95712906,8.867801,4.1491547,0.0,0.0,0.0
21846997747481,-0.9762716,8.848659,4.168297,0.0,0.0,0.0
21847000126440,-0.9954142,8.843872,4.173083,0.0,0.0,0.0
21847002505398,-1.0097711,8.839087,4.23051,0.0,0.0,0.0
21847004884304,-1.0241281,8.839087,4.2687955,0.0,0.0,0.0
21847007263263,-1.0049855,8.82473,4.316652,0.0,0.0,0.0
21847009642221,-0.971486,8.800801,4.354937,0.0,0.0,0.0
21847012021179,-0.9523434,8.815159,4.359723,0.0,0.0,0.0
21847014400086,-0.91405827,8.834301,4.345366,0.0,0.0,0.0
21847016779044,-0.86141616,8.82473,4.345366,0.0,0.0,0.0
21847019158002,-0.7896315,8.815159,4.3118663,0.0,0.0,0.0
21847021536961,-0.74177504,8.815159,4.3070807,0.0,0.0,0.0
21847023915867,-0.70348984,8.805588,4.2927237,0.0,0.0,0.0
21847026294825,-0.6652047,8.796016,4.2592244,0.0,0.0,0.0
21847028673784,-0.64606214,8.786445,4.254439,0.0,0.0,0.0
21847031052742,-0.64606214,8.815159,4.23051,0.0,0.0,0.0
21847033431648,-0.6652047,8.834301,4.1922255,0.0,0.0,0.0
21847035810606,-0.6843473,8.829515,4.168297,0.0,0.0,0.0
21847038189565,-0.72263247,8.815159,4.173083,0.0,0.0,0.0
21847040568471,-0.80877405,8.82473,4.173083,0.0,0.0,0.0
21847042947429,-0.8805587,8.834301,4.2161536,0.0,0.0,0.0
21847045326388,-0.9954142,8.829515,4.2352962,0.0,0.0,0.0
21847047705346,-1.0624132,8.819944,4.23051,0.0,0.0,0.0
21847050084304,-1.1437693,8.834301,4.2687955,0.0,0.0,0.0
21847052463211,-1.2394822,8.834301,4.2687955,0.0,0.0,0.0
21847054842169,-1.3256238,8.848659,4.26401,0.0,0.0,0.0
21847057221127,-1.3495519,8.867801,4.273581,0.0,0.0,0.0
21847059600086,-1.3495519,8.9013,4.278367,0.0,0.0,0.0
21847061978940,-1.3782659,8.9108715,4.2975097,0.0,0.0,0.0
21847064357950,-1.3639089,8.915657,4.287938,0.0,0.0,0.0
21847066736909,-1.2873386,8.925228,4.2831526,0.0,0.0,0.0
21847069115867,-1.2442678,8.9108715,4.26401,0.0,0.0,0.0
21847071494773,-1.1676974,8.896515,4.249653,0.0,0.0,0.0
21847073873731,-1.1006985,8.896515,4.240082,0.0,0.0,0.0
21847076252690,-1.0097711,8.85823,4.23051,0.0,0.0,0.0
21847078631648,-0.95712906,8.843872,4.240082,0.0,0.0,0.0
21847081010554,-0.8805587,8.815159,4.2352962,0.0,0.0,0.0
21847083389513,-0.83748794,8.810373,4.2257247,0.0,0.0,0.0
21847085768471,-0.8279166,8.800801,4.23051,0.0,0.0,0.0
21847088147377,-0.82313097,8.796016,4.240082,0.0,0.0,0.0
21847090526336,-0.8327023,8.815159,4.254439,0.0,0.0,0.0
21847092905294,-0.8279166,8.815159,4.249653,0.0,0.0,0.0
21847095284200,-0.83748794,8.834301,4.2592244,0.0,0.0,0.0
21847097663211,-0.8709874,8.829515,4.26401,0.0,0.0,0.0
21847100042117,-0.9092726,8.834301,4.2687955,0.0,0.0,0.0
21847102421075,-0.9284152,8.853444,4.273581,0.0,0.0,0.0
21847104800034,-0.9762716,8.867801,4.2448673,0.0,0.0,0.0
21847107178992,-1.0145568,8.853444,4.23051,0.0,0.0,0.0
21847109557898,-1.0480564,8.872586,4.2017965,0.0,0.0,0.0
21847111936856,-1.0719845,8.886943,4.168297,0.0,0.0,0.0
21847114315815,-1.0863415,8.9108715,4.1491547,0.0,0.0,0.0
21847116694773,-1.105484,8.896515,4.1491547,0.0,0.0,0.0
21847119073679,-1.1102697,8.882157,4.1635113,0.0,0.0,0.0
21847121452638,-1.1150553,8.906086,4.168297,0.0,0.0,0.0
21847123831596,-1.1006985,8.85823,4.1778684,0.0,0.0,0.0
21847126210554,-1.0863415,8.85823,4.211368,0.0,0.0,0.0
21847128589461,-1.038485,8.85823,4.23051,0.0,0.0,0.0
21847130968419,-1.0145568,8.843872,4.2592244,0.0,0.0,0.0
21847133347377,-0.9619147,8.839087,4.2592244,0.0,0.0,0.0
21847135726336,-0.9092726,8.815159,4.273581,0.0,0.0,0.0
21847138105242,-0.89013004,8.800801,4.302295,0.0,0.0,0.0
21847140484200,-0.85184485,8.819944,4.302295,0.0,0.0,0.0
21847142863159,-0.79920274,8.834301,4.316652,0.0,0.0,0.0
21847145242065,-0.7704889,8.829515,4.321438,0.0,0.0,0.0
21847147621023,-0.7704889,8.843872,4.321438,0.0,0.0,0.0
21847149999981,-0.75613195,8.853444,4.316652,0.0,0.0,0.0
21847152378940,-0.7513463,8.848659,4.2927237,0.0,0.0,0.0
21847154757898,-0.7513463,8.872586,4.2687955,0.0,0.0,0.0
21847157136804,-0.76570326,8.877372,4.2448673,0.0,0.0,0.0
21847159515763,-0.8135597,8.896515,4.240082,0.0,0.0,0.0
21847161894721,-0.8757731,8.9013,4.2448673,0.0,0.0,0.0
21847164273679,-0.91884387,8.9108715,4.249653,0.0,0.0,0.0
21847166652586,-0.9667004,8.925228,4.2448673,0.0,0.0,0.0
21847169031544,-1.038485,8.906086,4.240082,0.0,0.0,0.0
21847171410502,-1.1102697,8.9013,4.2448673,0.0,0.0,0.0
21847173789409,-1.18684,8.882157,4.2352962,0.0,0.0,0.0
21847176168367,-1.2394822,8.877372,4.2592244,0.0,0.0,0.0
21847178547325,-1.2969099,8.863015,4.2687955,0.0,0.0,0.0
21847180926284,-1.3160524,8.9013,4.2831526,0.0,0.0,0.0
21847183305190,-1.3208381,8.891729,4.2927237,0.0,0.0,0.0
21847185684148,-1.3304094,8.848659,4.287938,0.0,0.0,0.0
21847188063106,-1.282553,8.863015,4.2448673,0.0,0.0,0.0
21847190442065,-1.2394822,8.867801,4.2257247,0.0,0.0,0.0
21847192820971,-1.1916257,8.863015,4.2161536,0.0,0.0,0.0
21847195199877,-1.1389836,8.843872,4.1874394,0.0,0.0,0.0
21847197578888,-1.0719845,8.853444,4.197011,0.0,0.0,0.0
21847199957846,-0.9954142,8.853444,4.2017965,0.0,0.0,0.0
21847202336752,-0.9379865,8.85823,4.197011,0.0,0.0,0.0
21847204715711,-0.89491564,8.853444,4.1922255,0.0,0.0,0.0
21847207094669,-0.8757731,8.848659,4.1874394,0.0,0.0,0.0
21847209473627,-0.8566305,8.82473,4.168297,0.0,0.0,0.0
21847211852534,-0.8422736,8.829515,4.15394,0.0,0.0,0.0
21847214231492,-0.8566305,8.805588,4.1587257,0.0,0.0,0.0
21847216610450,-0.90448695,8.834301,4.1874394,0.0,0.0,0.0
21847218989409,-0.94277215,8.829515,4.220939,0.0,0.0,0.0
21847221368315,-0.9906286,8.810373,4.254439,0.0,0.0,0.0
21847223747273,-1.0671989,8.839087,4.2592244,0.0,0.0,0.0
21847226126231,-1.1150553,8.815159,4.2831526,0.0,0.0,0.0
21847228505190,-1.1581261,8.839087,4.2687955,0.0,0.0,0.0
21847230884096,-1.1916257,8.82473,4.249653,0.0,0.0,0.0
21847233263054,-1.2394822,8.843872,4.249653,0.0,0.0,0.0
21847235642013,-1.2490535,8.85823,4.249653,0.0,0.0,0.0
21847238020971,-1.2586247,8.834301,4.249653,0.0,0.0,0.0
21847240399929,-1.2251252,8.853444,4.26401,0.0,0.0,0.0
21847242778836,-1.1964114,8.853444,4.240082,0.0,0.0,0.0
21847245157794,-1.1724831,8.872586,4.220939,0.0,0.0,0.0
21847247536752,-1.1389836,8.867801,4.211368,0.0,0.0,0.0
21847249915659,-1.0911272,8.848659,4.206582,0.0,0.0,0.0
21847252294617,-1.0336994,8.82473,4.2161536,0.0,0.0,0.0
21847254673575,-1.0001999,8.834301,4.2017965,0.0,0.0,0.0
21847257052534,-0.9954142,8.810373,4.2352962,0.0,0.0,0.0
21847259431492,-0.98584294,8.810373,4.249653,0.0,0.0,0.0
21847261810398,-0.9523434,8.79123,4.26401,0.0,0.0,0.0
21847264189356,-0.9619147,8.786445,4.2831526,0.0,0.0,0.0
21847266568315,-0.9810573,8.762517,4.2975097,0.0,0.0,0.0
21847268947221,-0.9954142,8.79123,4.321438,0.0,0.0,0.0
21847271326179,-1.0097711,8.776874,4.3357944,0.0,0.0,0.0
21847273705138,-1.0289137,8.776874,4.3740797,0.0,0.0,0.0
21847276084096,-1.0671989,8.819944,4.359723,0.0,0.0,0.0
21847278463002,-1.105484,8.839087,4.316652,0.0,0.0,0.0
21847280841961,-1.1437693,8.848659,4.273581,0.0,0.0,0.0
21847283220919,-1.1724831,8.906086,4.249653,0.0,0.0,0.0
21847285599825,-1.2011969,8.9013,4.2592244,0.0,0.0,0.0
21847287978784,-1.2346965,8.925228,4.278367,0.0,0.0,0.0
21847290357742,-1.2634103,8.915657,4.302295,0.0,0.0,0.0
21847292736700,-1.2921243,8.9108715,4.287938,0.0,0.0,0.0
21847295115659,-1.2921243,8.939586,4.249653,0.0,0.0,0.0
21847297494565,-1.2873386,8.9348,4.220939,0.0,0.0,0.0
21847299873523,-1.2921243,8.915657,4.1922255,0.0,0.0,0.0
21847302252481,-1.282553,8.886943,4.182654,0.0,0.0,0.0
21847304631440,-1.282553,8.877372,4.206582,0.0,0.0,0.0
21847307010346,-1.2777673,8.867801,4.249653,0.0,0.0,0.0
21847309389304,-1.2442678,8.886943,4.2831526,0.0,0.0,0.0
21847311768263,-1.1820544,8.886943,4.321438,0.0,0.0,0.0
21847314147221,-1.1246266,8.886943,4.3357944,0.0,0.0,0.0
21847316526127,-1.0719845,8.85823,4.3357944,0.0,0.0,0.0
21847318905086,-1.0001999,8.867801,4.331009,0.0,0.0,0.0
21847321284044,-0.9379865,8.82473,4.3357944,0.0,0.0,0.0
21847323663002,-0.8709874,8.829515,4.331009,0.0,0.0,0.0
21847326041909,-0.80877405,8.839087,4.302295,0.0,0.0,0.0
21847328420867,-0.79441714,8.848659,4.26401,0.0,0.0,0.0
21847330799825,-0.7704889,8.85823,4.240082,0.0,0.0,0.0
21847333178784,-0.76570326,8.853444,4.220939,0.0,0.0,0.0
21847335557742,-0.7848458,8.872586,4.206582,0.0,0.0,0.0
21847337936648,-0.81834537,8.906086,4.182654,0.0,0.0,0.0
21847340315606,-0.8566305,8.882157,4.206582,0.0,0.0,0.0
21847342694565,-0.9092726,8.867801,4.2017965,0.0,0.0,0.0
21847345073471,-0.9906286,8.863015,4.1922255,0.0,0.0,0.0
21847347452429,-1.0576276,8.843872,4.1922255,0.0,0.0,0.0
21847349831388,-1.105484,8.848659,4.1874394,0.0,0.0,0.0
21847352210294,-1.1724831,8.867801,4.211368,0.0,0.0,0.0
21847354589252,-1.2155539,8.848659,4.240082,0.0,0.0,0.0
21847356968211,-1.2442678,8.839087,4.2687955,0.0,0.0,0.0
21847359347169,-1.253839,8.834301,4.287938,0.0,0.0,0.0
21847361726127,-1.2394822,8.819944,4.302295,0.0,0.0,0.0
21847364105034,-1.2203395,8.800801,4.345366,0.0,0.0,0.0
21847366483992,-1.1724831,8.796016,4.3645086,0.0,0.0,0.0
21847368862950,-1.105484,8.79123,4.3405805,0.0,0.0,0.0
21847371241909,-1.0241281,8.772088,4.321438,0.0,0.0,0.0
21847373620815,-0.94755775,8.752945,4.3118663,0.0,0.0,0.0
21847375999773,-0.8662018,8.743374,4.287938,0.0,0.0,0.0
21847378378731,-0.79441714,8.781659,4.2448673,0.0,0.0,0.0
21847380757690,-0.74177504,8.772088,4.211368,0.0,0.0,0.0
21847383136596,-0.7178468,8.805588,4.1874394,0.0,0.0,0.0
21847385515554,-0.6987042,8.829515,4.182654,0.0,0.0,0.0
21847387894513,-0.71306115,8.853444,4.182654,0.0,0.0,0.0
21847390273471,-0.75613195,8.839087,4.1874394,0.0,0.0,0.0
21847392652377,-0.8327023,8.848659,4.2017965,0.0,0.0,0.0
21847395031336,-0.9284152,8.839087,4.2017965,0.0,0.0,0.0
21847397410294,-1.0289137,8.85823,4.2257247,0.0,0.0,0.0
21847399789252,-1.1437693,8.853444,4.240082,0.0,0.0,0.0
21847402168211,-1.2251252,8.848659,4.2687955,0.0,0.0,0.0
21847404547117,-1.3064811,8.85823,4.3070807,0.0,0.0,0.0
21847406926075,-1.3782659,8.85823,4.359723,0.0,0.0,0.0
21847409305034,-1.4261223,8.853444,4.3788652,0.0,0.0,0.0
21847411683940,-1.4213367,8.848659,4.4315076,0.0,0.0,0.0
21847414062898,-1.3686945,8.829515,4.465007,0.0,0.0,0.0
21847416441856,-1.3399807,8.800801,4.4554358,0.0,0.0,0.0
21847418820815,-1.2729816,8.796016,4.4171505,0.0,0.0,0.0
21847421199773,-1.1724831,8.786445,4.3788652,0.0,0.0,0.0
21847423578679,-1.0671989,8.796016,4.345366,0.0,0.0,0.0
21847425957638,-0.9667004,8.800801,4.278367,0.0,0.0,0.0
21847428336596,-0.8566305,8.810373,4.249653,0.0,0.0,0.0
21847430715554,-0.75613195,8.819944,4.240082,0.0,0.0,0.0
21847433094461,-0.6891329,8.843872,4.23051,0.0,0.0,0.0
21847435473419,-0.6412765,8.863015,4.2017965,0.0,0.0,0.0
21847437852377,-0.6221339,8.877372,4.1778684,0.0,0.0,0.0
21847440231284,-0.65084773,8.877372,4.139583,0.0,0.0,0.0
21847442610242,-0.72263247,8.896515,4.125226,0.0,0.0,0.0
21847444989200,-0.80877405,8.896515,4.1108694,0.0,0.0,0.0
21847447368159,-0.8709874,8.915657,4.125226,0.0,0.0,0.0
21847449747065,-0.971486,8.920443,4.168297,0.0,0.0,0.0
21847452126023,-1.0719845,8.930014,4.1922255,0.0,0.0,0.0
21847454504981,-1.1533405,8.925228,4.2257247,0.0,0.0,0.0
21847456883940,-1.2203395,8.9013,4.249653,0.0,0.0,0.0
21847459262846,-1.2873386,8.915657,4.302295,0.0,0.0,0.0
21847461641804,-1.3160524,8.886943,4.3405805,0.0,0.0,0.0
21847464020763,-1.2969099,8.882157,4.3645086,0.0,0.0,0.0
21847466399721,-1.2586247,8.867801,4.398008,0.0,0.0,0.0
21847468778627,-1.2203395,8.815159,4.3645086,0.0,0.0,0.0
21847471157586,-1.134198,8.79123,4.3118663,0.0,0.0,0.0
21847473536544,-1.0049855,8.781659,4.278367,0.0,0.0,0.0
21847475915502,-0.8805587,8.776874,4.23051,0.0,0.0,0.0
21847478294409,-0.7752745,8.7673025,4.211368,0.0,0.0,0.0
21847480673367,-0.6891329,8.776874,4.220939,0.0,0.0,0.0
21847483052325,-0.60777694,8.79123,4.211368,0.0,0.0,0.0
21847485431284,-0.5312066,8.805588,4.220939,0.0,0.0,0.0
21847487810190,-0.5168497,8.805588,4.220939,0.0,0.0,0.0
21847490189148,-0.5312066,8.810373,4.206582,0.0,0.0,0.0
21847492568106,-0.5599205,8.829515,4.2017965,0.0,0.0,0.0
21847494947065,-0.6269195,8.853444,4.2161536,0.0,0.0,0.0
21847497326023,-0.7082755,8.85823,4.2687955,0.0,0.0,0.0
21847499704929,-0.79920274,8.853444,4.3118663,0.0,0.0,0.0
21847502083888,-0.91884387,8.872586,4.331009,0.0,0.0,0.0
21847504462846,-1.0145568,8.882157,4.3645086,0.0,0.0,0.0
21847506841804,-1.1246266,8.877372,4.4075794,0.0,0.0,0.0
21847509220711,-1.1964114,8.872586,4.4315076,0.0,0.0,0.0
21847511599669,-1.2777673,8.9108715,4.426722,0.0,0.0,0.0
21847513978627,-1.2921243,8.9108715,4.421936,0.0,0.0,0.0
21847516357534,-1.2921243,8.915657,4.402794,0.0,0.0,0.0
21847518736492,-1.2634103,8.920443,4.3932223,0.0,0.0,0.0
21847521115450,-1.2107682,8.906086,4.398008,0.0,0.0,0.0
21847523494409,-1.1581261,8.9013,4.3932223,0.0,0.0,0.0
21847525873315,-1.0576276,8.882157,4.3788652,0.0,0.0,0.0
21847528252273,-0.94277215,8.886943,4.331009,0.0,0.0,0.0
21847530631231,-0.8470592,8.882157,4.273581,0.0,0.0,0.0
21847533010190,-0.75613195,8.85823,4.249653,0.0,0.0,0.0
21847535389148,-0.6795616,8.848659,4.2161536,0.0,0.0,0.0
21847537768054,-0.64606214,8.843872,4.2017965,0.0,0.0,0.0
21847540147013,-0.6125626,8.819944,4.1922255,0.0,0.0,0.0
21847542525971,-0.57906306,8.800801,4.211368,0.0,0.0,0.0
21847544904929,-0.55513483,8.79123,4.2161536,0.0,0.0,0.0
21847547283836,-0.5838487,8.796016,4.206582,0.0,0.0,0.0
21847549662794,-0.59342,8.805588,4.211368,0.0,0.0,0.0
21847552041752,-0.63170516,8.796016,4.220939,0.0,0.0,0.0
21847554420659,-0.6891329,8.805588,4.1922255,0.0,0.0,0.0
21847556799617,-0.7322037,8.843872,4.173083,0.0,0.0,0.0
21847559178575,-0.76570326,8.863015,4.182654,0.0,0.0,0.0
21847561557534,-0.7848458,8.9013,4.182654,0.0,0.0,0.0
21847563936492,-0.8039884,8.906086,4.1778684,0.0,0.0,0.0
21847566315398,-0.83748794,8.891729,4.1635113,0.0,0.0,0.0
21847568694356,-0.8327023,8.896515,4.15394,0.0,0.0,0.0
21847571073315,-0.81834537,8.863015,4.15394,0.0,0.0,0.0
21847573452221,-0.8039884,8.82473,4.115655,0.0,0.0,0.0
21847575831179,-0.75613195,8.819944,4.091727,0.0,0.0,0.0
21847578210138,-0.72741807,8.82473,4.101298,0.0,0.0,0.0
21847580589096,-0.6843473,8.7673025,4.125226,0.0,0.0,0.0
21847582968054,-0.6652047,8.748159,4.130012,0.0,0.0,0.0
21847585346961,-0.61734825,8.772088,4.1443686,0.0,0.0,0.0
21847587725919,-0.60777694,8.748159,4.173083,0.0,0.0,0.0
21847590104877,-0.5599205,8.743374,4.220939,0.0,0.0,0.0
21847592483784,-0.56470615,8.772088,4.2687955,0.0,0.0,0.0
21847594862742,-0.5455636,8.772088,4.2927237,0.0,0.0,0.0
21847597241700,-0.57427746,8.752945,4.302295,0.0,0.0,0.0
21847599620659,-0.5886344,8.772088,4.2927237,0.0,0.0,0.0
21847601999617,-0.59342,8.781659,4.2831526,0.0,0.0,0.0
21847604378523,-0.6269195,8.815159,4.273581,0.0,0.0,0.0
21847606757481,-0.67477596,8.815159,4.2448673,0.0,0.0,0.0
21847609136440,-0.72263247,8.834301,4.2448673,0.0,0.0,0.0
21847611515346,-0.7848458,8.839087,4.2257247,0.0,0.0,0.0
21847613894304,-0.8566305,8.896515,4.211368,0.0,0.0,0.0
21847616273263,-0.91405827,8.9348,4.2017965,0.0,0.0,0.0
21847618652221,-1.0097711,8.930014,4.206582,0.0,0.0,0.0
21847621031127,-1.0815558,8.939586,4.211368,0.0,0.0,0.0
21847623410086,-1.1629118,8.958728,4.2352962,0.0,0.0,0.0
21847625789044,-1.1820544,8.987442,4.240082,0.0,0.0,0.0
21847628168002,-1.2011969,8.963513,4.2352962,0.0,0.0,0.0
21847630546961,-1.2203395,8.939586,4.2352962,0.0,0.0,0.0
21847632925867,-1.2394822,8.963513,4.254439,0.0,0.0,0.0
21847635304825,-1.2203395,8.973084,4.2831526,0.0,0.0,0.0
21847637683784,-1.1820544,8.953942,4.331009,0.0,0.0,0.0
21847640062742,-1.1533405,8.949157,4.3836513,0.0,0.0,0.0
21847642441648,-1.1150553,8.920443,4.4315076,0.0,0.0,0.0
21847644820606,-1.0815558,8.882157,4.4745784,0.0,0.0,0.0
21847647199565,-1.0241281,8.867801,4.4602213,0.0,0.0,0.0
21847649578523,-1.0001999,8.843872,4.4602213,0.0,0.0,0.0
21847651957325,-0.94277215,8.82473,4.4410787,0.0,0.0,0.0
21847654336388,-0.90448695,8.800801,4.45065,0.0,0.0,0.0
21847656715346,-0.85184485,8.810373,4.4171505,0.0,0.0,0.0
21847659094304,-0.8279166,8.786445,4.4075794,0.0,0.0,0.0
21847661473211,-0.8039884,8.800801,4.4171505,0.0,0.0,0.0
21847663852169,-0.82313097,8.776874,4.3932223,0.0,0.0,0.0
21847666231127,-0.8662018,8.796016,4.3262234,0.0,0.0,0.0
21847668610086,-0.89013004,8.805588,4.287938,0.0,0.0,0.0
21847670988992,-0.9284152,8.819944,4.26401,0.0,0.0,0.0
21847673367950,-0.9667004,8.815159,4.2448673,0.0,0.0,0.0
21847675746909,-1.0193424,8.839087,4.240082,0.0,0.0,0.0
21847678125867,-1.0719845,9.016156,4.3501515,0.0,0.0,0.0
21847680504773,-1.1150553,8.800801,4.091727,0.0,0.0,0.0
21847682883731,-1.1294123,8.733803,3.7184465,0.0,0.0,0.0
21847685262690,-1.2059826,9.0544405,3.8093736,0.0,0.0,0.0
21847687641648,-1.2011969,8.953942,4.125226,0.0,0.0,0.0
21847690020554,-1.2011969,8.939586,4.6037908,0.0,0.0,0.0
21847692399513,-1.119841,8.810373,4.4554358,0.0,0.0,0.0
21847694778471,-1.0815558,8.82473,4.0438704,0.0,0.0,0.0
21847697157429,-1.0241281,8.781659,3.7710886,0.0,0.0,0.0
21847699536336,-1.0001999,8.834301,4.072584,0.0,0.0,0.0
21847701915294,-0.91405827,8.886943,4.7138605,0.0,0.0,0.0
21847704294252,-0.81834537,8.796016,5.0344987,0.0,0.0,0.0
21847706673211,-0.7848458,8.896515,4.800002,0.0,0.0,0.0
21847709052117,-0.7465607,9.030513,4.115655,0.0,0.0,0.0
21847711431075,-0.67477596,9.068798,3.603591,0.0,0.0,0.0
21847713810034,-0.59342,8.977871,3.5653057,0.0,0.0,0.0
21847716188992,-0.57427746,8.949157,4.019942,0.0,0.0,0.0
21847718567898,-0.5407779,8.891729,4.536792,0.0,0.0,0.0
21847720946856,-0.5072784,8.82473,4.8095737,0.0,0.0,0.0
21847723325815,-0.5024927,8.867801,4.733003,0.0,0.0,0.0
21847725704721,-0.45942193,8.906086,4.388437,0.0,0.0,0.0
21847728083679,-0.4642076,8.939586,4.125226,0.0,0.0,0.0
21847730462638,-0.46899325,8.944371,4.0965123,0.0,0.0,0.0
21847732841596,-0.5024927,8.925228,4.302295,0.0,0.0,0.0
21847735220554,-0.55513483,8.872586,4.5942197,0.0,0.0,0.0
21847737599461,-0.6412765,8.839087,4.7377887,0.0,0.0,0.0
21847739978419,-0.72263247,8.853444,4.651647,0.0,0.0,0.0
21847742357377,-0.7896315,8.867801,4.388437,0.0,0.0,0.0
21847744736336,-0.8757731,8.863015,4.0869412,0.0,0.0,0.0
21847747115242,-0.90448695,8.867801,3.9194436,0.0,0.0,0.0
21847749494200,-0.9810573,8.877372,3.9481573,0.0,0.0,0.0
21847751873159,-1.0193424,8.848659,4.1108694,0.0,0.0,0.0
21847754252117,-1.0815558,8.810373,4.2448673,0.0,0.0,0.0
21847756631023,-1.0767702,8.815159,4.2448673,0.0,0.0,0.0
21847759009981,-1.0911272,8.839087,4.0773697,0.0,0.0,0.0
21847761388940,-1.0671989,8.867801,3.842873,0.0,0.0,0.0
21847763767898,-1.038485,8.896515,3.6993039,0.0,0.0,0.0
21847766146804,-1.038485,8.886943,3.7328033,0.0,0.0,0.0
21847768525763,-1.0193424,8.85823,3.9242291,0.0,0.0,0.0
21847770904721,-1.0145568,8.819944,4.1778684,0.0,0.0,0.0
21847773283679,-1.0336994,8.810373,4.2975097,0.0,0.0,0.0
21847775662586,-1.0241281,8.834301,4.3070807,0.0,0.0,0.0
21847778041544,-1.0001999,8.872586,4.168297,0.0,0.0,0.0
21847780420502,-0.9762716,8.853444,4.058227,0.0,0.0,0.0
21847782799461,-0.9523434,8.863015,4.0438704,0.0,0.0,0.0
21847785178367,-0.9619147,8.848659,4.182654,0.0,0.0,0.0
21847787557325,-0.971486,8.839087,4.388437,0.0,0.0,0.0
21847789936284,-0.95712906,8.829515,4.56072,0.0,0.0,0.0
21847792315242,-0.9236295,8.800801,4.627719,0.0,0.0,0.0
21847794694096,-0.8997013,8.810373,4.5942197,0.0,0.0,0.0
21847797073106,-0.8757731,8.79123,4.469793,0.0,0.0,0.0
21847799452065,-0.82313097,8.79123,4.354937,0.0,0.0,0.0
21847801831023,-0.79441714,8.776874,4.354937,0.0,0.0,0.0
21847804209929,-0.7848458,8.776874,4.412365,0.0,0.0,0.0
21847806588888,-0.7704889,8.776874,4.4841495,0.0,0.0,0.0
21847808967846,-0.75613195,8.748159,4.493721,0.0,0.0,0.0
21847811346804,-0.75613195,8.7577305,4.3932223,0.0,0.0,0.0
21847813725763,-0.74177504,8.762517,4.2592244,0.0,0.0,0.0
21847816104669,-0.74177504,8.776874,4.1587257,0.0,0.0,0.0
21847818483627,-0.7800602,8.800801,4.106084,0.0,0.0,0.0
21847820862586,-0.83748794,8.815159,4.173083,0.0,0.0,0.0
21847823241492,-0.8997013,8.853444,4.2592244,0.0,0.0,0.0
21847825620450,-0.94755775,8.882157,4.316652,0.0,0.0,0.0
21847827999409,-1.0145568,8.906086,4.321438,0.0,0.0,0.0
21847830378367,-1.0767702,8.968299,4.273581,0.0,0.0,0.0
21847832757273,-1.119841,8.977871,4.2017965,0.0,0.0,0.0
21847835136231,-1.119841,9.044869,4.1587257,0.0,0.0,0.0
21847837515190,-1.119841,9.073584,4.139583,0.0,0.0,0.0
21847839894148,-1.1150553,9.107083,4.182654,0.0,0.0,0.0
21847842273054,-1.0815558,9.145369,4.220939,0.0,0.0,0.0
21847844652013,-1.0576276,9.15494,4.182654,0.0,0.0,0.0
21847847030971,-0.9619147,9.250652,4.0869412,0.0,0.0,0.0
21847849409929,-0.8757731,9.389436,3.8907297,0.0,0.0,0.0
21847851788836,-0.7896315,9.245867,3.330809,0.0,0.0,0.0
21847854167794,-0.66999036,8.949157,2.6751757,0.0,0.0,0.0
21847856546752,-0.47856453,8.85823,2.5268207,0.0,0.0,0.0
21847858925711,-0.40677986,8.71466,3.0388846,0.0,0.0,0.0
21847861304617,-0.38285163,8.547162,4.0677986,0.0,0.0,0.0
21847863683471,-0.30149564,8.547162,4.914858,0.0,0.0,0.0
21847866062534,-0.2632105,8.652447,4.948357,0.0,0.0,0.0
21847868441492,-0.32542387,8.7673025,4.2831526,0.0,0.0,0.0
21847870820398,-0.38763726,8.9108715,3.641876,0.0,0.0,0.0
21847873199356,-0.44027936,8.997013,3.6514473,0.0,0.0,0.0
21847875578263,-0.6125626,8.85823,4.2975097,0.0,0.0,0.0
21847877957273,-0.7513463,8.71466,5.1158547,0.0,0.0,0.0
21847880336179,-0.90448695,8.585447,5.4412785,0.0,0.0,0.0
21847882715138,-1.119841,8.403593,5.0249276,0.0,0.0,0.0
21847885094096,-1.1294123,8.566305,4.465007,0.0,0.0,0.0
21847887473054,-1.1389836,8.422736,3.4360933,0.0,0.0,0.0
21847889852013,-1.3591232,8.480164,2.8953154,0.0,0.0,0.0
21847892230919,-1.6127625,8.475378,3.5413775,0.0,0.0,0.0
21847894609877,-1.2203395,8.547162,4.776074,0.0,0.0,0.0
21847896988836,-1.5170496,9.150154,5.111069,0.0,0.0,0.0
21847899367742,-1.6797615,10.303494,4.465007,0.0,0.0,0.0
21847901746700,-1.7371893,9.399008,2.8378878,0.0,0.0,0.0
21847904125659,-1.0480564,9.552148,2.440679,0.0,0.0,0.0
21847906504617,-0.9619147,9.839287,2.7469604,0.0,0.0,0.0
21847908883575,-1.2251252,9.030513,4.287938,0.0,0.0,0.0
21847911262481,-0.5072784,8.398808,6.652047,0.0,0.0,0.0
21847913641440,-0.14356937,8.786445,8.240881,0.0,0.0,0.0
21847916020398,-0.06699903,8.56152,7.752745,0.0,0.0,0.0
21847918399356,0.148355,8.508878,6.096912,0.0,0.0,0.0
21847920778263,0.971486,9.016156,4.139583,0.0,0.0,0.0
21847923157221,0.9523434,9.293723,2.8713872,0.0,0.0,0.0
21847925536179,0.91405827,8.829515,2.9383862,0.0,0.0,0.0
21847927915138,1.2107682,8.695518,4.211368,0.0,0.0,0.0
21847930294044,1.0097711,8.781659,5.235496,0.0,0.0,0.0
21847932673002,0.5455636,8.566305,5.2833524,0.0,0.0,0.0
21847935051961,0.3062813,8.365308,4.508078,0.0,0.0,0.0
21847937430815,0.10049855,8.930014,3.7280176,0.0,0.0,0.0
21847939809825,-0.44985065,8.9348,3.0723844,0.0,0.0,0.0
21847942188784,-0.85184485,8.556734,3.3834512,0.0,0.0,0.0
21847944567742,-1.1916257,8.590233,4.8191447,0.0,0.0,0.0
21847946946700,-1.6414764,8.475378,6.1495543,0.0,0.0,0.0
21847949325606,-2.1822543,8.293523,6.6424756,0.0,0.0,0.0
21847951704565,-2.388037,8.422736,6.1974106,0.0,0.0,0.0
21847954083523,-2.751746,8.886943,5.1254263,0.0,0.0,0.0
21847956462429,-3.0532417,8.997013,3.885944,0.0,0.0,0.0
21847958841388,-3.1489546,9.159725,3.4695928,0.0,0.0,0.0
21847961220346,-3.2350962,9.38465,3.9720855,0.0,0.0,0.0
21847963599304,-3.3834512,9.322437,4.8239303,0.0,0.0,0.0
21847965978211,-3.3690944,9.217153,5.517849,0.0,0.0,0.0
21847968357169,-3.1537402,9.217153,5.6327047,0.0,0.0,0.0
21847970736127,-2.9096723,9.126225,5.0344987,0.0,0.0,0.0
21847973115086,-2.5555346,9.006584,4.1443686,0.0,0.0,0.0
21847975494044,-2.0721843,8.987442,3.656233,0.0,0.0,0.0
21847977872950,-1.6414764,8.843872,3.6897326,0.0,0.0,0.0
21847980251909,-1.253839,8.642876,4.1874394,0.0,0.0,0.0
21847982630867,-0.80877405,8.480164,4.718646,0.0,0.0,0.0
21847985009773,-0.4546363,8.441878,4.895715,0.0,0.0,0.0
21847987388731,-0.2105684,8.398808,4.479364,0.0,0.0,0.0
21847989767690,0.023928227,8.41795,3.7040894,0.0,0.0,0.0
21847992146648,0.2009971,8.556734,3.0532417,0.0,0.0,0.0
21847994525606,0.30149564,8.585447,2.804388,0.0,0.0,0.0
21847996904513,0.29192436,8.618947,3.0819557,0.0,0.0,0.0
21847999283471,0.2632105,8.63809,3.641876,0.0,0.0,0.0
21848001662429,0.15314065,8.685946,4.034299,0.0,0.0,0.0
21848004041388,0.062213387,8.709874,3.9720855,0.0,0.0,0.0
21848006420294,0.0,8.796016,3.5700915,0.0,0.0,0.0
21848008799252,0.019142581,8.906086,3.0819557,0.0,0.0,0.0
21848011178211,0.033499517,8.9826565,2.861816,0.0,0.0,0.0
21848013557169,0.12921242,9.006584,3.034099,0.0,0.0,0.0
21848015936075,0.26799613,9.025727,3.4313076,0.0,0.0,0.0
21848018315034,0.4211368,9.025727,3.8237305,0.0,0.0,0.0
21848020693992,0.6652047,8.944371,3.9194436,0.0,0.0,0.0
21848023072950,0.9619147,8.963513,3.7040894,0.0,0.0,0.0
21848025451856,1.3016955,9.092726,3.4217365,0.0,0.0,0.0
21848027830815,1.5888343,9.212367,3.3403804,0.0,0.0,0.0
21848030209773,1.8137596,9.020942,3.4600215,0.0,0.0,0.0
21848032588731,2.0386848,8.872586,3.790231,0.0,0.0,0.0
21848034967638,2.2061825,9.073584,4.101298,0.0,0.0,0.0
21848037346596,2.0961127,9.202796,4.139583,0.0,0.0,0.0
21848039725554,1.8568304,9.030513,3.952943,0.0,0.0,0.0
21848042104513,1.6797615,9.01137,3.7136607,0.0,0.0,0.0
21848044483419,1.253839,9.016156,3.5365918,0.0,0.0,0.0
21848046862377,0.6795616,8.805588,3.6610186,0.0,0.0,0.0
21848049241336,0.20578274,8.676374,4.115655,0.0,0.0,0.0
21848051620294,-0.28235307,8.71466,4.5415773,0.0,0.0,0.0
21848053999200,-0.8997013,8.652447,4.7377887,0.0,0.0,0.0
21848056378159,-1.3399807,8.52802,4.7138605,0.0,0.0,0.0
21848058757117,-1.7659031,8.685946,4.7425747,0.0,0.0,0.0
21848061136075,-2.0721843,8.738588,4.699504,0.0,0.0,0.0
21848063514981,-2.4502504,8.762517,4.910072,0.0,0.0,0.0
21848065893940,-2.5028925,8.752945,5.302495,0.0,0.0,0.0
21848068272898,-2.536392,8.805588,5.613562,0.0,0.0,0.0
21848070651856,-2.6656044,8.863015,5.7858453,0.0,0.0,0.0
21848073030763,-2.4263222,8.772088,5.7762737,0.0,0.0,0.0
21848075409721,-2.143969,8.786445,5.6614184,0.0,0.0,0.0
21848077788679,-1.9190438,8.786445,5.4221363,0.0,0.0,0.0
21848080167638,-1.6749759,8.7673025,5.393422,0.0,0.0,0.0
21848082546492,-1.2442678,8.595019,5.316852,0.0,0.0,0.0
21848084925502,-1.2107682,8.7577305,5.3407803,0.0,0.0,0.0
21848087304461,-0.93320084,8.82473,5.2546387,0.0,0.0,0.0
21848089683419,-0.6891329,8.729017,4.9770713,0.0,0.0,0.0
21848092062325,-0.5455636,8.733803,4.3118663,0.0,0.0,0.0
21848094441284,-0.5694918,8.882157,3.7806597,0.0,0.0,0.0
21848096820242,-0.28235307,8.9013,3.656233,0.0,0.0,0.0
21848099199200,-0.28713873,8.896515,3.7950168,0.0,0.0,0.0
21848101578106,-0.41156548,9.01137,3.8524444,0.0,0.0,0.0
21848103957065,-0.60777694,9.131011,3.8524444,0.0,0.0,0.0
21848106336023,-0.7609176,9.116654,3.6801612,0.0,0.0,0.0
21848108714981,-1.0767702,9.188439,3.4504502,0.0,0.0,0.0
21848111093888,-1.3782659,9.312865,3.4313076,0.0,0.0,0.0
21848113472846,-1.5936198,9.245867,3.5653057,0.0,0.0,0.0
21848115851804,-1.942972,9.236296,3.818945,0.0,0.0,0.0
21848118230711,-2.1391835,9.217153,4.034299,0.0,0.0,0.0
21848120609669,-2.2827528,9.178867,4.1491547,0.0,0.0,0.0
21848122988627,-2.306681,9.092726,4.0965123,0.0,0.0,0.0
21848125367586,-2.2971098,9.068798,3.9864426,0.0,0.0,0.0
21848127746544,-2.0961127,9.049655,3.9720855,0.0,0.0,0.0
21848130125450,-1.8424734,8.949157,4.0103707,0.0,0.0,0.0
21848132504409,-1.6271194,8.867801,4.0438704,0.0,0.0,0.0
21848134883367,-1.3112668,8.848659,4.115655,0.0,0.0,0.0
21848137262325,-0.9619147,8.748159,4.106084,0.0,0.0,0.0
21848139641231,-0.70348984,8.666803,3.9577286,0.0,0.0,0.0
21848142020190,-0.4833502,8.743374,3.9146578,0.0,0.0,0.0
21848144399148,-0.18664017,8.729017,3.9433718,0.0,0.0,0.0
21848146778106,-0.0526421,8.628518,3.9768713,0.0,0.0,0.0
21848149157065,0.086141616,8.695518,4.0390844,0.0,0.0,0.0
21848151535971,0.20578274,8.719446,4.0869412,0.0,0.0,0.0
21848153914929,0.2727818,8.666803,4.1874394,0.0,0.0,0.0
21848156293888,0.23449662,8.666803,4.2831526,0.0,0.0,0.0
21848158672794,0.148355,8.729017,4.398008,0.0,0.0,0.0
21848161051752,0.05742774,8.623733,4.426722,0.0,0.0,0.0
21848163430711,-0.2632105,8.599805,4.493721,0.0,0.0,0.0
21848165809669,-0.4354937,8.585447,4.5559344,0.0,0.0,0.0
21848168188627,-0.70348984,8.590233,4.6037908,0.0,0.0,0.0
21848170567534,-0.94755775,8.633304,4.6325045,0.0,0.0,0.0
21848172946492,-1.1916257,8.657232,4.570291,0.0,0.0,0.0
21848175325450,-1.3304094,8.690732,4.4458647,0.0,0.0,0.0
21848177704356,-1.4356936,8.752945,4.3357944,0.0,0.0,0.0
21848180083315,-1.4739788,8.82473,4.26401,0.0,0.0,0.0
21848182462273,-1.3974084,8.863015,4.278367,0.0,0.0,0.0
21848184841231,-1.2873386,8.85823,4.316652,0.0,0.0,0.0
21848187220138,-1.0911272,8.882157,4.3118663,0.0,0.0,0.0
21848189599096,-0.8470592,8.939586,4.249653,0.0,0.0,0.0
21848191978054,-0.5838487,8.930014,4.206582,0.0,0.0,0.0
21848194357013,-0.31106696,8.872586,4.1635113,0.0,0.0,0.0
21848196735971,-0.023928227,8.891729,4.1587257,0.0,0.0,0.0
21848199114877,0.23449662,8.872586,4.1922255,0.0,0.0,0.0
21848201493836,0.46899325,8.843872,4.2687955,0.0,0.0,0.0
21848203872794,0.66041905,8.79123,4.3740797,0.0,0.0,0.0
21848206251752,0.7848458,8.776874,4.426722,0.0,0.0,0.0
21848208630659,0.8757731,8.762517,4.4315076,0.0,0.0,0.0
21848211009617,0.8566305,8.772088,4.4315076,0.0,0.0,0.0
21848213388575,0.79441714,8.738588,4.3740797,0.0,0.0,0.0
21848215767534,0.6029913,8.752945,4.3501515,0.0,0.0,0.0
21848218146440,0.35413775,8.733803,4.321438,0.0,0.0,0.0
21848220525398,0.0526421,8.709874,4.302295,0.0,0.0,0.0
21848222904356,-0.26799613,8.738588,4.321438,0.0,0.0,0.0
21848225283315,-0.57906306,8.810373,4.359723,0.0,0.0,0.0
21848227662221,-0.8422736,8.834301,4.321438,0.0,0.0,0.0
21848230041127,-1.105484,8.891729,4.182654,0.0,0.0,0.0
21848232420138,-1.2729816,9.006584,4.048656,0.0,0.0,0.0
21848234799096,-1.3399807,9.044869,3.9960139,0.0,0.0,0.0
21848237178002,-1.3543376,9.092726,4.0390844,0.0,0.0,0.0
21848239556961,-1.2729816,9.145369,4.091727,0.0,0.0,0.0
21848241935919,-1.1533405,9.145369,4.0677986,0.0,0.0,0.0
21848244314825,-1.0145568,9.178867,4.1347976,0.0,0.0,0.0
21848246693784,-0.8422736,9.183653,4.1347976,0.0,0.0,0.0
21848249072742,-0.70348984,9.15494,4.0390844,0.0,0.0,0.0
21848251451700,-0.6125626,9.212367,3.9960139,0.0,0.0,0.0
21848253830659,-0.4881358,9.2075815,4.034299,0.0,0.0,0.0
21848256209565,-0.4211368,9.183653,4.1347976,0.0,0.0,0.0
21848258588523,-0.3684947,9.150154,4.2257247,0.0,0.0,0.0
21848260967481,-0.28235307,9.169296,4.2448673,0.0,0.0,0.0
21848263346440,-0.26799613,9.164511,4.2161536,0.0,0.0,0.0
21848265725346,-0.23449662,9.12144,4.1491547,0.0,0.0,0.0
21848268104304,-0.26799613,9.107083,4.1347976,0.0,0.0,0.0
21848270483263,-0.28713873,9.068798,4.1778684,0.0,0.0,0.0
21848272862221,-0.41156548,9.016156,4.3262234,0.0,0.0,0.0
21848275241127,-0.53599226,8.977871,4.5128636,0.0,0.0,0.0
21848277620086,-0.6029913,8.968299,4.570291,0.0,0.0,0.0
21848279999044,-0.7704889,9.006584,4.4458647,0.0,0.0,0.0
21848282378002,-0.81834537,9.01137,4.2448673,0.0,0.0,0.0
21848284756909,-0.85184485,8.958728,4.1443686,0.0,0.0,0.0
21848287135867,-0.8662018,8.9348,4.211368,0.0,0.0,0.0
21848289514825,-0.85184485,8.843872,4.398008,0.0,0.0,0.0
21848291893784,-0.7752745,8.819944,4.56072,0.0,0.0,0.0
21848294272638,-0.67477596,8.810373,4.5798626,0.0,0.0,0.0
21848296651648,-0.55034924,8.843872,4.469793,0.0,0.0,0.0
21848299030606,-0.3684947,8.882157,4.316652,0.0,0.0,0.0
21848301409565,-0.21535404,8.915657,4.220939,0.0,0.0,0.0
21848303788471,-0.06699903,8.925228,4.211368,0.0,0.0,0.0
21848306167429,0.05742774,8.882157,4.3501515,0.0,0.0,0.0
21848308546388,0.15792629,8.805588,4.4745784,0.0,0.0,0.0
21848310925346,0.19142582,8.776874,4.551149,0.0,0.0,0.0
21848313304252,0.21535404,8.724232,4.4841495,0.0,0.0,0.0
21848315683211,0.17228323,8.733803,4.359723,0.0,0.0,0.0
21848318062169,0.09571291,8.762517,4.168297,0.0,0.0,0.0
21848320441127,-0.009571291,8.815159,4.0534415,0.0,0.0,0.0
21848322820034,-0.17228323,8.896515,4.072584,0.0,0.0,0.0
21848325198992,-0.24885355,8.815159,4.0390844,0.0,0.0,0.0
21848327577950,-0.4881358,8.853444,4.1347976,0.0,0.0,0.0
21848329956909,-0.61734825,8.834301,4.168297,0.0,0.0,0.0
21848332335815,-0.7465607,8.877372,4.1922255,0.0,0.0,0.0
21848334714773,-0.86141616,8.906086,4.130012,0.0,0.0,0.0
21848337093731,-1.0001999,8.958728,3.991228,0.0,0.0,0.0
21848339472690,-1.0767702,9.020942,3.9481573,0.0,0.0,0.0
21848341851596,-1.119841,9.064013,3.9577286,0.0,0.0,0.0
21848344230554,-1.1772687,9.092726,3.9960139,0.0,0.0,0.0
21848346609513,-1.1485549,9.092726,4.0151563,0.0,0.0,0.0
21848348988471,-1.119841,9.116654,4.048656,0.0,0.0,0.0
21848351367377,-1.0001999,9.078369,4.0295134,0.0,0.0,0.0
21848353746336,-0.8997013,9.064013,4.024728,0.0,0.0,0.0
21848356125294,-0.7896315,9.049655,4.072584,0.0,0.0,0.0
21848358504252,-0.63170516,8.949157,4.1778684,0.0,0.0,0.0
21848360883159,-0.52163535,8.906086,4.2975097,0.0,0.0,0.0
21848363262117,-0.42592242,8.9108715,4.345366,0.0,0.0,0.0
21848365641023,-0.29671,8.882157,4.2831526,0.0,0.0,0.0
21848368020034,-0.22492532,8.896515,4.2257247,0.0,0.0,0.0
21848370398992,-0.2536392,8.882157,4.26401,0.0,0.0,0.0
21848372777898,-0.23928227,8.800801,4.354937,0.0,0.0,0.0
21848375156856,-0.29192436,8.805588,4.503292,0.0,0.0,0.0
21848377535815,-0.36370903,8.781659,4.469793,0.0,0.0,0.0
21848379914721,-0.4881358,8.776874,4.388437,0.0,0.0,0.0
21848382293679,-0.56470615,8.762517,4.321438,0.0,0.0,0.0
21848384672638,-0.67477596,8.805588,4.3118663,0.0,0.0,0.0
21848387051596,-0.7704889,8.800801,4.3118663,0.0,0.0,0.0
21848389430554,-0.83748794,8.805588,4.3118663,0.0,0.0,0.0
21848391809461,-0.94755775,8.805588,4.402794,0.0,0.0,0.0
21848394188419,-1.0241281,8.776874,4.4745784,0.0,0.0,0.0
21848396567377,-1.0767702,8.762517,4.4554358,0.0,0.0,0.0
21848398946284,-1.1294123,8.79123,4.3932223,0.0,0.0,0.0
21848401325242,-1.1629118,8.772088,4.3645086,0.0,0.0,0.0
21848403704200,-1.1772687,8.743374,4.331009,0.0,0.0,0.0
21848406083159,-1.1772687,8.752945,4.3645086,0.0,0.0,0.0
21848408462117,-1.1820544,8.79123,4.412365,0.0,0.0,0.0
21848410840971,-1.1724831,8.829515,4.412365,0.0,0.0,0.0
21848413219981,-1.1389836,8.896515,4.426722,0.0,0.0,0.0
21848415598940,-1.0576276,8.958728,4.3740797,0.0,0.0,0.0
21848417977846,-1.0241281,9.0544405,4.4075794,0.0,0.0,0.0
21848420356804,-0.95712906,9.059227,4.4315076,0.0,0.0,0.0
21848422735763,-0.9667004,9.111869,4.4602213,0.0,0.0,0.0
21848425114721,-0.94277215,9.12144,4.4458647,0.0,0.0,0.0
21848427493679,-0.91884387,9.078369,4.398008,0.0,0.0,0.0
21848429872586,-0.89491564,9.064013,4.3836513,0.0,0.0,0.0
21848432251544,-0.86141616,9.025727,4.412365,0.0,0.0,0.0
21848434630502,-0.85184485,8.992228,4.4745784,0.0,0.0,0.0
21848437009461,-0.8853444,8.949157,4.4841495,0.0,0.0,0.0
21848439388367,-0.91884387,8.896515,4.4841495,0.0,0.0,0.0
21848441767325,-0.9284152,8.853444,4.479364,0.0,0.0,0.0
21848444146284,-0.90448695,8.79123,4.436293,0.0,0.0,0.0
21848446525242,-0.91884387,8.781659,4.316652,0.0,0.0,0.0
21848448904148,-0.9667004,8.776874,4.2017965,0.0,0.0,0.0
21848451283106,-0.9619147,8.705089,4.15394,0.0,0.0,0.0
21848453662065,-0.9954142,8.666803,4.2017965,0.0,0.0,0.0
21848456041023,-1.0289137,8.642876,4.287938,0.0,0.0,0.0
21848458419929,-1.038485,8.695518,4.359723,0.0,0.0,0.0
21848460798888,-1.0480564,8.685946,4.3262234,0.0,0.0,0.0
21848463177846,-1.0959128,8.705089,4.23051,0.0,0.0,0.0
21848465556804,-1.0624132,8.743374,4.130012,0.0,0.0,0.0
21848467935711,-1.0049855,8.762517,3.9960139,0.0,0.0,0.0
21848470314669,-1.0145568,8.796016,4.0103707,0.0,0.0,0.0
21848472693627,-0.9619147,8.772088,4.1204405,0.0,0.0,0.0
21848475072586,-0.8662018,8.762517,4.220939,0.0,0.0,0.0
21848477451492,-0.8327023,8.800801,4.2831526,0.0,0.0,0.0
21848479830450,-0.7369894,8.800801,4.211368,0.0,0.0,0.0
21848482209409,-0.6987042,8.796016,4.0677986,0.0,0.0,0.0
21848484588367,-0.5982057,8.834301,3.9290147,0.0,0.0,0.0
21848486967273,-0.5599205,8.848659,3.8524444,0.0,0.0,0.0
21848489346231,-0.5072784,8.834301,3.938586,0.0,0.0,0.0
21848491725190,-0.52163535,8.819944,4.0534415,0.0,0.0,0.0
21848494104096,-0.53599226,8.848659,4.1108694,0.0,0.0,0.0
21848496483054,-0.56470615,8.867801,4.072584,0.0,0.0,0.0
21848498862013,-0.57427746,8.891729,3.9720855,0.0,0.0,0.0
21848501240971,-0.6125626,8.9348,3.900301,0.0,0.0,0.0
21848503619929,-0.64606214,8.939586,3.9338005,0.0,0.0,0.0
21848505998836,-0.66999036,8.9108715,4.063013,0.0,0.0,0.0
21848508377794,-0.7082755,8.85823,4.197011,0.0,0.0,0.0
21848510756752,-0.7465607,8.848659,4.316652,0.0,0.0,0.0
21848513135711,-0.72741807,8.82473,4.345366,0.0,0.0,0.0
21848515514617,-0.74177504,8.848659,4.321438,0.0,0.0,0.0
21848517893575,-0.7322037,8.867801,4.2687955,0.0,0.0,0.0
21848520272534,-0.71306115,8.886943,4.254439,0.0,0.0,0.0
21848522651492,-0.67477596,8.867801,4.316652,0.0,0.0,0.0
21848525030398,-0.6269195,8.843872,4.412365,0.0,0.0,0.0
21848527409356,-0.4881358,8.872586,4.4985065,0.0,0.0,0.0
21848529788315,-0.38285163,8.877372,4.536792,0.0,0.0,0.0
21848532167273,-0.2536392,8.853444,4.503292,0.0,0.0,0.0
21848534546179,-0.16271193,8.839087,4.4171505,0.0,0.0,0.0
21848536925138,-0.062213387,8.848659,4.398008,0.0,0.0,0.0
21848539304096,0.047856454,8.877372,4.3932223,0.0,0.0,0.0
21848541683054,0.14356937,8.896515,4.388437,0.0,0.0,0.0
21848544061961,0.19142582,8.872586,4.412365,0.0,0.0,0.0
21848546440919,0.2536392,8.829515,4.4075794,0.0,0.0,0.0
21848548819877,0.2632105,8.79123,4.369294,0.0,0.0,0.0
21848551198836,0.19621146,8.810373,4.3118663,0.0,0.0,0.0
21848553577794,0.13878371,8.796016,4.2257247,0.0,0.0,0.0
21848555956700,0.009571291,8.82473,4.197011,0.0,0.0,0.0
21848558335659,-0.12921242,8.829515,4.197011,0.0,0.0,0.0
21848560714617,-0.30149564,8.786445,4.273581,0.0,0.0,0.0
21848563093523,-0.42592242,8.762517,4.3070807,0.0,0.0,0.0
21848565472481,-0.63170516,8.872586,4.402794,0.0,0.0,0.0
21848567851440,-0.7082755,8.877372,4.3262234,0.0,0.0,0.0
21848570230398,-0.89013004,8.925228,4.211368,0.0,0.0,0.0
21848572609356,-0.98584294,9.001799,4.1443686,0.0,0.0,0.0
21848574988263,-1.038485,9.020942,4.106084,0.0,0.0,0.0
21848577367221,-1.1724831,9.097511,4.26401,0.0,0.0,0.0
21848579746179,-1.2634103,9.073584,4.3645086,0.0,0.0,0.0
21848582125086,-1.282553,9.12144,4.465007,0.0,0.0,0.0
21848584504044,-1.3495519,9.159725,4.4458647,0.0,0.0,0.0
21848586883002,-1.2586247,9.145369,4.3262234,0.0,0.0,0.0
21848589261961,-1.2634103,9.116654,4.2592244,0.0,0.0,0.0
21848591640919,-1.1389836,9.102298,4.206582,0.0,0.0,0.0
21848594019825,-1.119841,9.059227,4.23051,0.0,0.0,0.0
21848596398784,-0.9762716,9.030513,4.2831526,0.0,0.0,0.0
21848598777742,-0.8805587,8.949157,4.3357944,0.0,0.0,0.0
21848601156700,-0.72741807,8.920443,4.3118663,0.0,0.0,0.0
21848603535606,-0.6269195,8.877372,4.2448673,0.0,0.0,0.0
21848605914565,-0.5072784,8.843872,4.1778684,0.0,0.0,0.0
21848608293523,-0.4211368,8.805588,4.106084,0.0,0.0,0.0
21848610672481,-0.36370903,8.776874,4.125226,0.0,0.0,0.0
21848613051388,-0.23449662,8.743374,4.15394,0.0,0.0,0.0
21848615430346,-0.22013968,8.733803,4.211368,0.0,0.0,0.0
21848617809304,-0.15314065,8.705089,4.197011,0.0,0.0,0.0
21848620188263,-0.13878371,8.71466,4.1491547,0.0,0.0,0.0
21848622567169,-0.1052842,8.7577305,4.0677986,0.0,0.0,0.0
21848624946127,-0.15792629,8.738588,3.991228,0.0,0.0,0.0
21848627325086,-0.19142582,8.709874,3.9720855,0.0,0.0,0.0
21848629704044,-0.2632105,8.724232,4.019942,0.0,0.0,0.0
21848632082950,-0.36370903,8.743374,4.101298,0.0,0.0,0.0
21848634461909,-0.41156548,8.700303,4.0534415,0.0,0.0,0.0
21848636840867,-0.55034924,8.815159,4.0534415,0.0,0.0,0.0
21848639219825,-0.5455636,8.776874,4.0007997,0.0,0.0,0.0
21848641598731,-0.63170516,8.781659,3.9960139,0.0,0.0,0.0
21848643977690,-0.64606214,8.810373,4.0103707,0.0,0.0,0.0
21848646356648,-0.66999036,8.781659,4.0103707,0.0,0.0,0.0
21848648735606,-0.6891329,8.810373,4.058227,0.0,0.0,0.0
21848651114513,-0.6843473,8.815159,4.048656,0.0,0.0,0.0
21848653493471,-0.6412765,8.829515,4.063013,0.0,0.0,0.0
21848655872429,-0.5982057,8.819944,4.0773697,0.0,0.0,0.0
21848658251388,-0.55513483,8.834301,4.072584,0.0,0.0,0.0
21848660630294,-0.52163535,8.829515,4.1204405,0.0,0.0,0.0
21848663009252,-0.44027936,8.829515,4.182654,0.0,0.0,0.0
21848665388211,-0.3924229,8.829515,4.2352962,0.0,0.0,0.0
21848667767169,-0.36370903,8.843872,4.2687955,0.0,0.0,0.0
21848670146075,-0.3062813,8.848659,4.287938,0.0,0.0,0.0
21848672525034,-0.26799613,8.834301,4.3118663,0.0,0.0,0.0
21848674903992,-0.25842485,8.829515,4.2927237,0.0,0.0,0.0
21848677282950,-0.28713873,8.839087,4.316652,0.0,0.0,0.0
21848679661909,-0.31106696,8.863015,4.354937,0.0,0.0,0.0
21848682040815,-0.38285163,8.886943,4.388437,0.0,0.0,0.0
21848684419773,-0.4211368,8.877372,4.426722,0.0,0.0,0.0
21848686798731,-0.5072784,8.872586,4.4171505,0.0,0.0,0.0
21848689177638,-0.5599205,8.877372,4.4171505,0.0,0.0,0.0
21848691556596,-0.6556334,8.877372,4.4075794,0.0,0.0,0.0
21848693935554,-0.7082755,8.882157,4.412365,0.0,0.0,0.0
21848696314513,-0.76570326,8.891729,4.4410787,0.0,0.0,0.0
21848698693419,-0.8039884,8.891729,4.465007,0.0,0.0,0.0
21848701072377,-0.8566305,8.853444,4.469793,0.0,0.0,0.0
21848703451336,-0.8662018,8.843872,4.479364,0.0,0.0,0.0
21848705830294,-0.90448695,8.853444,4.4458647,0.0,0.0,0.0
21848708209200,-0.89013004,8.834301,4.354937,0.0,0.0,0.0
21848710588159,-0.86141616,8.819944,4.302295,0.0,0.0,0.0
21848712967117,-0.82313097,8.848659,4.278367,0.0,0.0,0.0
21848715346075,-0.7609176,8.843872,4.273581,0.0,0.0,0.0
21848717724929,-0.74177504,8.85823,4.273581,0.0,0.0,0.0
21848720103940,-0.6891329,8.9108715,4.254439,0.0,0.0,0.0
21848722482898,-0.6556334,8.953942,4.2161536,0.0,0.0,0.0
21848724861856,-0.5694918,8.963513,4.1778684,0.0,0.0,0.0
21848727240815,-0.5599205,9.059227,4.2592244,0.0,0.0,0.0
21848729619721,-0.5312066,9.068798,4.254439,0.0,0.0,0.0
21848731998679,-0.5168497,9.078369,4.182654,0.0,0.0,0.0
21848734377638,-0.5024927,9.188439,4.1587257,0.0,0.0,0.0
21848736756544,-0.47856453,9.174082,4.115655,0.0,0.0,0.0
21848739135502,-0.5407779,9.174082,4.220939,0.0,0.0,0.0
21848741514461,-0.55513483,9.107083,4.2687955,0.0,0.0,0.0
21848743893419,-0.57427746,9.15494,4.345366,0.0,0.0,0.0
21848746272377,-0.6125626,9.15494,4.3932223,0.0,0.0,0.0
21848748651284,-0.6269195,9.102298,4.4075794,0.0,0.0,0.0
21848751030242,-0.5838487,9.102298,4.412365,0.0,0.0,0.0
21848753409200,-0.53599226,9.111869,4.3740797,0.0,0.0,0.0
21848755788159,-0.526421,9.102298,4.3788652,0.0,0.0,0.0
21848758167065,-0.4546363,9.035298,4.398008,0.0,0.0,0.0
21848760546023,-0.4019942,9.001799,4.4410787,0.0,0.0,0.0
21848762924981,-0.29671,8.968299,4.426722,0.0,0.0,0.0
21848765303940,-0.15792629,8.915657,4.412365,0.0,0.0,0.0
21848767682846,-0.023928227,8.886943,4.354937,0.0,0.0,0.0
21848770061804,0.043070808,8.829515,4.3070807,0.0,0.0,0.0
21848772440763,0.15314065,8.786445,4.26401,0.0,0.0,0.0
21848774819721,0.2105684,8.772088,4.249653,0.0,0.0,0.0
21848777198627,0.31585258,8.743374,4.240082,0.0,0.0,0.0
21848779577586,0.36370903,8.700303,4.220939,0.0,0.0,0.0
21848781956544,0.40677986,8.729017,4.2161536,0.0,0.0,0.0
21848784335502,0.44506502,8.71466,4.1635113,0.0,0.0,0.0
21848786714409,0.38763726,8.743374,4.0965123,0.0,0.0,0.0
21848789093367,0.36370903,8.71466,4.0103707,0.0,0.0,0.0
21848791472325,0.23928227,8.7673025,4.0295134,0.0,0.0,0.0
21848793851284,0.16271193,8.733803,4.063013,0.0,0.0,0.0
21848796230190,0.019142581,8.7673025,4.125226,0.0,0.0,0.0
21848798609148,-0.1052842,8.786445,4.1587257,0.0,0.0,0.0
21848800988106,-0.24885355,8.79123,4.106084,0.0,0.0,0.0
21848803367065,-0.3924229,8.805588,4.091727,0.0,0.0,0.0
21848805745971,-0.49292147,8.82473,4.0295134,0.0,0.0,0.0
21848808124929,-0.5838487,8.829515,4.034299,0.0,0.0,0.0
21848810503888,-0.6843473,8.829515,4.0869412,0.0,0.0,0.0
21848812882846,-0.7369894,8.819944,4.1347976,0.0,0.0,0.0
21848815261752,-0.8135597,8.815159,4.182654,0.0,0.0,0.0
21848817640711,-0.83748794,8.819944,4.211368,0.0,0.0,0.0
21848820019669,-0.83748794,8.819944,4.2017965,0.0,0.0,0.0
21848822398627,-0.8279166,8.805588,4.1778684,0.0,0.0,0.0
21848824777481,-0.83748794,8.800801,4.206582,0.0,0.0,0.0
21848827156492,-0.79441714,8.776874,4.2257247,0.0,0.0,0.0
21848829535450,-0.7465607,8.7577305,4.26401,0.0,0.0,0.0
21848831914409,-0.7178468,8.752945,4.321438,0.0,0.0,0.0
21848834293315,-0.66041905,8.752945,4.3645086,0.0,0.0,0.0
21848836672273,-0.6125626,8.733803,4.359723,0.0,0.0,0.0
21848839051231,-0.5694918,8.719446,4.3501515,0.0,0.0,0.0
21848841430190,-0.51206404,8.743374,4.354937,0.0,0.0,0.0
21848843809096,-0.47377887,8.748159,4.354937,0.0,0.0,0.0
21848846188054,-0.4546363,8.733803,4.3788652,0.0,0.0,0.0
21848848567013,-0.47377887,8.733803,4.4171505,0.0,0.0,0.0
21848850945971,-0.4881358,8.709874,4.4554358,0.0,0.0,0.0
21848853324877,-0.5455636,8.685946,4.4602213,0.0,0.0,0.0
21848855703836,-0.57427746,8.676374,4.4458647,0.0,0.0,0.0
21848858082794,-0.60777694,8.71466,4.436293,0.0,0.0,0.0
21848860461752,-0.6652047,8.743374,4.426722,0.0,0.0,0.0
21848862840711,-0.6987042,8.79123,4.4315076,0.0,0.0,0.0
21848865219617,-0.7704889,8.82473,4.436293,0.0,0.0,0.0
21848867598575,-0.8039884,8.877372,4.436293,0.0,0.0,0.0
21848869977534,-0.8422736,8.9348,4.426722,0.0,0.0,0.0
21848872356492,-0.8709874,9.001799,4.402794,0.0,0.0,0.0
21848874735398,-0.91884387,9.040084,4.388437,0.0,0.0,0.0
21848877114356,-0.9284152,9.0544405,4.354937,0.0,0.0,0.0
21848879493315,-1.0049855,9.12144,4.4315076,0.0,0.0,0.0
21848881872221,-0.9619147,9.116654,4.3788652,0.0,0.0,0.0
21848884251179,-0.98584294,9.12144,4.3740797,0.0,0.0,0.0
21848886630138,-0.93320084,9.044869,4.3357944,0.0,0.0,0.0
21848889009096,-0.93320084,9.044869,4.3405805,0.0,0.0,0.0
21848891388054,-0.91405827,9.049655,4.3932223,0.0,0.0,0.0
21848893766961,-0.8853444,9.025727,4.3501515,0.0,0.0,0.0
21848896145919,-0.8566305,9.068798,4.302295,0.0,0.0,0.0
21848898524877,-0.7848458,9.049655,4.130012,0.0,0.0,0.0
21848900903836,-0.71306115,9.064013,4.0438704,0.0,0.0,0.0
21848903282742,-0.6843473,8.992228,3.9864426,0.0,0.0,0.0
21848905661700,-0.6221339,8.930014,4.0103707,0.0,0.0,0.0
21848908040659,-0.5982057,8.915657,4.106084,0.0,0.0,0.0
21848910419617,-0.5407779,8.872586,4.1874394,0.0,0.0,0.0
21848912798523,-0.5599205,8.796016,4.2592244,0.0,0.0,0.0
21848915177481,-0.4977071,8.724232,4.2831526,0.0,0.0,0.0
21848917556440,-0.4546363,8.7577305,4.2831526,0.0,0.0,0.0
21848919935398,-0.44506502,8.786445,4.2257247,0.0,0.0,0.0
21848922314304,-0.44027936,8.748159,4.197011,0.0,0.0,0.0
21848924693263,-0.44027936,8.7577305,4.2017965,0.0,0.0,0.0
21848927072221,-0.41156548,8.82473,4.2161536,0.0,0.0,0.0
21848929451179,-0.41635114,8.877372,4.240082,0.0,0.0,0.0
21848931830086,-0.47856453,8.867801,4.2352962,0.0,0.0,0.0
21848934209044,-0.51206404,8.872586,4.2592244,0.0,0.0,0.0
21848936587950,-0.47377887,8.896515,4.26401,0.0,0.0,0.0
21848938966961,-0.4881358,8.925228,4.278367,0.0,0.0,0.0
21848941345867,-0.4977071,8.944371,4.26401,0.0,0.0,0.0
21848943724825,-0.51206404,8.944371,4.240082,0.0,0.0,0.0
21848946103784,-0.52163535,8.920443,4.220939,0.0,0.0,0.0
21848948482742,-0.5455636,8.939586,4.2161536,0.0,0.0,0.0
21848950861648,-0.55513483,8.920443,4.206582,0.0,0.0,0.0
21848953240606,-0.5838487,8.886943,4.240082,0.0,0.0,0.0
21848955619513,-0.5886344,8.853444,4.2448673,0.0,0.0,0.0
21848957998523,-0.6125626,8.867801,4.254439,0.0,0.0,0.0
21848960377429,-0.6029913,8.886943,4.2448673,0.0,0.0,0.0
21848962756388,-0.6364908,8.839087,4.240082,0.0,0.0,0.0
21848965135346,-0.6269195,8.781659,4.2352962,0.0,0.0,0.0
21848967514304,-0.6221339,8.776874,4.2448673,0.0,0.0,0.0
21848969893211,-0.61734825,8.776874,4.249653,0.0,0.0,0.0
21848972272169,-0.61734825,8.796016,4.2448673,0.0,0.0,0.0
21848974651127,-0.6556334,8.815159,4.2257247,0.0,0.0,0.0
21848977030086,-0.67477596,8.810373,4.2161536,0.0,0.0,0.0
21848979408992,-0.6987042,8.834301,4.2161536,0.0,0.0,0.0
21848981787950,-0.71306115,8.882157,4.240082,0.0,0.0,0.0
21848984166909,-0.72263247,8.872586,4.2687955,0.0,0.0,0.0
21848986545867,-0.7465607,8.867801,4.2831526,0.0,0.0,0.0
21848988924825,-0.7848458,8.882157,4.2831526,0.0,0.0,0.0
21848991303731,-0.79920274,8.896515,4.2975097,0.0,0.0,0.0
21848993682690,-0.82313097,8.9013,4.3070807,0.0,0.0,0.0
21848996061648,-0.8279166,8.877372,4.2975097,0.0,0.0,0.0
21848998440606,-0.82313097,8.848659,4.3118663,0.0,0.0,0.0
21849000819513,-0.7896315,8.853444,4.345366,0.0,0.0,0.0
21849003198471,-0.79920274,8.877372,4.3836513,0.0,0.0,0.0
21849005577429,-0.7752745,8.891729,4.3788652,0.0,0.0,0.0
21849007956388,-0.75613195,8.877372,4.354937,0.0,0.0,0.0
21849010335294,-0.72263247,8.886943,4.345366,0.0,0.0,0.0
21849012714252,-0.7322037,8.896515,4.3118663,0.0,0.0,0.0
21849015093211,-0.71306115,8.915657,4.3070807,0.0,0.0,0.0
21849017472169,-0.70348984,8.9108715,4.278367,0.0,0.0,0.0
21849019851075,-0.6843473,8.9108715,4.26401,0.0,0.0,0.0
21849022230034,-0.70348984,8.9108715,4.26401,0.0,0.0,0.0
21849024608940,-0.70348984,8.891729,4.2592244,0.0,0.0,0.0
21849026987950,-0.71306115,8.9013,4.2448673,0.0,0.0,0.0
21849029366856,-0.72741807,8.920443,4.197011,0.0,0.0,0.0
21849031745815,-0.7322037,8.9348,4.1778684,0.0,0.0,0.0
21849034124773,-0.7369894,8.949157,4.1587257,0.0,0.0,0.0
21849036503731,-0.7848458,8.949157,4.1587257,0.0,0.0,0.0
21849038882638,-0.8135597,8.939586,4.1443686,0.0,0.0,0.0
21849041261596,-0.79920274,8.958728,4.1204405,0.0,0.0,0.0
21849043640554,-0.82313097,8.963513,4.1347976,0.0,0.0,0.0
21849046019513,-0.83748794,8.963513,4.125226,0.0,0.0,0.0
21849048398419,-0.83748794,8.953942,4.125226,0.0,0.0,0.0
21849050777377,-0.8327023,8.944371,4.1443686,0.0,0.0,0.0
21849053156336,-0.80877405,8.958728,4.168297,0.0,0.0,0.0
21849055535294,-0.7848458,8.968299,4.182654,0.0,0.0,0.0
21849057914200,-0.76570326,8.949157,4.1778684,0.0,0.0,0.0
21849060293159,-0.7704889,8.944371,4.182654,0.0,0.0,0.0
21849062672117,-0.75613195,8.963513,4.197011,0.0,0.0,0.0
21849065051075,-0.74177504,8.925228,4.2352962,0.0,0.0,0.0
21849067429981,-0.76570326,8.944371,4.287938,0.0,0.0,0.0
21849069808940,-0.7513463,8.930014,4.2975097,0.0,0.0,0.0
21849072187898,-0.7369894,8.9108715,4.321438,0.0,0.0,0.0
21849074566856,-0.71306115,8.891729,4.3357944,0.0,0.0,0.0
21849076945815,-0.6843473,8.872586,4.3262234,0.0,0.0,0.0
21849079324721,-0.66041905,8.85823,4.2927237,0.0,0.0,0.0
21849081703679,-0.61734825,8.882157,4.2687955,0.0,0.0,0.0
21849084082638,-0.6029913,8.867801,4.302295,0.0,0.0,0.0
21849086461544,-0.5694918,8.85823,4.302295,0.0,0.0,0.0
21849088840502,-0.526421,8.85823,4.302295,0.0,0.0,0.0
21849091219461,-0.52163535,8.853444,4.302295,0.0,0.0,0.0
21849093598419,-0.5024927,8.85823,4.2927237,0.0,0.0,0.0
21849095977377,-0.49292147,8.85823,4.26401,0.0,0.0,0.0
21849098356284,-0.49292147,8.872586,4.249653,0.0,0.0,0.0
21849100735190,-0.49292147,8.877372,4.249653,0.0,0.0,0.0
21849103114200,-0.4546363,8.877372,4.26401,0.0,0.0,0.0
21849105493159,-0.4833502,8.877372,4.273581,0.0,0.0,0.0
21849107872065,-0.4881358,8.886943,4.249653,0.0,0.0,0.0
21849110251023,-0.526421,8.882157,4.240082,0.0,0.0,0.0
21849112629981,-0.53599226,8.896515,4.2161536,0.0,0.0,0.0
21849115008940,-0.5455636,8.920443,4.211368,0.0,0.0,0.0
21849117387846,-0.5694918,8.920443,4.206582,0.0,0.0,0.0
21849119766804,-0.57427746,8.9108715,4.2161536,0.0,0.0,0.0
21849122145763,-0.5838487,8.886943,4.2352962,0.0,0.0,0.0
21849124524721,-0.6029913,8.886943,4.220939,0.0,0.0,0.0
21849126903627,-0.6364908,8.9013,4.211368,0.0,0.0,0.0
21849129282586,-0.6556334,8.9108715,4.206582,0.0,0.0,0.0
21849131661544,-0.66999036,8.853444,4.2017965,0.0,0.0,0.0
21849134040502,-0.6843473,8.867801,4.2017965,0.0,0.0,0.0
21849136419409,-0.6891329,8.882157,4.211368,0.0,0.0,0.0
21849138798367,-0.71306115,8.867801,4.2257247,0.0,0.0,0.0
21849141177325,-0.71306115,8.877372,4.2448673,0.0,0.0,0.0
21849143556284,-0.6987042,8.9013,4.273581,0.0,0.0,0.0
21849145935190,-0.6939186,8.9013,4.273581,0.0,0.0,0.0
21849148314148,-0.6987042,8.906086,4.287938,0.0,0.0,0.0
21849150693054,-0.6987042,8.9108715,4.2831526,0.0,0.0,0.0
21849153072065,-0.67477596,8.9108715,4.2927237,0.0,0.0,0.0
21849155450971,-0.66999036,8.891729,4.2831526,0.0,0.0,0.0
21849157829929,-0.6412765,8.906086,4.302295,0.0,0.0,0.0
21849160208888,-0.5982057,8.9108715,4.3070807,0.0,0.0,0.0
21849162587846,-0.5599205,8.886943,4.321438,0.0,0.0,0.0
21849164966752,-0.5168497,8.886943,4.316652,0.0,0.0,0.0
21849167345711,-0.4546363,8.867801,4.3262234,0.0,0.0,0.0
21849169724669,-0.4211368,8.863015,4.331009,0.0,0.0,0.0
21849172103627,-0.39720857,8.829515,4.302295,0.0,0.0,0.0
21849174482586,-0.3684947,8.810373,4.302295,0.0,0.0,0.0
21849176861492,-0.33499518,8.805588,4.3070807,0.0,0.0,0.0
21849179240450,-0.28713873,8.796016,4.321438,0.0,0.0,0.0
21849181619409,-0.2632105,8.82473,4.302295,0.0,0.0,0.0
21849183998367,-0.25842485,8.834301,4.302295,0.0,0.0,0.0
21849186377273,-0.24885355,8.810373,4.273581,0.0,0.0,0.0
21849188756231,-0.26799613,8.819944,4.273581,0.0,0.0,0.0
21849191135190,-0.2727818,8.853444,4.2448673,0.0,0.0,0.0
21849193514148,-0.30149564,8.863015,4.23051,0.0,0.0,0.0
21849195893054,-0.32063824,8.872586,4.23051,0.0,0.0,0.0
21849198272013,-0.36370903,8.882157,4.211368,0.0,0.0,0.0
21849200650919,-0.38285163,8.896515,4.2017965,0.0,0.0,0.0
21849203029929,-0.4211368,8.891729,4.182654,0.0,0.0,0.0
21849205408836,-0.4546363,8.886943,4.15394,0.0,0.0,0.0
21849207787794,-0.46899325,8.877372,4.1347976,0.0,0.0,0.0
21849210166752,-0.51206404,8.9108715,4.125226,0.0,0.0,0.0
21849212545711,-0.5312066,8.9348,4.1108694,0.0,0.0,0.0
21849214924617,-0.53599226,8.9348,4.101298,0.0,0.0,0.0
21849217303575,-0.55513483,8.9108715,4.115655,0.0,0.0,0.0
21849219682534,-0.55513483,8.930014,4.1108694,0.0,0.0,0.0
21849222061492,-0.5407779,8.949157,4.139583,0.0,0.0,0.0
21849224440398,-0.5312066,8.953942,4.1347976,0.0,0.0,0.0
21849226819304,-0.5168497,8.944371,4.1635113,0.0,0.0,0.0
21849229198315,-0.51206404,8.9348,4.206582,0.0,0.0,0.0
21849231577273,-0.55034924,8.930014,4.2161536,0.0,0.0,0.0
21849233956179,-0.5455636,8.906086,4.2352962,0.0,0.0,0.0
21849236335138,-0.55513483,8.920443,4.2687955,0.0,0.0,0.0
21849238714096,-0.55513483,8.9013,4.2975097,0.0,0.0,0.0
21849241093054,-0.55513483,8.886943,4.321438,0.0,0.0,0.0
21849243471961,-0.5407779,8.867801,4.3357944,0.0,0.0,0.0
21849245850919,-0.5838487,8.839087,4.3405805,0.0,0.0,0.0
21849248229877,-0.5982057,8.85823,4.345366,0.0,0.0,0.0
21849250608836,-0.60777694,8.85823,4.3405805,0.0,0.0,0.0
21849252987794,-0.60777694,8.848659,4.345366,0.0,0.0,0.0
21849255366700,-0.6125626,8.843872,4.331009,0.0,0.0,0.0
21849257745659,-0.6269195,8.848659,4.316652,0.0,0.0,0.0
21849260124565,-0.6364908,8.853444,4.3070807,0.0,0.0,0.0
21849262503575,-0.64606214,8.886943,4.316652,0.0,0.0,0.0
21849264882481,-0.65084773,8.882157,4.3262234,0.0,0.0,0.0
21849267261440,-0.64606214,8.906086,4.331009,0.0,0.0,0.0
21849269640398,-0.64606214,8.9108715,4.331009,0.0,0.0,0.0
21849272019252,-0.64606214,8.896515,4.3405805,0.0,0.0,0.0
21849274398263,-0.65084773,8.9108715,4.321438,0.0,0.0,0.0
21849276777221,-0.6269195,8.930014,4.3357944,0.0,0.0,0.0
21849279156179,-0.63170516,8.925228,4.3262234,0.0,0.0,0.0
21849281535138,-0.63170516,8.9348,4.3070807,0.0,0.0,0.0
21849283914044,-0.6221339,8.915657,4.2927237,0.0,0.0,0.0
21849286293002,-0.61734825,8.9108715,4.278367,0.0,0.0,0.0
21849288671961,-0.61734825,8.891729,4.249653,0.0,0.0,0.0
21849291050919,-0.6125626,8.891729,4.23051,0.0,0.0,0.0
21849293429825,-0.6221339,8.896515,4.197011,0.0,0.0,0.0
21849295808784,-0.64606214,8.9108715,4.1922255,0.0,0.0,0.0
21849298187742,-0.6364908,8.906086,4.1778684,0.0,0.0,0.0
21849300566700,-0.6221339,8.906086,4.1874394,0.0,0.0,0.0
21849302945606,-0.63170516,8.906086,4.206582,0.0,0.0,0.0
21849305324565,-0.6364908,8.9108715,4.211368,0.0,0.0,0.0
21849307703523,-0.61734825,8.886943,4.206582,0.0,0.0,0.0
21849310082481,-0.6412765,8.9013,4.206582,0.0,0.0,0.0
21849312461388,-0.6269195,8.896515,4.211368,0.0,0.0,0.0
21849314840346,-0.5982057,8.872586,4.2161536,0.0,0.0,0.0
21849317219304,-0.57906306,8.906086,4.211368,0.0,0.0,0.0
21849319598263,-0.57906306,8.9013,4.220939,0.0,0.0,0.0
21849321977169,-0.5455636,8.891729,4.2257247,0.0,0.0,0.0
21849324356127,-0.53599226,8.896515,4.254439,0.0,0.0,0.0
21849326735086,-0.5072784,8.886943,4.26401,0.0,0.0,0.0
21849329114044,-0.4881358,8.872586,4.273581,0.0,0.0,0.0
21849331492950,-0.46899325,8.85823,4.2687955,0.0,0.0,0.0
21849333871909,-0.4546363,8.867801,4.240082,0.0,0.0,0.0
21849336250867,-0.42592242,8.872586,4.2352962,0.0,0.0,0.0
21849338629825,-0.4019942,8.872586,4.254439,0.0,0.0,0.0
21849341008731,-0.38763726,8.891729,4.2448673,0.0,0.0,0.0
21849343387690,-0.4019942,8.882157,4.2687955,0.0,0.0,0.0
21849345766648,-0.39720857,8.848659,4.2687955,0.0,0.0,0.0
21849348145606,-0.4019942,8.834301,4.2831526,0.0,0.0,0.0
21849350524565,-0.42592242,8.839087,4.287938,0.0,0.0,0.0
21849352903471,-0.44027936,8.843872,4.26401,0.0,0.0,0.0
21849355282429,-0.45942193,8.882157,4.249653,0.0,0.0,0.0
21849357661388,-0.4881358,8.891729,4.249653,0.0,0.0,0.0
21849360040346,-0.49292147,8.882157,4.2448673,0.0,0.0,0.0
21849362419252,-0.52163535,8.882157,4.2687955,0.0,0.0,0.0
21849364798211,-0.52163535,8.872586,4.273581,0.0,0.0,0.0
21849367177169,-0.5455636,8.863015,4.278367,0.0,0.0,0.0
21849369556075,-0.55034924,8.891729,4.273581,0.0,0.0,0.0
21849371935034,-0.60777694,8.877372,4.26401,0.0,0.0,0.0
21849374313992,-0.6029913,8.882157,4.2592244,0.0,0.0,0.0
21849376692950,-0.60777694,8.877372,4.26401,0.0,0.0,0.0
21849379071909,-0.59342,8.877372,4.2927237,0.0,0.0,0.0
21849381450763,-0.5838487,8.872586,4.2975097,0.0,0.0,0.0
21849383829773,-0.59342,8.872586,4.302295,0.0,0.0,0.0
21849386208731,-0.59342,8.85823,4.3118663,0.0,0.0,0.0
21849388587690,-0.5982057,8.867801,4.3118663,0.0,0.0,0.0
21849390966544,-0.57906306,8.877372,4.2975097,0.0,0.0,0.0
21849393345554,-0.5886344,8.877372,4.302295,0.0,0.0,0.0
21849395724513,-0.57427746,8.886943,4.302295,0.0,0.0,0.0
21849398103471,-0.55034924,8.9013,4.302295,0.0,0.0,0.0
21849400482377,-0.56470615,8.891729,4.2975097,0.0,0.0,0.0
21849402861336,-0.56470615,8.896515,4.287938,0.0,0.0,0.0
21849405240294,-0.5599205,8.9013,4.3070807,0.0,0.0,0.0
21849407619252,-0.57427746,8.891729,4.2975097,0.0,0.0,0.0
21849409998159,-0.57906306,8.886943,4.2975097,0.0,0.0,0.0
21849412377117,-0.5982057,8.891729,4.2927237,0.0,0.0,0.0
21849414756023,-0.61734825,8.891729,4.302295,0.0,0.0,0.0
21849417135034,-0.6125626,8.906086,4.2975097,0.0,0.0,0.0
21849419513992,-0.6221339,8.896515,4.3118663,0.0,0.0,0.0
21849421892898,-0.6556334,8.886943,4.287938,0.0,0.0,0.0
21849424271856,-0.6843473,8.882157,4.278367,0.0,0.0,0.0
21849426650815,-0.66041905,8.896515,4.273581,0.0,0.0,0.0
21849429029773,-0.6269195,8.877372,4.249653,0.0,0.0,0.0
21849431408679,-0.63170516,8.891729,4.2448673,0.0,0.0,0.0
21849433787638,-0.61734825,8.920443,4.26401,0.0,0.0,0.0
21849436166596,-0.61734825,8.9108715,4.254439,0.0,0.0,0.0
21849438545554,-0.6125626,8.886943,4.2352962,0.0,0.0,0.0
21849440924461,-0.61734825,8.9013,4.2257247,0.0,0.0,0.0
21849443303419,-0.5838487,8.9108715,4.2017965,0.0,0.0,0.0
21849445682377,-0.5982057,8.9108715,4.1874394,0.0,0.0,0.0
21849448061336,-0.55513483,8.930014,4.1922255,0.0,0.0,0.0
21849450440242,-0.53599226,8.915657,4.197011,0.0,0.0,0.0
21849452819200,-0.5407779,8.906086,4.182654,0.0,0.0,0.0
21849455198159,-0.51206404,8.906086,4.1874394,0.0,0.0,0.0
21849457577117,-0.4977071,8.891729,4.1874394,0.0,0.0,0.0
21849459956023,-0.4977071,8.896515,4.1922255,0.0,0.0,0.0
21849462334981,-0.47856453,8.891729,4.211368,0.0,0.0,0.0
21849464713940,-0.47377887,8.906086,4.240082,0.0,0.0,0.0
21849467092898,-0.47377887,8.9108715,4.2592244,0.0,0.0,0.0
21849469471752,-0.4546363,8.891729,4.273581,0.0,0.0,0.0
21849471850763,-0.44985065,8.915657,4.302295,0.0,0.0,0.0
21849474229721,-0.44506502,8.915657,4.3070807,0.0,0.0,0.0
21849476608679,-0.42592242,8.920443,4.2975097,0.0,0.0,0.0
21849478987586,-0.40677986,8.920443,4.278367,0.0,0.0,0.0
21849481366544,-0.41156548,8.906086,4.2927237,0.0,0.0,0.0
21849483745502,-0.3924229,8.877372,4.302295,0.0,0.0,0.0
21849486124461,-0.38763726,8.886943,4.2927237,0.0,0.0,0.0
21849488503419,-0.39720857,8.886943,4.2975097,0.0,0.0,0.0
21849490882325,-0.38763726,8.882157,4.302295,0.0,0.0,0.0
21849493261231,-0.38285163,8.891729,4.278367,0.0,0.0,0.0
21849495640242,-0.3924229,8.906086,4.2831526,0.0,0.0,0.0
21849498019200,-0.36370903,8.896515,4.273581,0.0,0.0,0.0
21849500398106,-0.38285163,8.906086,4.2831526,0.0,0.0,0.0
21849502777065,-0.4019942,8.896515,4.273581,0.0,0.0,0.0
21849505156023,-0.4211368,8.896515,4.2831526,0.0,0.0,0.0
21849507534981,-0.45942193,8.886943,4.2687955,0.0,0.0,0.0
21849509913888,-0.4977071,8.891729,4.26401,0.0,0.0,0.0
21849512292846,-0.5312066,8.891729,4.2687955,0.0,0.0,0.0
21849514671804,-0.5455636,8.882157,4.2592244,0.0,0.0,0.0
21849517050711,-0.60777694,8.896515,4.2448673,0.0,0.0,0.0
21849519429669,-0.63170516,8.906086,4.240082,0.0,0.0,0.0
21849521808627,-0.65084773,8.906086,4.2161536,0.0,0.0,0.0
21849524187586,-0.6652047,8.920443,4.2017965,0.0,0.0,0.0
21849526566544,-0.66041905,8.906086,4.2017965,0.0,0.0,0.0
21849528945450,-0.6652047,8.915657,4.1922255,0.0,0.0,0.0
21849531324409,-0.65084773,8.925228,4.1922255,0.0,0.0,0.0
21849533703367,-0.6364908,8.939586,4.1874394,0.0,0.0,0.0
21849536082325,-0.6269195,8.9348,4.1922255,0.0,0.0,0.0
21849538461231,-0.57427746,8.925228,4.2017965,0.0,0.0,0.0
21849540840190,-0.5455636,8.915657,4.197011,0.0,0.0,0.0
21849543219148,-0.51206404,8.9108715,4.197011,0.0,0.0,0.0
21849545598106,-0.47856453,8.896515,4.1874394,0.0,0.0,0.0
21849547977013,-0.4211368,8.9013,4.206582,0.0,0.0,0.0
21849550355971,-0.37806597,8.891729,4.2352962,0.0,0.0,0.0
21849552734929,-0.35413775,8.872586,4.240082,0.0,0.0,0.0
21849555113888,-0.33020952,8.867801,4.2352962,0.0,0.0,0.0
21849557492794,-0.29671,8.877372,4.240082,0.0,0.0,0.0
21849559871752,-0.29192436,8.85823,4.23051,0.0,0.0,0.0
21849562250711,-0.28713873,8.867801,4.2257247,0.0,0.0,0.0
21849564629669,-0.28713873,8.872586,4.211368,0.0,0.0,0.0
21849567008627,-0.29671,8.867801,4.2352962,0.0,0.0,0.0
21849569387534,-0.3062813,8.853444,4.220939,0.0,0.0,0.0
21849571766492,-0.31585258,8.843872,4.23051,0.0,0.0,0.0
21849574145450,-0.3493521,8.839087,4.23051,0.0,0.0,0.0
21849576524409,-0.37806597,8.843872,4.240082,0.0,0.0,0.0
21849578903315,-0.40677986,8.843872,4.249653,0.0,0.0,0.0
21849581282273,-0.4211368,8.863015,4.2592244,0.0,0.0,0.0
21849583661231,-0.43070808,8.882157,4.2831526,0.0,0.0,0.0
21849586040190,-0.44985065,8.886943,4.2831526,0.0,0.0,0.0
21849588419096,-0.44985065,8.891729,4.278367,0.0,0.0,0.0
21849590798054,-0.46899325,8.9013,4.3070807,0.0,0.0,0.0
21849593177013,-0.4833502,8.891729,4.3070807,0.0,0.0,0.0
21849595555971,-0.4881358,8.906086,4.302295,0.0,0.0,0.0
21849597934877,-0.4881358,8.9108715,4.2927237,0.0,0.0,0.0
21849600313836,-0.49292147,8.9013,4.2687955,0.0,0.0,0.0
21849602692794,-0.5024927,8.877372,4.273581,0.0,0.0,0.0
21849605071752,-0.5024927,8.867801,4.2592244,0.0,0.0,0.0
21849607450711,-0.51206404,8.867801,4.273581,0.0,0.0,0.0
21849609829617,-0.5072784,8.877372,4.287938,0.0,0.0,0.0
21849612208575,-0.5168497,8.863015,4.2687955,0.0,0.0,0.0
21849614587534,-0.5407779,8.85823,4.254439,0.0,0.0,0.0
21849616966492,-0.5312066,8.839087,4.26401,0.0,0.0,0.0
21849619345398,-0.5168497,8.872586,4.287938,0.0,0.0,0.0
21849621724356,-0.5407779,8.867801,4.2927237,0.0,0.0,0.0
21849624103315,-0.57427746,8.872586,4.273581,0.0,0.0,0.0
21849626482273,-0.57906306,8.872586,4.2687955,0.0,0.0,0.0
21849628861179,-0.55513483,8.886943,4.3070807,0.0,0.0,0.0
21849631240138,-0.55513483,8.920443,4.3070807,0.0,0.0,0.0
21849633619096,-0.56470615,8.906086,4.2927237,0.0,0.0,0.0
21849635998054,-0.55513483,8.915657,4.2975097,0.0,0.0,0.0
21849638376961,-0.56470615,8.9108715,4.2927237,0.0,0.0,0.0
21849640755919,-0.55034924,8.930014,4.287938,0.0,0.0,0.0
21849643134877,-0.5312066,8.906086,4.287938,0.0,0.0,0.0
21849645513836,-0.5072784,8.906086,4.2687955,0.0,0.0,0.0
21849647892742,-0.4977071,8.925228,4.254439,0.0,0.0,0.0
21849650271700,-0.47377887,8.9348,4.23051,0.0,0.0,0.0
21849652650659,-0.45942193,8.915657,4.240082,0.0,0.0,0.0
21849655029617,-0.43070808,8.9108715,4.240082,0.0,0.0,0.0
21849657408523,-0.4019942,8.906086,4.249653,0.0,0.0,0.0
21849659787481,-0.3684947,8.9108715,4.2352962,0.0,0.0,0.0
21849662166440,-0.35413775,8.920443,4.220939,0.0,0.0,0.0
21849664545398,-0.3493521,8.891729,4.2352962,0.0,0.0,0.0
21849666924356,-0.3397808,8.9013,4.2352962,0.0,0.0,0.0
21849669303263,-0.32542387,8.9108715,4.240082,0.0,0.0,0.0
21849671682221,-0.34456646,8.891729,4.220939,0.0,0.0,0.0
21849674061179,-0.37328035,8.896515,4.206582,0.0,0.0,0.0
21849676440138,-0.38285163,8.891729,4.2352962,0.0,0.0,0.0
21849678819044,-0.41156548,8.906086,4.240082,0.0,0.0,0.0
21849681198002,-0.43070808,8.896515,4.254439,0.0,0.0,0.0
21849683576961,-0.44506502,8.896515,4.2687955,0.0,0.0,0.0
21849685955919,-0.46899325,8.877372,4.2448673,0.0,0.0,0.0
21849688334825,-0.4977071,8.882157,4.2448673,0.0,0.0,0.0
21849690713784,-0.5312066,8.882157,4.2352962,0.0,0.0,0.0
21849693092742,-0.5312066,8.886943,4.2448673,0.0,0.0,0.0
21849695471700,-0.526421,8.877372,4.26401,0.0,0.0,0.0
21849697850606,-0.5407779,8.906086,4.273581,0.0,0.0,0.0
21849700229565,-0.53599226,8.882157,4.278367,0.0,0.0,0.0
21849702608523,-0.51206404,8.882157,4.273581,0.0,0.0,0.0
21849704987481,-0.4642076,8.9108715,4.278367,0.0,0.0,0.0
21849707366336,-0.4354937,8.915657,4.2831526,0.0,0.0,0.0
21849709745346,-0.37806597,8.891729,4.273581,0.0,0.0,0.0
21849712124304,-0.33499518,8.877372,4.2687955,0.0,0.0,0.0
21849714503263,-0.29671,8.882157,4.2831526,0.0,0.0,0.0
21849716882221,-0.2727818,8.863015,4.2831526,0.0,0.0,0.0
21849719261127,-0.23449662,8.872586,4.2687955,0.0,0.0,0.0
21849721640086,-0.22013968,8.882157,4.254439,0.0,0.0,0.0
21849724019044,-0.22013968,8.896515,4.249653,0.0,0.0,0.0
21849726398002,-0.20578274,8.886943,4.2257247,0.0,0.0,0.0
21849728776909,-0.22013968,8.891729,4.2257247,0.0,0.0,0.0
21849731155867,-0.25842485,8.886943,4.2352962,0.0,0.0,0.0
21849733534825,-0.27756742,8.882157,4.2448673,0.0,0.0,0.0
21849735913784,-0.3062813,8.891729,4.240082,0.0,0.0,0.0
21849738292690,-0.36370903,8.886943,4.254439,0.0,0.0,0.0
21849740671648,-0.4211368,8.877372,4.2448673,0.0,0.0,0.0
21849743050606,-0.44985065,8.906086,4.2257247,0.0,0.0,0.0
21849745429565,-0.4881358,8.915657,4.220939,0.0,0.0,0.0
21849747808471,-0.52163535,8.9108715,4.23051,0.0,0.0,0.0
21849750187429,-0.5599205,8.9013,4.2352962,0.0,0.0,0.0
21849752566388,-0.5886344,8.906086,4.2448673,0.0,0.0,0.0
21849754945346,-0.6364908,8.9108715,4.2831526,0.0,0.0,0.0
21849757324252,-0.64606214,8.896515,4.2687955,0.0,0.0,0.0
21849759703211,-0.66041905,8.9108715,4.254439,0.0,0.0,0.0
21849762082169,-0.66041905,8.9013,4.2448673,0.0,0.0,0.0
21849764461127,-0.6412765,8.891729,4.240082,0.0,0.0,0.0
21849766840086,-0.63170516,8.906086,4.2687955,0.0,0.0,0.0
21849769218992,-0.63170516,8.906086,4.2687955,0.0,0.0,0.0
21849771597950,-0.61734825,8.886943,4.2687955,0.0,0.0,0.0
21849773976909,-0.60777694,8.906086,4.249653,0.0,0.0,0.0
21849776355867,-0.61734825,8.882157,4.2592244,0.0,0.0,0.0
21849778734773,-0.59342,8.863015,4.2448673,0.0,0.0,0.0
21849781113731,-0.57906306,8.843872,4.240082,0.0,0.0,0.0
21849783492690,-0.5599205,8.863015,4.254439,0.0,0.0,0.0
21849785871648,-0.55513483,8.877372,4.254439,0.0,0.0,0.0
21849788250554,-0.53599226,8.872586,4.2448673,0.0,0.0,0.0
21849790629513,-0.5168497,8.872586,4.240082,0.0,0.0,0.0
21849793008471,-0.4881358,8.872586,4.2352962,0.0,0.0,0.0
21849795387429,-0.4354937,8.872586,4.2448673,0.0,0.0,0.0
21849797766336,-0.4211368,8.867801,4.240082,0.0,0.0,0.0
21849800145294,-0.41156548,8.843872,4.206582,0.0,0.0,0.0
21849802524252,-0.36370903,8.867801,4.211368,0.0,0.0,0.0
21849804903211,-0.32542387,8.867801,4.206582,0.0,0.0,0.0
21849807282117,-0.29192436,8.872586,4.211368,0.0,0.0,0.0
21849809661075,-0.2632105,8.877372,4.2161536,0.0,0.0,0.0
21849812040034,-0.23449662,8.886943,4.211368,0.0,0.0,0.0
21849814418992,-0.22013968,8.886943,4.1778684,0.0,0.0,0.0
21849816797950,-0.19142582,8.886943,4.168297,0.0,0.0,0.0
21849819176856,-0.18664017,8.882157,4.1874394,0.0,0.0,0.0
21849821555815,-0.19142582,8.896515,4.197011,0.0,0.0,0.0
21849823934773,-0.19621146,8.886943,4.211368,0.0,0.0,0.0
21849826313731,-0.22971097,8.886943,4.2448673,0.0,0.0,0.0
21849828692638,-0.2536392,8.896515,4.2448673,0.0,0.0,0.0
21849831071596,-0.2727818,8.886943,4.2352962,0.0,0.0,0.0
21849833450554,-0.30149564,8.896515,4.26401,0.0,0.0,0.0
21849835829513,-0.32063824,8.9013,4.26401,0.0,0.0,0.0
21849838208419,-0.37806597,8.896515,4.2687955,0.0,0.0,0.0
21849840587377,-0.41156548,8.896515,4.273581,0.0,0.0,0.0
21849842966336,-0.44985065,8.882157,4.2831526,0.0,0.0,0.0
21849845345294,-0.4642076,8.886943,4.302295,0.0,0.0,0.0
21849847724200,-0.4881358,8.896515,4.3118663,0.0,0.0,0.0
21849850103159,-0.5072784,8.877372,4.331009,0.0,0.0,0.0
21849852482117,-0.51206404,8.896515,4.345366,0.0,0.0,0.0
21849854861075,-0.526421,8.882157,4.354937,0.0,0.0,0.0
21849857240034,-0.526421,8.877372,4.354937,0.0,0.0,0.0
21849859618940,-0.5455636,8.867801,4.3405805,0.0,0.0,0.0
21849861997898,-0.5455636,8.867801,4.354937,0.0,0.0,0.0
21849864376856,-0.52163535,8.85823,4.354937,0.0,0.0,0.0
21849866755815,-0.51206404,8.85823,4.3740797,0.0,0.0,0.0
21849869134721,-0.47856453,8.863015,4.354937,0.0,0.0,0.0
21849871513679,-0.4354937,8.863015,4.3501515,0.0,0.0,0.0
21849873892638,-0.41635114,8.853444,4.3405805,0.0,0.0,0.0
21849876271596,-0.4211368,8.848659,4.321438,0.0,0.0,0.0
21849878650450,-0.37806597,8.839087,4.3070807,0.0,0.0,0.0
21849881029461,-0.34456646,8.872586,4.302295,0.0,0.0,0.0
21849883408419,-0.30149564,8.867801,4.302295,0.0,0.0,0.0
21849885787377,-0.30149564,8.85823,4.2831526,0.0,0.0,0.0
21849888166284,-0.23449662,8.886943,4.2592244,0.0,0.0,0.0
21849890545242,-0.21535404,8.891729,4.26401,0.0,0.0,0.0
21849892924200,-0.21535404,8.9013,4.26401,0.0,0.0,0.0
21849895303159,-0.21535404,8.906086,4.249653,0.0,0.0,0.0
21849897682065,-0.21535404,8.930014,4.273581,0.0,0.0,0.0
21849900061023,-0.21535404,8.939586,4.273581,0.0,0.0,0.0
21849902439981,-0.2440679,8.930014,4.278367,0.0,0.0,0.0
21849904818940,-0.23928227,8.9348,4.287938,0.0,0.0,0.0
21849907197846,-0.23449662,8.953942,4.287938,0.0,0.0,0.0
21849909576804,-0.2536392,8.963513,4.2831526,0.0,0.0,0.0
21849911955763,-0.26799613,8.963513,4.287938,0.0,0.0,0.0
21849914334721,-0.3062813,8.963513,4.278367,0.0,0.0,0.0
21849916713679,-0.31585258,8.958728,4.278367,0.0,0.0,0.0
21849919092586,-0.33499518,8.949157,4.26401,0.0,0.0,0.0
21849921471544,-0.33020952,8.953942,4.273581,0.0,0.0,0.0
21849923850502,-0.3684947,8.958728,4.26401,0.0,0.0,0.0
21849926229461,-0.38763726,8.953942,4.2831526,0.0,0.0,0.0
21849928608367,-0.38285163,8.944371,4.278367,0.0,0.0,0.0
21849930987325,-0.41635114,8.939586,4.287938,0.0,0.0,0.0
21849933366284,-0.41635114,8.9108715,4.3070807,0.0,0.0,0.0
21849935745242,-0.40677986,8.915657,4.321438,0.0,0.0,0.0
21849938124148,-0.4019942,8.9013,4.3070807,0.0,0.0,0.0
21849940503106,-0.4019942,8.891729,4.321438,0.0,0.0,0.0
21849942882065,-0.4019942,8.886943,4.3118663,0.0,0.0,0.0
21849945261023,-0.3589234,8.882157,4.316652,0.0,0.0,0.0
21849947639929,-0.34456646,8.886943,4.3118663,0.0,0.0,0.0
21849950018888,-0.33020952,8.9013,4.3118663,0.0,0.0,0.0
21849952397846,-0.29671,8.886943,4.2831526,0.0,0.0,0.0
21849954776804,-0.2727818,8.877372,4.278367,0.0,0.0,0.0
21849957155763,-0.23928227,8.891729,4.254439,0.0,0.0,0.0
21849959534669,-0.2105684,8.886943,4.240082,0.0,0.0,0.0
21849961913627,-0.19142582,8.877372,4.220939,0.0,0.0,0.0
21849964292586,-0.16749759,8.872586,4.2017965,0.0,0.0,0.0
21849966671544,-0.16749759,8.891729,4.197011,0.0,0.0,0.0
21849969050450,-0.17706887,8.886943,4.173083,0.0,0.0,0.0
21849971429409,-0.17228323,8.867801,4.173083,0.0,0.0,0.0
21849973808367,-0.16749759,8.867801,4.1922255,0.0,0.0,0.0
21849976187325,-0.17228323,8.882157,4.1778684,0.0,0.0,0.0
21849978566284,-0.17706887,8.891729,4.1874394,0.0,0.0,0.0
21849980945190,-0.18664017,8.872586,4.173083,0.0,0.0,0.0
21849983324148,-0.22971097,8.863015,4.168297,0.0,0.0,0.0
21849985703106,-0.22013968,8.872586,4.1874394,0.0,0.0,0.0
21849988082065,-0.2536392,8.882157,4.1874394,0.0,0.0,0.0
21849990460971,-0.31585258,8.85823,4.182654,0.0,0.0,0.0
21849992839929,-0.32063824,8.848659,4.2017965,0.0,0.0,0.0
21849995218888,-0.3397808,8.853444,4.2161536,0.0,0.0,0.0
21849997597846,-0.3589234,8.877372,4.2448673,0.0,0.0,0.0
21849999976752,-0.3924229,8.877372,4.249653,0.0,0.0,0.0
21850002355711,-0.40677986,8.867801,4.254439,0.0,0.0,0.0
21850004734669,-0.44506502,8.85823,4.26401,0.0,0.0,0.0
21850007113627,-0.4354937,8.872586,4.278367,0.0,0.0,0.0
21850009492534,-0.44506502,8.877372,4.2975097,0.0,0.0,0.0
21850011871492,-0.44027936,8.882157,4.2975097,0.0,0.0,0.0
21850014250450,-0.44506502,8.896515,4.2927237,0.0,0.0,0.0
21850016629409,-0.45942193,8.9013,4.2975097,0.0,0.0,0.0
21850019008367,-0.45942193,8.915657,4.3118663,0.0,0.0,0.0
21850021387273,-0.45942193,8.925228,4.316652,0.0,0.0,0.0
21850023766231,-0.45942193,8.944371,4.3118663,0.0,0.0,0.0
21850026145190,-0.4546363,8.939586,4.302295,0.0,0.0,0.0
21850028524148,-0.44985065,8.949157,4.3118663,0.0,0.0,0.0
21850030903054,-0.44027936,8.944371,4.316652,0.0,0.0,0.0
21850033282013,-0.44027936,8.944371,4.316652,0.0,0.0,0.0
21850035660971,-0.40677986,8.939586,4.3118663,0.0,0.0,0.0
21850038039929,-0.4019942,8.939586,4.316652,0.0,0.0,0.0
21850040418836,-0.39720857,8.939586,4.3118663,0.0,0.0,0.0
21850042797794,-0.37806597,8.930014,4.3070807,0.0,0.0,0.0
21850045176752,-0.37806597,8.906086,4.2927237,0.0,0.0,0.0
21850047555711,-0.3493521,8.877372,4.278367,0.0,0.0,0.0
21850049934617,-0.33020952,8.863015,4.2592244,0.0,0.0,0.0
21850052313575,-0.31585258,8.872586,4.249653,0.0,0.0,0.0
21850054692534,-0.27756742,8.882157,4.220939,0.0,0.0,0.0
21850057071492,-0.23928227,8.9013,4.2017965,0.0,0.0,0.0
21850059450450,-0.23449662,8.877372,4.182654,0.0,0.0,0.0
21850061829356,-0.2105684,8.882157,4.182654,0.0,0.0,0.0
21850064208315,-0.2009971,8.877372,4.15394,0.0,0.0,0.0
21850066587273,-0.18664017,8.886943,4.139583,0.0,0.0,0.0
21850068966231,-0.18664017,8.872586,4.1347976,0.0,0.0,0.0
21850071345138,-0.15792629,8.886943,4.1347976,0.0,0.0,0.0
21850073724096,-0.16271193,8.863015,4.1443686,0.0,0.0,0.0
21850076103054,-0.18185452,8.877372,4.168297,0.0,0.0,0.0
21850078482013,-0.18185452,8.886943,4.168297,0.0,0.0,0.0
21850080860919,-0.19621146,8.877372,4.197011,0.0,0.0,0.0
21850083239877,-0.21535404,8.877372,4.197011,0.0,0.0,0.0
21850085618836,-0.22013968,8.877372,4.211368,0.0,0.0,0.0
21850087997794,-0.25842485,8.877372,4.220939,0.0,0.0,0.0
21850090376752,-0.3062813,8.872586,4.23051,0.0,0.0,0.0
21850092755659,-0.31106696,8.863015,4.249653,0.0,0.0,0.0
21850095134617,-0.33020952,8.863015,4.2448673,0.0,0.0,0.0
21850097513575,-0.33020952,8.867801,4.240082,0.0,0.0,0.0
21850099892534,-0.3589234,8.843872,4.2687955,0.0,0.0,0.0
21850102271440,-0.37328035,8.848659,4.278367,0.0,0.0,0.0
21850104650398,-0.3684947,8.848659,4.273581,0.0,0.0,0.0
21850107029356,-0.38763726,8.886943,4.2927237,0.0,0.0,0.0
21850109408315,-0.38285163,8.9108715,4.316652,0.0,0.0,0.0
21850111787221,-0.38285163,8.896515,4.3070807,0.0,0.0,0.0
21850114166179,-0.38285163,8.9013,4.302295,0.0,0.0,0.0
21850116545138,-0.37806597,8.9013,4.316652,0.0,0.0,0.0
21850118924096,-0.3684947,8.891729,4.3070807,0.0,0.0,0.0
21850121303002,-0.38763726,8.867801,4.3070807,0.0,0.0,0.0
21850123681961,-0.3589234,8.882157,4.302295,0.0,0.0,0.0
21850126060919,-0.36370903,8.9013,4.273581,0.0,0.0,0.0
21850128439877,-0.3684947,8.925228,4.2592244,0.0,0.0,0.0
21850130818836,-0.36370903,8.920443,4.2592244,0.0,0.0,0.0
21850133197742,-0.37328035,8.915657,4.2352962,0.0,0.0,0.0
21850135576700,-0.40677986,8.920443,4.23051,0.0,0.0,0.0
21850137955659,-0.4354937,8.953942,4.220939,0.0,0.0,0.0
21850140334617,-0.46899325,8.973084,4.2352962,0.0,0.0,0.0
21850142713523,-0.5168497,8.973084,4.240082,0.0,0.0,0.0
21850145092481,-0.526421,8.992228,4.2352962,0.0,0.0,0.0
21850147471440,-0.55513483,9.006584,4.2257247,0.0,0.0,0.0
21850149850398,-0.5886344,8.992228,4.240082,0.0,0.0,0.0
21850152229304,-0.61734825,8.963513,4.2448673,0.0,0.0,0.0
21850154608263,-0.5982057,8.973084,4.23051,0.0,0.0,0.0
21850156987221,-0.5982057,8.958728,4.240082,0.0,0.0,0.0
21850159366179,-0.6221339,8.939586,4.2352962,0.0,0.0,0.0
21850161745138,-0.6125626,8.977871,4.240082,0.0,0.0,0.0
21850164124044,-0.61734825,8.953942,4.2448673,0.0,0.0,0.0
21850166503002,-0.5838487,8.963513,4.249653,0.0,0.0,0.0
21850168881961,-0.5599205,8.944371,4.26401,0.0,0.0,0.0
21850171260919,-0.52163535,8.930014,4.26401,0.0,0.0,0.0
21850173639825,-0.4977071,8.906086,4.2687955,0.0,0.0,0.0
21850176018784,-0.44985065,8.906086,4.278367,0.0,0.0,0.0
21850178397742,-0.3924229,8.891729,4.287938,0.0,0.0,0.0
21850180776700,-0.34456646,8.886943,4.287938,0.0,0.0,0.0
21850183155606,-0.3062813,8.886943,4.2975097,0.0,0.0,0.0
21850185534565,-0.27756742,8.877372,4.2975097,0.0,0.0,0.0
21850187913523,-0.22013968,8.877372,4.2927237,0.0,0.0,0.0
21850190292481,-0.2105684,8.872586,4.287938,0.0,0.0,0.0
21850192671388,-0.21535404,8.867801,4.273581,0.0,0.0,0.0
21850195050346,-0.2009971,8.886943,4.2592244,0.0,0.0,0.0
21850197429304,-0.21535404,8.867801,4.2448673,0.0,0.0,0.0
21850199808263,-0.22013968,8.882157,4.240082,0.0,0.0,0.0
21850202187221,-0.2440679,8.891729,4.240082,0.0,0.0,0.0
21850204566127,-0.2536392,8.896515,4.240082,0.0,0.0,0.0
21850206945086,-0.2632105,8.872586,4.240082,0.0,0.0,0.0
21850209324044,-0.31106696,8.863015,4.2257247,0.0,0.0,0.0
21850211703002,-0.37328035,8.891729,4.220939,0.0,0.0,0.0
21850214081909,-0.41156548,8.896515,4.23051,0.0,0.0,0.0
21850216460867,-0.40677986,8.886943,4.2448673,0.0,0.0,0.0
21850218839825,-0.44027936,8.886943,4.249653,0.0,0.0,0.0
21850221218784,-0.44985065,8.872586,4.2448673,0.0,0.0,0.0
21850223597690,-0.5168497,8.891729,4.240082,0.0,0.0,0.0
21850225976648,-0.53599226,8.896515,4.240082,0.0,0.0,0.0
21850228355606,-0.53599226,8.9013,4.254439,0.0,0.0,0.0
21850230734565,-0.5455636,8.9013,4.2687955,0.0,0.0,0.0
21850233113471,-0.55034924,8.906086,4.2687955,0.0,0.0,0.0
21850235492429,-0.5599205,8.891729,4.2687955,0.0,0.0,0.0
21850237871336,-0.5886344,8.891729,4.2592244,0.0,0.0,0.0
21850240250346,-0.60777694,8.886943,4.26401,0.0,0.0,0.0
21850242629304,-0.6221339,8.882157,4.26401,0.0,0.0,0.0
21850245008159,-0.6364908,8.891729,4.249653,0.0,0.0,0.0
21850247387169,-0.6556334,8.920443,4.240082,0.0,0.0,0.0
21850249766127,-0.66999036,8.886943,4.2448673,0.0,0.0,0.0
21850252145086,-0.65084773,8.896515,4.26401,0.0,0.0,0.0
21850254523992,-0.65084773,8.9013,4.254439,0.0,0.0,0.0
21850256902950,-0.67477596,8.867801,4.2592244,0.0,0.0,0.0
21850259281909,-0.6364908,8.877372,4.26401,0.0,0.0,0.0
21850261660867,-0.66041905,8.882157,4.273581,0.0,0.0,0.0
21850264039825,-0.6412765,8.877372,4.2975097,0.0,0.0,0.0
21850266418731,-0.60777694,8.85823,4.302295,0.0,0.0,0.0
21850268797690,-0.5886344,8.867801,4.316652,0.0,0.0,0.0
21850271176648,-0.56470615,8.867801,4.2975097,0.0,0.0,0.0
21850273555606,-0.55034924,8.863015,4.3070807,0.0,0.0,0.0
21850275934513,-0.53599226,8.853444,4.2831526,0.0,0.0,0.0
21850278313471,-0.5407779,8.843872,4.2831526,0.0,0.0,0.0
21850280692429,-0.5072784,8.853444,4.278367,0.0,0.0,0.0
21850283071388,-0.4881358,8.863015,4.278367,0.0,0.0,0.0
21850285450294,-0.47377887,8.85823,4.302295,0.0,0.0,0.0
21850287829252,-0.45942193,8.848659,4.2927237,0.0,0.0,0.0
21850290208211,-0.44985065,8.863015,4.287938,0.0,0.0,0.0
21850292587169,-0.44506502,8.867801,4.302295,0.0,0.0,0.0
21850294966075,-0.41156548,8.882157,4.2975097,0.0,0.0,0.0
21850297345034,-0.4019942,8.896515,4.2975097,0.0,0.0,0.0
21850299723992,-0.38285163,8.896515,4.302295,0.0,0.0,0.0
21850302102950,-0.37328035,8.872586,4.3070807,0.0,0.0,0.0
21850304481909,-0.36370903,8.867801,4.3118663,0.0,0.0,0.0
21850306860763,-0.38763726,8.877372,4.287938,0.0,0.0,0.0
21850309239773,-0.3684947,8.872586,4.278367,0.0,0.0,0.0
21850311618731,-0.36370903,8.882157,4.26401,0.0,0.0,0.0
21850313997690,-0.41156548,8.872586,4.249653,0.0,0.0,0.0
21850316376596,-0.42592242,8.886943,4.249653,0.0,0.0,0.0
21850318755554,-0.4642076,8.877372,4.2257247,0.0,0.0,0.0
21850321134513,-0.47377887,8.882157,4.23051,0.0,0.0,0.0
21850323513471,-0.47377887,8.863015,4.2257247,0.0,0.0,0.0
21850325892377,-0.4881358,8.872586,4.23051,0.0,0.0,0.0
21850328271336,-0.5455636,8.872586,4.220939,0.0,0.0,0.0
21850330650294,-0.55513483,8.867801,4.2017965,0.0,0.0,0.0
21850333029252,-0.5886344,8.872586,4.197011,0.0,0.0,0.0
21850335408211,-0.60777694,8.867801,4.206582,0.0,0.0,0.0
21850337787117,-0.59342,8.853444,4.220939,0.0,0.0,0.0
21850340166075,-0.5982057,8.867801,4.220939,0.0,0.0,0.0
21850342545034,-0.5982057,8.829515,4.23051,0.0,0.0,0.0
21850344923992,-0.57906306,8.834301,4.220939,0.0,0.0,0.0
21850347302898,-0.55513483,8.834301,4.2352962,0.0,0.0,0.0
21850349681804,-0.526421,8.843872,4.220939,0.0,0.0,0.0
21850352060815,-0.4881358,8.872586,4.240082,0.0,0.0,0.0
21850354439773,-0.46899325,8.843872,4.2352962,0.0,0.0,0.0
21850356818731,-0.47377887,8.85823,4.2448673,0.0,0.0,0.0
21850359197638,-0.44506502,8.863015,4.249653,0.0,0.0,0.0
21850361576596,-0.44027936,8.863015,4.2448673,0.0,0.0,0.0
21850363955554,-0.4354937,8.872586,4.254439,0.0,0.0,0.0
21850366334513,-0.4211368,8.886943,4.26401,0.0,0.0,0.0
21850368713419,-0.4211368,8.877372,4.2687955,0.0,0.0,0.0
21850371092377,-0.44506502,8.882157,4.249653,0.0,0.0,0.0
21850373471336,-0.46899325,8.891729,4.254439,0.0,0.0,0.0
21850375850294,-0.4881358,8.9108715,4.2831526,0.0,0.0,0.0
21850378229200,-0.4977071,8.896515,4.2975097,0.0,0.0,0.0
21850380608159,-0.5072784,8.863015,4.287938,0.0,0.0,0.0
21850382987117,-0.5407779,8.85823,4.2927237,0.0,0.0,0.0
21850385366075,-0.55513483,8.867801,4.287938,0.0,0.0,0.0
21850387745034,-0.5694918,8.877372,4.2831526,0.0,0.0,0.0
21850390123940,-0.5694918,8.886943,4.278367,0.0,0.0,0.0
21850392502898,-0.57427746,8.906086,4.2831526,0.0,0.0,0.0
21850394881856,-0.57906306,8.886943,4.2831526,0.0,0.0,0.0
21850397260815,-0.59342,8.925228,4.2831526,0.0,0.0,0.0
21850399639773,-0.5982057,8.9348,4.2831526,0.0,0.0,0.0
21850402018679,-0.59342,8.963513,4.278367,0.0,0.0,0.0
21850404397638,-0.5886344,8.968299,4.2927237,0.0,0.0,0.0
21850406776596,-0.59342,8.939586,4.278367,0.0,0.0,0.0
21850409155502,-0.57906306,8.953942,4.2687955,0.0,0.0,0.0
21850411534461,-0.5694918,8.9826565,4.26401,0.0,0.0,0.0
21850413913419,-0.5455636,8.9826565,4.254439,0.0,0.0,0.0
21850416292377,-0.5407779,8.939586,4.2927237,0.0,0.0,0.0
21850418671336,-0.55034924,8.9348,4.2687955,0.0,0.0,0.0
21850421050242,-0.56470615,8.9348,4.26401,0.0,0.0,0.0
21850423429200,-0.5455636,8.9348,4.2592244,0.0,0.0,0.0
21850425808159,-0.5694918,8.9108715,4.2448673,0.0,0.0,0.0
21850428187117,-0.6125626,8.9108715,4.2448673,0.0,0.0,0.0
21850430566023,-0.61734825,8.891729,4.2592244,0.0,0.0,0.0
21850432944981,-0.61734825,8.9013,4.2592244,0.0,0.0,0.0
21850435323940,-0.6412765,8.886943,4.2687955,0.0,0.0,0.0
21850437702898,-0.6221339,8.896515,4.254439,0.0,0.0,0.0
21850440081804,-0.6364908,8.867801,4.2448673,0.0,0.0,0.0
21850442460763,-0.6364908,8.867801,4.23051,0.0,0.0,0.0
21850444839721,-0.6269195,8.882157,4.2257247,0.0,0.0,0.0
21850447218679,-0.6269195,8.872586,4.23051,0.0,0.0,0.0
21850449597638,-0.5886344,8.85823,4.240082,0.0,0.0,0.0
21850451976544,-0.55513483,8.867801,4.220939,0.0,0.0,0.0
21850454355502,-0.53599226,8.853444,4.211368,0.0,0.0,0.0
21850456734461,-0.51206404,8.848659,4.23051,0.0,0.0,0.0
21850459113419,-0.4833502,8.863015,4.2257247,0.0,0.0,0.0
21850461492325,-0.44027936,8.863015,4.2161536,0.0,0.0,0.0
21850463871284,-0.39720857,8.848659,4.23051,0.0,0.0,0.0
21850466250242,-0.39720857,8.829515,4.2257247,0.0,0.0,0.0
21850468629200,-0.37806597,8.829515,4.240082,0.0,0.0,0.0
21850471008159,-0.3493521,8.848659,4.2257247,0.0,0.0,0.0
21850473387065,-0.32063824,8.848659,4.220939,0.0,0.0,0.0
21850475766023,-0.32063824,8.853444,4.249653,0.0,0.0,0.0
21850478144981,-0.34456646,8.872586,4.240082,0.0,0.0,0.0
21850480523940,-0.3924229,8.896515,4.240082,0.0,0.0,0.0
21850482902846,-0.42592242,8.872586,4.2352962,0.0,0.0,0.0
21850485281804,-0.44506502,8.867801,4.2352962,0.0,0.0,0.0
21850487660763,-0.4642076,8.872586,4.2448673,0.0,0.0,0.0
21850490039669,-0.47856453,8.872586,4.249653,0.0,0.0,0.0
21850492418627,-0.5455636,8.85823,4.2448673,0.0,0.0,0.0
21850494797586,-0.57427746,8.891729,4.26401,0.0,0.0,0.0
21850497176544,-0.60777694,8.867801,4.2687955,0.0,0.0,0.0
21850499555502,-0.61734825,8.85823,4.2927237,0.0,0.0,0.0
21850501934461,-0.61734825,8.848659,4.302295,0.0,0.0,0.0
21850504313367,-0.6269195,8.843872,4.2975097,0.0,0.0,0.0
21850506692325,-0.6364908,8.85823,4.2975097,0.0,0.0,0.0
21850509071284,-0.6029913,8.886943,4.287938,0.0,0.0,0.0
21850511450242,-0.57906306,8.872586,4.2927237,0.0,0.0,0.0
21850513829148,-0.55034924,8.891729,4.3118663,0.0,0.0,0.0
21850516208106,-0.5455636,8.906086,4.3118663,0.0,0.0,0.0
21850518587065,-0.53599226,8.906086,4.3262234,0.0,0.0,0.0
21850520966023,-0.4881358,8.896515,4.3070807,0.0,0.0,0.0
21850523344981,-0.4833502,8.882157,4.287938,0.0,0.0,0.0
21850525723888,-0.4977071,8.9013,4.26401,0.0,0.0,0.0
21850528102846,-0.47377887,8.920443,4.2592244,0.0,0.0,0.0
21850530481804,-0.45942193,8.906086,4.254439,0.0,0.0,0.0
21850532860763,-0.42592242,8.925228,4.2448673,0.0,0.0,0.0
21850535239669,-0.45942193,8.9348,4.2352962,0.0,0.0,0.0
21850537618627,-0.4833502,8.944371,4.240082,0.0,0.0,0.0
21850539997586,-0.5024927,8.925228,4.2257247,0.0,0.0,0.0
21850542376544,-0.5024927,8.939586,4.2257247,0.0,0.0,0.0
21850544755502,-0.5168497,8.958728,4.2161536,0.0,0.0,0.0
21850547134409,-0.52163535,8.920443,4.211368,0.0,0.0,0.0
21850549513367,-0.5455636,8.930014,4.2257247,0.0,0.0,0.0
21850551892325,-0.5407779,8.9108715,4.2257247,0.0,0.0,0.0
21850554271284,-0.55034924,8.906086,4.211368,0.0,0.0,0.0
21850556650190,-0.56470615,8.877372,4.211368,0.0,0.0,0.0
21850559029148,-0.5312066,8.891729,4.211368,0.0,0.0,0.0
21850561408106,-0.5312066,8.886943,4.220939,0.0,0.0,0.0
21850563787065,-0.51206404,8.886943,4.220939,0.0,0.0,0.0
21850566165971,-0.49292147,8.843872,4.211368,0.0,0.0,0.0
21850568544929,-0.47377887,8.853444,4.211368,0.0,0.0,0.0
21850570923888,-0.4881358,8.872586,4.220939,0.0,0.0,0.0
21850573302846,-0.47377887,8.843872,4.2161536,0.0,0.0,0.0
21850575681752,-0.4546363,8.853444,4.2161536,0.0,0.0,0.0
21850578060659,-0.4546363,8.886943,4.220939,0.0,0.0,0.0
21850580439669,-0.44985065,8.891729,4.2161536,0.0,0.0,0.0
21850582818627,-0.46899325,8.891729,4.2257247,0.0,0.0,0.0
21850585197586,-0.44985065,8.886943,4.23051,0.0,0.0,0.0
21850587576544,-0.45942193,8.867801,4.2257247,0.0,0.0,0.0
21850589955450,-0.5024927,8.872586,4.23051,0.0,0.0,0.0
21850592334409,-0.5168497,8.872586,4.2352962,0.0,0.0,0.0
21850594713367,-0.5455636,8.882157,4.254439,0.0,0.0,0.0
21850597092325,-0.5694918,8.877372,4.249653,0.0,0.0,0.0
21850599471231,-0.5838487,8.882157,4.273581,0.0,0.0,0.0
21850601850190,-0.6125626,8.9013,4.287938,0.0,0.0,0.0
21850604229148,-0.6125626,8.886943,4.273581,0.0,0.0,0.0
21850606608106,-0.6221339,8.867801,4.2592244,0.0,0.0,0.0
21850608987013,-0.6221339,8.85823,4.26401,0.0,0.0,0.0
21850611365971,-0.6412765,8.877372,4.2592244,0.0,0.0,0.0
21850613744929,-0.6364908,8.915657,4.26401,0.0,0.0,0.0
21850616123888,-0.6221339,8.9108715,4.254439,0.0,0.0,0.0
21850618502794,-0.5886344,8.9108715,4.273581,0.0,0.0,0.0
21850620881752,-0.55034924,8.896515,4.26401,0.0,0.0,0.0
21850623260711,-0.5407779,8.896515,4.2687955,0.0,0.0,0.0
21850625639669,-0.526421,8.9108715,4.2592244,0.0,0.0,0.0
21850628018627,-0.526421,8.9108715,4.254439,0.0,0.0,0.0
21850630397534,-0.526421,8.925228,4.249653,0.0,0.0,0.0
21850632776440,-0.53599226,8.891729,4.249653,0.0,0.0,0.0
21850635155450,-0.5455636,8.867801,4.23051,0.0,0.0,0.0
21850637534409,-0.5455636,8.863015,4.2448673,0.0,0.0,0.0
21850639913367,-0.5455636,8.863015,4.240082,0.0,0.0,0.0
21850642292221,-0.56470615,8.85823,4.249653,0.0,0.0,0.0
21850644671231,-0.5838487,8.9013,4.240082,0.0,0.0,0.0
21850647050190,-0.59342,8.920443,4.249653,0.0,0.0,0.0
21850649429148,-0.6029913,8.920443,4.26401,0.0,0.0,0.0
21850651808054,-0.6412765,8.9348,4.2592244,0.0,0.0,0.0
21850654187013,-0.66041905,8.925228,4.26401,0.0,0.0,0.0
21850656565971,-0.6652047,8.920443,4.2592244,0.0,0.0,0.0
21850658944929,-0.6652047,8.9108715,4.302295,0.0,0.0,0.0
21850661323784,-0.6795616,8.906086,4.2687955,0.0,0.0,0.0
21850663702794,-0.6652047,8.915657,4.287938,0.0,0.0,0.0
21850666081752,-0.66999036,8.896515,4.2687955,0.0,0.0,0.0
21850668460711,-0.64606214,8.882157,4.287938,0.0,0.0,0.0
21850670839669,-0.6125626,8.9013,4.287938,0.0,0.0,0.0
21850673218575,-0.6221339,8.882157,4.2927237,0.0,0.0,0.0
21850675597534,-0.60777694,8.872586,4.302295,0.0,0.0,0.0
21850677976492,-0.56470615,8.9013,4.2975097,0.0,0.0,0.0
21850680355450,-0.55034924,8.877372,4.2975097,0.0,0.0,0.0
21850682734356,-0.5312066,8.886943,4.287938,0.0,0.0,0.0
21850685113315,-0.52163535,8.882157,4.278367,0.0,0.0,0.0
21850687492273,-0.5072784,8.891729,4.2687955,0.0,0.0,0.0
21850689871231,-0.5168497,8.896515,4.26401,0.0,0.0,0.0
21850692250190,-0.4881358,8.886943,4.2592244,0.0,0.0,0.0
21850694629096,-0.4977071,8.896515,4.26401,0.0,0.0,0.0
21850697008054,-0.5072784,8.882157,4.254439,0.0,0.0,0.0
21850699387013,-0.47377887,8.867801,4.254439,0.0,0.0,0.0
21850701765971,-0.47856453,8.853444,4.23051,0.0,0.0,0.0
21850704144877,-0.47377887,8.839087,4.2257247,0.0,0.0,0.0
21850706523836,-0.47377887,8.829515,4.2257247,0.0,0.0,0.0
21850708902794,-0.46899325,8.829515,4.2257247,0.0,0.0,0.0
21850711281752,-0.4546363,8.82473,4.2161536,0.0,0.0,0.0
21850713660711,-0.47377887,8.834301,4.197011,0.0,0.0,0.0
21850716039617,-0.46899325,8.834301,4.1874394,0.0,0.0,0.0
21850718418575,-0.44506502,8.843872,4.1874394,0.0,0.0,0.0
21850720797534,-0.44506502,8.853444,4.182654,0.0,0.0,0.0
21850723176492,-0.4211368,8.85823,4.1778684,0.0,0.0,0.0
21850725555398,-0.40677986,8.882157,4.182654,0.0,0.0,0.0
21850727934356,-0.41156548,8.877372,4.1922255,0.0,0.0,0.0
21850730313315,-0.4019942,8.853444,4.1874394,0.0,0.0,0.0
21850732692273,-0.4019942,8.877372,4.197011,0.0,0.0,0.0
21850735071231,-0.41635114,8.872586,4.206582,0.0,0.0,0.0
21850737450138,-0.43070808,8.872586,4.220939,0.0,0.0,0.0
21850739829096,-0.44506502,8.877372,4.2257247,0.0,0.0,0.0
21850742208054,-0.4546363,8.920443,4.249653,0.0,0.0,0.0
21850744587013,-0.4881358,8.915657,4.2687955,0.0,0.0,0.0
21850746965919,-0.526421,8.9013,4.287938,0.0,0.0,0.0
21850749344877,-0.56470615,8.906086,4.2831526,0.0,0.0,0.0
21850751723836,-0.59342,8.906086,4.3070807,0.0,0.0,0.0
21850754102794,-0.61734825,8.9013,4.321438,0.0,0.0,0.0
21850756481752,-0.6269195,8.915657,4.321438,0.0,0.0,0.0
21850758860659,-0.6795616,8.925228,4.3070807,0.0,0.0,0.0
21850761239617,-0.6843473,8.9348,4.321438,0.0,0.0,0.0
21850763618575,-0.6987042,8.939586,4.3501515,0.0,0.0,0.0
21850765997534,-0.6987042,8.925228,4.3405805,0.0,0.0,0.0
21850768376440,-0.67477596,8.949157,4.3262234,0.0,0.0,0.0
21850770755398,-0.6843473,8.958728,4.331009,0.0,0.0,0.0
21850773134356,-0.65084773,8.9826565,4.3357944,0.0,0.0,0.0
21850775513315,-0.63170516,8.973084,4.321438,0.0,0.0,0.0
21850777892221,-0.6221339,8.939586,4.302295,0.0,0.0,0.0
21850780271179,-0.6125626,8.925228,4.287938,0.0,0.0,0.0
21850782650138,-0.57906306,8.9348,4.302295,0.0,0.0,0.0
21850785029096,-0.5407779,8.915657,4.2975097,0.0,0.0,0.0
21850787408054,-0.5168497,8.915657,4.26401,0.0,0.0,0.0
21850789786961,-0.4881358,8.925228,4.2687955,0.0,0.0,0.0
21850792165919,-0.4546363,8.925228,4.2592244,0.0,0.0,0.0
21850794544877,-0.42592242,8.939586,4.240082,0.0,0.0,0.0
21850796923836,-0.4211368,8.9348,4.249653,0.0,0.0,0.0
21850799302742,-0.40677986,8.925228,4.249653,0.0,0.0,0.0
21850801681700,-0.41635114,8.9013,4.240082,0.0,0.0,0.0
21850804060659,-0.41635114,8.877372,4.240082,0.0,0.0,0.0
21850806439617,-0.40677986,8.886943,4.2257247,0.0,0.0,0.0
21850808818575,-0.44027936,8.886943,4.2017965,0.0,0.0,0.0
21850811197481,-0.44027936,8.896515,4.2017965,0.0,0.0,0.0
21850813576440,-0.43070808,8.896515,4.1922255,0.0,0.0,0.0
21850815955398,-0.4642076,8.891729,4.206582,0.0,0.0,0.0
21850818334356,-0.4881358,8.891729,4.2017965,0.0,0.0,0.0
21850820713263,-0.4977071,8.867801,4.1874394,0.0,0.0,0.0
21850823092221,-0.5072784,8.853444,4.2161536,0.0,0.0,0.0
21850825471179,-0.4977071,8.863015,4.2352962,0.0,0.0,0.0
21850827850138,-0.47856453,8.867801,4.23051,0.0,0.0,0.0
21850830229044,-0.4642076,8.867801,4.2352962,0.0,0.0,0.0
21850832608002,-0.45942193,8.896515,4.2592244,0.0,0.0,0.0
21850834986961,-0.44985065,8.867801,4.2448673,0.0,0.0,0.0
21850837365919,-0.43070808,8.872586,4.2687955,0.0,0.0,0.0
21850839744877,-0.41156548,8.843872,4.2592244,0.0,0.0,0.0
21850842123784,-0.36370903,8.848659,4.273581,0.0,0.0,0.0
21850844502742,-0.33020952,8.863015,4.254439,0.0,0.0,0.0
21850846881700,-0.31106696,8.863015,4.249653,0.0,0.0,0.0
21850849260659,-0.29671,8.85823,4.273581,0.0,0.0,0.0
21850851639617,-0.28235307,8.839087,4.273581,0.0,0.0,0.0
21850854018523,-0.27756742,8.85823,4.26401,0.0,0.0,0.0
21850856397481,-0.28235307,8.867801,4.2687955,0.0,0.0,0.0
21850858776440,-0.31585258,8.853444,4.26401,0.0,0.0,0.0
21850861155398,-0.3397808,8.886943,4.26401,0.0,0.0,0.0
21850863534304,-0.39720857,8.867801,4.2687955,0.0,0.0,0.0
21850865913263,-0.4211368,8.877372,4.26401,0.0,0.0,0.0
21850868292221,-0.45942193,8.867801,4.2927237,0.0,0.0,0.0
21850870671179,-0.46899325,8.877372,4.3118663,0.0,0.0,0.0
21850873050138,-0.52163535,8.886943,4.2831526,0.0,0.0,0.0
21850875429044,-0.53599226,8.877372,4.2831526,0.0,0.0,0.0
21850877808002,-0.5407779,8.848659,4.302295,0.0,0.0,0.0
21850880186961,-0.57427746,8.834301,4.302295,0.0,0.0,0.0
21850882565867,-0.6125626,8.834301,4.2975097,0.0,0.0,0.0
21850884944825,-0.5982057,8.843872,4.287938,0.0,0.0,0.0
21850887323784,-0.63170516,8.834301,4.278367,0.0,0.0,0.0
21850889702742,-0.6269195,8.819944,4.273581,0.0,0.0,0.0
21850892081700,-0.63170516,8.829515,4.26401,0.0,0.0,0.0
21850894460659,-0.63170516,8.843872,4.249653,0.0,0.0,0.0
21850896839565,-0.63170516,8.867801,4.249653,0.0,0.0,0.0
21850899218523,-0.63170516,8.877372,4.2687955,0.0,0.0,0.0
21850901597481,-0.61734825,8.896515,4.2592244,0.0,0.0,0.0
21850903976440,-0.6269195,8.930014,4.2592244,0.0,0.0,0.0
21850906355346,-0.6364908,8.930014,4.254439,0.0,0.0,0.0
21850908734304,-0.6556334,8.9348,4.254439,0.0,0.0,0.0
21850911113263,-0.61734825,8.939586,4.2592244,0.0,0.0,0.0
21850913492221,-0.6364908,8.925228,4.2687955,0.0,0.0,0.0
21850915871179,-0.6364908,8.925228,4.254439,0.0,0.0,0.0
21850918250086,-0.63170516,8.939586,4.2687955,0.0,0.0,0.0
21850920629044,-0.6221339,8.930014,4.273581,0.0,0.0,0.0
21850923008002,-0.61734825,8.930014,4.26401,0.0,0.0,0.0
21850925386961,-0.6029913,8.9348,4.2687955,0.0,0.0,0.0
21850927765867,-0.5838487,8.9108715,4.254439,0.0,0.0,0.0
21850930144825,-0.5599205,8.906086,4.2592244,0.0,0.0,0.0
21850932523784,-0.5599205,8.920443,4.2592244,0.0,0.0,0.0
21850934902742,-0.55513483,8.920443,4.254439,0.0,0.0,0.0
21850937281700,-0.5312066,8.915657,4.26401,0.0,0.0,0.0
21850939660606,-0.47856453,8.915657,4.26401,0.0,0.0,0.0
21850942039565,-0.44985065,8.906086,4.249653,0.0,0.0,0.0
21850944418523,-0.42592242,8.896515,4.249653,0.0,0.0,0.0
21850946797481,-0.39720857,8.915657,4.2592244,0.0,0.0,0.0
21850949176388,-0.36370903,8.915657,4.2448673,0.0,0.0,0.0
21850951555346,-0.3397808,8.915657,4.2448673,0.0,0.0,0.0
21850953934304,-0.3397808,8.906086,4.2448673,0.0,0.0,0.0
21850956313263,-0.32063824,8.886943,4.2448673,0.0,0.0,0.0
21850958692221,-0.32063824,8.882157,4.2257247,0.0,0.0,0.0
21850961071127,-0.31106696,8.886943,4.2257247,0.0,0.0,0.0
21850963450086,-0.32063824,8.882157,4.2161536,0.0,0.0,0.0
21850965829044,-0.33020952,8.877372,4.206582,0.0,0.0,0.0
21850968208002,-0.3397808,8.882157,4.211368,0.0,0.0,0.0
21850970586961,-0.36370903,8.877372,4.2161536,0.0,0.0,0.0
21850972965867,-0.37328035,8.872586,4.206582,0.0,0.0,0.0
21850975344825,-0.41156548,8.872586,4.2161536,0.0,0.0,0.0
21850977723784,-0.44027936,8.867801,4.211368,0.0,0.0,0.0
21850980102742,-0.47377887,8.867801,4.23051,0.0,0.0,0.0
21850982481648,-0.4881358,8.872586,4.220939,0.0,0.0,0.0
21850984860606,-0.49292147,8.872586,4.2257247,0.0,0.0,0.0
21850987239565,-0.5168497,8.882157,4.240082,0.0,0.0,0.0
21850989618523,-0.53599226,8.863015,4.26401,0.0,0.0,0.0
21850991997481,-0.526421,8.882157,4.254439,0.0,0.0,0.0
21850994376388,-0.53599226,8.867801,4.2592244,0.0,0.0,0.0
21850996755346,-0.5455636,8.877372,4.2448673,0.0,0.0,0.0
21850999134304,-0.55034924,8.863015,4.2448673,0.0,0.0,0.0
21851001513263,-0.5312066,8.877372,4.2592244,0.0,0.0,0.0
21851003892169,-0.51206404,8.872586,4.249653,0.0,0.0,0.0
21851006271127,-0.4977071,8.867801,4.273581,0.0,0.0,0.0
21851008650086,-0.4833502,8.877372,4.278367,0.0,0.0,0.0
21851011029044,-0.4642076,8.886943,4.2687955,0.0,0.0,0.0
21851013408002,-0.44027936,8.886943,4.2687955,0.0,0.0,0.0
21851015786909,-0.44985065,8.872586,4.278367,0.0,0.0,0.0
21851018165867,-0.44985065,8.882157,4.278367,0.0,0.0,0.0
21851020544825,-0.44506502,8.872586,4.278367,0.0,0.0,0.0
21851022923784,-0.42592242,8.867801,4.2975097,0.0,0.0,0.0
21851025302690,-0.43070808,8.886943,4.2831526,0.0,0.0,0.0
21851027681648,-0.45942193,8.9108715,4.26401,0.0,0.0,0.0
21851030060606,-0.47856453,8.920443,4.26401,0.0,0.0,0.0
21851032439565,-0.4977071,8.925228,4.249653,0.0,0.0,0.0
21851034818523,-0.5072784,8.915657,4.2592244,0.0,0.0,0.0
21851037197429,-0.53599226,8.925228,4.273581,0.0,0.0,0.0
21851039576388,-0.53599226,8.930014,4.2687955,0.0,0.0,0.0
21851041955346,-0.56470615,8.925228,4.26401,0.0,0.0,0.0
21851044334304,-0.5599205,8.9108715,4.273581,0.0,0.0,0.0
21851046713263,-0.5838487,8.896515,4.2592244,0.0,0.0,0.0
21851049092169,-0.55513483,8.863015,4.2592244,0.0,0.0,0.0
21851051471127,-0.5599205,8.843872,4.254439,0.0,0.0,0.0
21851053850086,-0.5168497,8.82473,4.249653,0.0,0.0,0.0
21851056229044,-0.4881358,8.82473,4.249653,0.0,0.0,0.0
21851058607950,-0.47856453,8.853444,4.2687955,0.0,0.0,0.0
21851060986856,-0.44985065,8.9013,4.2975097,0.0,0.0,0.0
21851063365867,-0.4211368,8.9013,4.2927237,0.0,0.0,0.0
21851065744825,-0.37806597,8.886943,4.2687955,0.0,0.0,0.0
21851068123784,-0.3684947,8.891729,4.2592244,0.0,0.0,0.0
21851070502690,-0.33499518,8.891729,4.254439,0.0,0.0,0.0
21851072881648,-0.3062813,8.886943,4.249653,0.0,0.0,0.0
21851075260606,-0.3062813,8.9013,4.240082,0.0,0.0,0.0
21851077639565,-0.28713873,8.915657,4.220939,0.0,0.0,0.0
21851080018471,-0.27756742,8.896515,4.2161536,0.0,0.0,0.0
21851082397429,-0.29192436,8.872586,4.211368,0.0,0.0,0.0
21851084776388,-0.28235307,8.85823,4.2017965,0.0,0.0,0.0
21851087155346,-0.29192436,8.886943,4.1778684,0.0,0.0,0.0
21851089534304,-0.32542387,8.886943,4.173083,0.0,0.0,0.0
21851091913211,-0.3397808,8.882157,4.182654,0.0,0.0,0.0
21851094292169,-0.34456646,8.891729,4.1874394,0.0,0.0,0.0
21851096671127,-0.3684947,8.906086,4.197011,0.0,0.0,0.0
21851099050086,-0.4019942,8.9013,4.182654,0.0,0.0,0.0
21851101428992,-0.41156548,8.9013,4.173083,0.0,0.0,0.0
21851103807950,-0.41635114,8.886943,4.1778684,0.0,0.0,0.0
21851106186856,-0.4211368,8.896515,4.1778684,0.0,0.0,0.0
21851108565867,-0.4019942,8.891729,4.1874394,0.0,0.0,0.0
21851110944825,-0.3924229,8.886943,4.211368,0.0,0.0,0.0
21851113323731,-0.38763726,8.882157,4.220939,0.0,0.0,0.0
21851115702690,-0.38285163,8.9108715,4.2257247,0.0,0.0,0.0
21851118081648,-0.3397808,8.896515,4.2448673,0.0,0.0,0.0
21851120460606,-0.33020952,8.915657,4.249653,0.0,0.0,0.0
21851122839565,-0.32542387,8.9108715,4.2352962,0.0,0.0,0.0
21851125218471,-0.26799613,8.906086,4.23051,0.0,0.0,0.0
21851127597429,-0.2440679,8.915657,4.2448673,0.0,0.0,0.0
21851129976388,-0.25842485,8.9013,4.2448673,0.0,0.0,0.0
21851132355346,-0.2632105,8.906086,4.249653,0.0,0.0,0.0
21851134734252,-0.24885355,8.906086,4.2831526,0.0,0.0,0.0
21851137113211,-0.2536392,8.882157,4.3070807,0.0,0.0,0.0
21851139492169,-0.28235307,8.867801,4.331009,0.0,0.0,0.0
21851141871127,-0.28713873,8.877372,4.345366,0.0,0.0,0.0
21851144250086,-0.32063824,8.886943,4.3501515,0.0,0.0,0.0
21851146628992,-0.3493521,8.863015,4.354937,0.0,0.0,0.0
21851149007950,-0.38763726,8.863015,4.359723,0.0,0.0,0.0
21851151386909,-0.41635114,8.85823,4.3645086,0.0,0.0,0.0
21851153765867,-0.44027936,8.85823,4.388437,0.0,0.0,0.0
21851156144825,-0.4546363,8.872586,4.359723,0.0,0.0,0.0
21851158523731,-0.4833502,8.853444,4.345366,0.0,0.0,0.0
21851160902690,-0.4977071,8.867801,4.345366,0.0,0.0,0.0
21851163281648,-0.5072784,8.872586,4.3405805,0.0,0.0,0.0
21851165660606,-0.51206404,8.848659,4.316652,0.0,0.0,0.0
21851168039513,-0.526421,8.872586,4.3070807,0.0,0.0,0.0
21851170418471,-0.5168497,8.867801,4.278367,0.0,0.0,0.0
21851172797429,-0.5072784,8.853444,4.273581,0.0,0.0,0.0
21851175176388,-0.4833502,8.886943,4.249653,0.0,0.0,0.0
21851177555346,-0.4642076,8.896515,4.2592244,0.0,0.0,0.0
21851179934252,-0.4211368,8.925228,4.2448673,0.0,0.0,0.0
21851182313211,-0.40677986,8.939586,4.249653,0.0,0.0,0.0
21851184692169,-0.4019942,8.968299,4.249653,0.0,0.0,0.0
21851187071127,-0.36370903,8.953942,4.220939,0.0,0.0,0.0
21851189450086,-0.34456646,8.939586,4.2161536,0.0,0.0,0.0
21851191828992,-0.30149564,8.949157,4.2161536,0.0,0.0,0.0
21851194207950,-0.2440679,8.953942,4.23051,0.0,0.0,0.0
21851196586909,-0.21535404,8.958728,4.23051,0.0,0.0,0.0
21851198965867,-0.19621146,8.977871,4.2257247,0.0,0.0,0.0
21851201344773,-0.148355,8.973084,4.2257247,0.0,0.0,0.0
21851203723731,-0.13399807,8.992228,4.2257247,0.0,0.0,0.0
21851206102690,-0.11485548,8.987442,4.2352962,0.0,0.0,0.0
21851208481648,-0.10049855,8.973084,4.240082,0.0,0.0,0.0
21851210860606,-0.06699903,8.9826565,4.2448673,0.0,0.0,0.0
21851213239513,-0.05742774,8.987442,4.23051,0.0,0.0,0.0
21851215618471,-0.014356935,8.992228,4.240082,0.0,0.0,0.0
21851217997429,0.0047856453,8.968299,4.23051,0.0,0.0,0.0
21851220376388,0.009571291,8.949157,4.2257247,0.0,0.0,0.0
21851222755346,-0.0047856453,8.939586,4.240082,0.0,0.0,0.0
21851225134200,0.033499517,8.920443,4.254439,0.0,0.0,0.0
21851227513211,0.0,8.9108715,4.249653,0.0,0.0,0.0
21851229892169,-0.023928227,8.886943,4.2592244,0.0,0.0,0.0
21851232271127,-0.043070808,8.886943,4.2592244,0.0,0.0,0.0
21851234650034,-0.086141616,8.877372,4.2448673,0.0,0.0,0.0
21851237028992,-0.10049855,8.85823,4.26401,0.0,0.0,0.0
21851239407950,-0.13399807,8.843872,4.2592244,0.0,0.0,0.0
21851241786909,-0.17228323,8.848659,4.249653,0.0,0.0,0.0
21851244165867,-0.21535404,8.848659,4.26401,0.0,0.0,0.0
21851246544773,-0.2440679,8.834301,4.254439,0.0,0.0,0.0
21851248923731,-0.2727818,8.843872,4.2592244,0.0,0.0,0.0
21851251302690,-0.30149564,8.85823,4.26401,0.0,0.0,0.0
21851253681648,-0.35413775,8.863015,4.254439,0.0,0.0,0.0
21851256060554,-0.37806597,8.872586,4.2592244,0.0,0.0,0.0
21851258439513,-0.38763726,8.891729,4.254439,0.0,0.0,0.0
21851260818471,-0.3924229,8.872586,4.240082,0.0,0.0,0.0
21851263197429,-0.40677986,8.872586,4.23051,0.0,0.0,0.0
21851265576388,-0.39720857,8.877372,4.2161536,0.0,0.0,0.0
21851267955294,-0.3684947,8.882157,4.2352962,0.0,0.0,0.0
21851270334252,-0.34456646,8.891729,4.249653,0.0,0.0,0.0
21851272713211,-0.3493521,8.9013,4.2592244,0.0,0.0,0.0
21851275092169,-0.33020952,8.882157,4.240082,0.0,0.0,0.0
21851277471075,-0.3062813,8.872586,4.249653,0.0,0.0,0.0
21851279850034,-0.29192436,8.872586,4.2592244,0.0,0.0,0.0
21851282228992,-0.28713873,8.872586,4.26401,0.0,0.0,0.0
21851284607950,-0.28235307,8.872586,4.2687955,0.0,0.0,0.0
21851286986909,-0.28713873,8.853444,4.2687955,0.0,0.0,0.0
21851289365867,-0.29671,8.867801,4.273581,0.0,0.0,0.0
21851291744773,-0.32542387,8.877372,4.316652,0.0,0.0,0.0
21851294123731,-0.36370903,8.9108715,4.2975097,0.0,0.0,0.0
21851296502690,-0.38285163,8.9348,4.2975097,0.0,0.0,0.0
21851298881648,-0.38763726,8.944371,4.3118663,0.0,0.0,0.0
21851301260554,-0.43070808,8.958728,4.321438,0.0,0.0,0.0
21851303639513,-0.42592242,8.992228,4.316652,0.0,0.0,0.0
21851306018471,-0.42592242,8.977871,4.316652,0.0,0.0,0.0
21851308397429,-0.46899325,8.9826565,4.2975097,0.0,0.0,0.0
21851310776388,-0.47377887,8.973084,4.2927237,0.0,0.0,0.0
21851313155294,-0.47856453,8.973084,4.287938,0.0,0.0,0.0
21851315534252,-0.4642076,8.944371,4.2831526,0.0,0.0,0.0
21851317913211,-0.44506502,8.949157,4.278367,0.0,0.0,0.0
21851320292169,-0.41635114,8.949157,4.26401,0.0,0.0,0.0
21851322671075,-0.3924229,8.944371,4.249653,0.0,0.0,0.0
21851325050034,-0.36370903,8.9013,4.254439,0.0,0.0,0.0
21851327428992,-0.34456646,8.896515,4.273581,0.0,0.0,0.0
21851329807950,-0.32063824,8.906086,4.273581,0.0,0.0,0.0
21851332186909,-0.32063824,8.915657,4.2687955,0.0,0.0,0.0
21851334565815,-0.32063824,8.863015,4.249653,0.0,0.0,0.0
21851336944773,-0.30149564,8.867801,4.240082,0.0,0.0,0.0
21851339323731,-0.32542387,8.863015,4.220939,0.0,0.0,0.0
21851341702638,-0.34456646,8.891729,4.2161536,0.0,0.0,0.0
21851344081648,-0.35413775,8.882157,4.211368,0.0,0.0,0.0
