t_ns,ax,ay,az,accuracy
32144858410782,-0.72741807,9.145369,4.1587257,3
32144860789636,-0.81834537,9.188439,3.7950168,3
32144863168542,-0.8805587,9.23151,3.4887354,3
32144865547396,-0.90448695,9.23151,3.4791641,3
32144867926250,-0.8422736,9.183653,3.7423747,3
32144870305105,-0.72741807,9.15494,4.0869412,3
32144872684011,-0.5407779,9.111869,4.240082,3
32144875062865,-0.29671,9.107083,4.101298,3
32144877441719,-0.019142581,9.131011,3.8141594,3
32144879820573,0.25842485,9.15494,3.5413775,3
32144882199428,0.5407779,9.126225,3.4983068,3
32144884578334,0.7609176,9.08794,3.6753755,3
32144886957188,0.93320084,9.064013,3.9338005,3
32144889336042,1.0911272,9.044869,4.0869412,3
32144891714896,1.1629118,9.068798,4.005585,3
32144894093750,1.1916257,9.102298,3.790231,3
32144896472657,1.1629118,9.12144,3.574877,3
32144898851511,1.0480564,9.116654,3.5365918,3
32144901230365,0.8997013,9.097511,3.67059,3
32144903609219,0.7082755,9.102298,3.8955152,3
32144905988125,0.47377887,9.111869,4.034299,3
32144908366980,0.21535404,9.145369,4.0007997,3
32144910745834,-0.0047856453,9.131011,3.8380876,3
32144913124688,-0.17706887,9.140582,3.6753755,3
32144915503594,-0.3589234,9.131011,3.641876,3
32144917882448,-0.49292147,9.097511,3.7184465,3
32144920261303,-0.6221339,9.068798,3.885944,3
32144922640157,-0.6795616,9.068798,4.005585,3
32144925019011,-0.65084773,9.049655,3.991228,3
32144927397917,-0.59342,9.044869,3.8668015,3
32144929776771,-0.5072784,9.044869,3.7184465,3
32144932155625,-0.38763726,9.035298,3.67059,3
32144934534480,-0.2440679,9.035298,3.7184465,3
32144936913386,-0.086141616,9.020942,3.8141594,3
32144939292240,0.07178468,8.992228,3.9146578,3
32144941671094,0.2105684,9.020942,3.900301,3
32144944049948,0.34456646,9.030513,3.8237305,3
32144946428855,0.40677986,9.059227,3.723232,3
32144948807709,0.47377887,9.078369,3.6753755,3
32144951186563,0.4881358,9.08794,3.7136607,3
32144953565365,0.4354937,9.08794,3.8237305,3
32144955944271,0.35413775,9.073584,3.900301,3
32144958323125,0.2536392,9.078369,3.900301,3
32144960702032,0.13399807,9.092726,3.8380876,3
32144963080886,-0.023928227,9.111869,3.7471602,3
32144965459740,-0.17706887,9.107083,3.7280176,3
32144967838594,-0.32063824,9.126225,3.7615173,3
32144970217500,-0.44506502,9.12144,3.8237305,3
32144972596355,-0.5312066,9.111869,3.8955152,3
32144974975209,-0.6125626,9.150154,3.8763726,3
32144977354063,-0.64606214,9.12144,3.8333018,3
32144979732969,-0.65084773,9.126225,3.7854455,3
32144982111823,-0.6125626,9.102298,3.7423747,3
32144984490625,-0.5407779,9.102298,3.7710886,3
32144986869532,-0.44506502,9.092726,3.818945,3
32144989248438,-0.33499518,9.102298,3.8476589,3
32144991627292,-0.22971097,9.107083,3.8333018,3
32144994006146,-0.10049855,9.097511,3.7950168,3
32144996385000,0.038285162,9.092726,3.7328033,3
32144998763855,0.13878371,9.102298,3.7184465,3
32145001142761,0.20578274,9.08794,3.7136607,3
32145003521615,0.25842485,9.097511,3.737589,3
32145005900469,0.27756742,9.08794,3.7663028,3
32145008279323,0.2440679,9.078369,3.7854455,3
32145010658230,0.2009971,9.092726,3.7854455,3
32145013037084,0.14356937,9.107083,3.7663028,3
32145015415938,0.05742774,9.083155,3.7471602,3
32145017794792,-0.08135597,9.097511,3.7567315,3
32145020173646,-0.2009971,9.102298,3.7950168,3
32145022552553,-0.3397808,9.126225,3.8285162,3
32145024931407,-0.42592242,9.145369,3.8237305,3
32145027310261,-0.52163535,9.145369,3.8093736,3
32145029689115,-0.6125626,9.150154,3.804588,3
32145032068021,-0.6652047,9.178867,3.8093736,3
32145034446875,-0.6843473,9.212367,3.7998023,3
32145036825730,-0.6795616,9.19801,3.8237305,3
32145039204584,-0.63170516,9.188439,3.8476589,3
32145041583438,-0.56470615,9.169296,3.8524444,3
32145043962344,-0.49292147,9.164511,3.842873,3
32145046341198,-0.38285163,9.15494,3.8285162,3
32145048720053,-0.26799613,9.145369,3.8141594,3
32145051098855,-0.13878371,9.135797,3.8285162,3
32145053477761,-0.07178468,9.107083,3.8237305,3
32145055856667,0.023928227,9.092726,3.8380876,3
32145058235521,0.09571291,9.107083,3.8333018,3
32145060614375,0.13878371,9.107083,3.842873,3
32145062993230,0.18185452,9.097511,3.8380876,3
32145065372136,0.17706887,9.092726,3.818945,3
32145067750990,0.148355,9.08794,3.7998023,3
32145070129844,0.09571291,9.083155,3.8285162,3
32145072508698,0.019142581,9.0544405,3.8524444,3
32145074887605,-0.05742774,9.059227,3.8907297,3
32145077266459,-0.14356937,9.049655,3.885944,3
32145079645313,-0.22971097,9.0544405,3.8524444,3
32145082024167,-0.28713873,9.049655,3.8237305,3
32145084403021,-0.3493521,9.049655,3.804588,3
32145086781928,-0.3924229,9.073584,3.8380876,3
32145089160782,-0.4019942,9.068798,3.842873,3
32145091539636,-0.40677986,9.073584,3.8668015,3
32145093918490,-0.39720857,9.078369,3.8668015,3
32145096297396,-0.35413775,9.107083,3.8333018,3
32145098676250,-0.31106696,9.102298,3.790231,3
32145101055105,-0.23928227,9.097511,3.7806597,3
32145103433959,-0.17228323,9.12144,3.7806597,3
32145105812813,-0.10049855,9.12144,3.7806597,3
32145108191719,-0.033499517,9.102298,3.7998023,3
32145110570573,0.019142581,9.102298,3.818945,3
32145112949428,0.086141616,9.111869,3.7950168,3
32145115328282,0.124426775,9.102298,3.7758741,3
32145117707136,0.148355,9.097511,3.7710886,3
32145120086042,0.16749759,9.068798,3.7758741,3
32145122464896,0.13399807,9.059227,3.7998023,3
32145124843750,0.09571291,9.059227,3.8093736,3
32145127222605,0.0526421,9.064013,3.8141594,3
32145129601511,-0.0047856453,9.044869,3.790231,3
32145131980365,-0.062213387,9.040084,3.790231,3
32145134359167,-0.11006984,9.059227,3.7998023,3
32145136738073,-0.15792629,9.068798,3.8093736,3
32145139116928,-0.21535404,9.068798,3.8333018,3
32145141495834,-0.2632105,9.068798,3.8380876,3
32145143874688,-0.3062813,9.073584,3.8572302,3
32145146253542,-0.32063824,9.064013,3.8572302,3
32145148632396,-0.31585258,9.08794,3.8237305,3
32145151011303,-0.29192436,9.078369,3.8285162,3
32145153390157,-0.29671,9.083155,3.818945,3
32145155769011,-0.29192436,9.111869,3.8141594,3
32145158147865,-0.25842485,9.092726,3.8333018,3
32145160526771,-0.22971097,9.092726,3.8285162,3
32145162905625,-0.18185452,9.097511,3.8333018,3
32145165284480,-0.17228323,9.092726,3.818945,3
32145167663334,-0.13878371,9.092726,3.790231,3
32145170042188,-0.12921242,9.111869,3.7758741,3
32145172421094,-0.124426775,9.097511,3.7615173,3
32145174799948,-0.11964113,9.097511,3.7567315,3
32145177178803,-0.15314065,9.102298,3.7854455,3
32145179557657,-0.18664017,9.102298,3.790231,3
32145181936511,-0.2009971,9.092726,3.7758741,3
32145184315417,-0.2440679,9.102298,3.7567315,3
32145186694219,-0.26799613,9.116654,3.7615173,3
32145189073125,-0.32063824,9.12144,3.7758741,3
32145191451980,-0.3493521,9.116654,3.7567315,3
32145193830886,-0.3924229,9.135797,3.7663028,3
32145196209740,-0.4019942,9.116654,3.7758741,3
32145198588594,-0.43070808,9.140582,3.7615173,3
32145200967448,-0.41635114,9.145369,3.7663028,3
32145203346355,-0.41635114,9.150154,3.790231,3
32145205725209,-0.38763726,9.140582,3.7806597,3
32145208104063,-0.31585258,9.135797,3.790231,3
32145210482917,-0.25842485,9.135797,3.804588,3
32145212861823,-0.21535404,9.145369,3.7950168,3
32145215240678,-0.16271193,9.140582,3.7998023,3
32145217619532,-0.11006984,9.15494,3.8093736,3
32145219998386,-0.05742774,9.135797,3.8141594,3
32145222377240,-0.033499517,9.126225,3.818945,3
32145224756146,-0.0047856453,9.12144,3.8141594,3
32145227135000,0.02871387,9.140582,3.7998023,3
32145229513855,0.076570325,9.111869,3.8285162,3
32145231892709,0.076570325,9.102298,3.842873,3
32145234271563,0.02871387,9.116654,3.8380876,3
32145236650469,-0.014356935,9.107083,3.842873,3
32145239029323,-0.033499517,9.064013,3.8285162,3
32145241408178,-0.0526421,9.092726,3.8333018,3
32145243787032,-0.11006984,9.083155,3.8141594,3
32145246165938,-0.15792629,9.078369,3.8285162,3
32145248544792,-0.2009971,9.08794,3.8333018,3
32145250923646,-0.25842485,9.092726,3.7806597,3
32145253302500,-0.30149564,9.097511,3.751946,3
32145255681355,-0.33020952,9.102298,3.7663028,3
32145258060261,-0.38285163,9.097511,3.804588,3
32145260439115,-0.38285163,9.102298,3.8907297,3
32145262817917,-0.35413775,9.12144,3.9194436,3
32145265196823,-0.3589234,9.12144,3.885944,3
32145267575730,-0.3062813,9.131011,3.818945,3
32145269954584,-0.23449662,9.116654,3.7328033,3
32145272333438,-0.22013968,9.12144,3.7184465,3
32145274712292,-0.16749759,9.116654,3.7663028,3
32145277091146,-0.11964113,9.126225,3.818945,3
32145279470053,-0.09092726,9.116654,3.842873,3
32145281848907,-0.06699903,9.126225,3.8141594,3
32145284227761,-0.033499517,9.135797,3.751946,3
32145286606615,-0.02871387,9.126225,3.7088752,3
32145288985521,-0.07178468,9.135797,3.694518,3
32145291364375,-0.05742774,9.12144,3.7663028,3
32145293743230,-0.08135597,9.111869,3.7998023,3
32145296122084,-0.124426775,9.12144,3.818945,3
32145298500938,-0.15314065,9.140582,3.8237305,3
32145300879844,-0.18185452,9.140582,3.7710886,3
32145303258698,-0.2009971,9.116654,3.737589,3
32145305637553,-0.23449662,9.107083,3.7328033,3
32145308016407,-0.2536392,9.12144,3.7423747,3
32145310395313,-0.3062813,9.116654,3.790231,3
32145312774167,-0.31106696,9.102298,3.8333018,3
32145315153021,-0.30149564,9.12144,3.8333018,3
32145317531875,-0.31106696,9.159725,3.7854455,3
32145319910678,-0.26799613,9.140582,3.751946,3
32145322289636,-0.22492532,9.131011,3.7328033,3
32145324668490,-0.20578274,9.126225,3.7471602,3
32145327047344,-0.17706887,9.126225,3.7998023,3
32145329426198,-0.14356937,9.12144,3.8141594,3
32145331805105,-0.10049855,9.12144,3.8237305,3
32145334183959,-0.05742774,9.140582,3.7854455,3
32145336562813,-0.05742774,9.140582,3.7663028,3
32145338941667,-0.06699903,9.126225,3.751946,3
32145341320521,-0.05742774,9.12144,3.7567315,3
32145343699428,-0.043070808,9.111869,3.804588,3
32145346078282,-0.05742774,9.135797,3.8237305,3
32145348457136,-0.076570325,9.097511,3.8380876,3
32145350835990,-0.086141616,9.083155,3.7998023,3
32145353214896,-0.11964113,9.092726,3.7663028,3
32145355593750,-0.13399807,9.08794,3.7567315,3
32145357972605,-0.17706887,9.08794,3.7710886,3
32145360351459,-0.22492532,9.073584,3.7998023,3
32145362730365,-0.24885355,9.102298,3.8380876,3
32145365109219,-0.2727818,9.102298,3.842873,3
32145367488073,-0.29671,9.12144,3.804588,3
32145369866928,-0.31585258,9.107083,3.7854455,3
32145372245782,-0.32542387,9.073584,3.7710886,3
32145374624688,-0.30149564,9.083155,3.790231,3
32145377003542,-0.32063824,9.083155,3.8141594,3
32145379382396,-0.3062813,9.102298,3.8285162,3
32145381761250,-0.31585258,9.073584,3.8237305,3
32145384140105,-0.29192436,9.111869,3.8093736,3
32145386519011,-0.2536392,9.12144,3.804588,3
32145388897865,-0.24885355,9.126225,3.7854455,3
32145391276719,-0.2009971,9.111869,3.7854455,3
32145393655573,-0.20578274,9.102298,3.8141594,3
32145396034480,-0.16749759,9.116654,3.804588,3
32145398413334,-0.124426775,9.08794,3.8237305,3
32145400792188,-0.10049855,9.097511,3.8237305,3
32145403171042,-0.09571291,9.092726,3.7998023,3
32145405549948,-0.08135597,9.097511,3.7806597,3
32145407928803,-0.086141616,9.102298,3.8093736,3
32145410307657,-0.10049855,9.078369,3.818945,3
32145412686511,-0.1052842,9.078369,3.8285162,3
32145415065365,-0.13399807,9.083155,3.8237305,3
32145417444271,-0.15314065,9.068798,3.8093736,3
32145419823125,-0.18664017,9.064013,3.804588,3
32145422201980,-0.18664017,9.068798,3.790231,3
32145424580834,-0.21535404,9.097511,3.7854455,3
32145426959740,-0.22971097,9.092726,3.8093736,3
32145429338594,-0.2536392,9.078369,3.8093736,3
32145431717448,-0.26799613,9.08794,3.7998023,3
32145434096303,-0.32063824,9.083155,3.8093736,3
32145436475209,-0.33499518,9.083155,3.7758741,3
32145438854063,-0.34456646,9.092726,3.7854455,3
32145441232917,-0.3684947,9.111869,3.7854455,3
32145443611771,-0.3684947,9.135797,3.7758741,3
32145445990625,-0.3589234,9.107083,3.7710886,3
32145448369532,-0.3397808,9.111869,3.7710886,3
32145450748386,-0.32063824,9.12144,3.7806597,3
32145453127240,-0.30149564,9.131011,3.7950168,3
32145455506094,-0.25842485,9.102298,3.790231,3
32145457884948,-0.22492532,9.102298,3.7998023,3
32145460263855,-0.17706887,9.111869,3.7854455,3
32145462642709,-0.16749759,9.107083,3.7806597,3
32145465021563,-0.13399807,9.102298,3.804588,3
32145467400417,-0.12921242,9.12144,3.818945,3
32145469779323,-0.11964113,9.092726,3.8237305,3
32145472158178,-0.13399807,9.08794,3.8333018,3
32145474537032,-0.11485548,9.08794,3.8141594,3
32145476915886,-0.148355,9.068798,3.7998023,3
32145479294740,-0.13878371,9.073584,3.804588,3
32145481673646,-0.15314065,9.083155,3.8141594,3
32145484052500,-0.17228323,9.083155,3.8285162,3
32145486431303,-0.17706887,9.078369,3.8620157,3
32145488810209,-0.18185452,9.078369,3.8476589,3
32145491189115,-0.20578274,9.097511,3.8093736,3
32145493567969,-0.2105684,9.092726,3.8237305,3
32145495946823,-0.2105684,9.078369,3.8141594,3
32145498325678,-0.23928227,9.092726,3.8380876,3
32145500704532,-0.23928227,9.111869,3.8572302,3
32145503083438,-0.25842485,9.135797,3.8333018,3
32145505462292,-0.23928227,9.131011,3.8141594,3
32145507841146,-0.23449662,9.126225,3.7998023,3
32145510220000,-0.22492532,9.135797,3.790231,3
32145512598907,-0.19621146,9.116654,3.7950168,3
32145514977761,-0.18664017,9.107083,3.8141594,3
32145517356615,-0.17706887,9.097511,3.8333018,3
32145519735417,-0.16271193,9.102298,3.8237305,3
32145522114375,-0.148355,9.102298,3.8237305,3
32145524493230,-0.14356937,9.131011,3.8093736,3
32145526872084,-0.13399807,9.12144,3.804588,3
32145529250938,-0.1052842,9.097511,3.8093736,3
32145531629792,-0.11485548,9.097511,3.8285162,3
32145534008698,-0.11006984,9.107083,3.8380876,3
32145536387553,-0.10049855,9.116654,3.8524444,3
32145538766407,-0.10049855,9.107083,3.8476589,3
32145541145261,-0.09571291,9.097511,3.8285162,3
32145543524115,-0.08135597,9.111869,3.8141594,3
32145545903021,-0.076570325,9.107083,3.818945,3
32145548281823,-0.08135597,9.083155,3.8285162,3
32145550660730,-0.086141616,9.08794,3.8333018,3
32145553039584,-0.09092726,9.107083,3.842873,3
32145555418490,-0.09571291,9.107083,3.8333018,3
32145557797344,-0.09571291,9.097511,3.818945,3
32145560176198,-0.1052842,9.111869,3.8093736,3
32145562555053,-0.124426775,9.111869,3.8093736,3
32145564933959,-0.148355,9.102298,3.8141594,3
32145567312813,-0.16271193,9.107083,3.804588,3
32145569691667,-0.2105684,9.107083,3.7950168,3
32145572070521,-0.22971097,9.111869,3.804588,3
32145574449375,-0.2440679,9.116654,3.7998023,3
32145576828282,-0.28713873,9.102298,3.790231,3
32145579207136,-0.30149564,9.116654,3.7998023,3
32145581585990,-0.32063824,9.135797,3.7806597,3
32145583964844,-0.32542387,9.140582,3.7806597,3
32145586343698,-0.32542387,9.140582,3.7710886,3
32145588722605,-0.3397808,9.12144,3.7854455,3
32145591101459,-0.32542387,9.135797,3.790231,3
32145593480313,-0.3062813,9.135797,3.7950168,3
32145595859167,-0.26799613,9.131011,3.7854455,3
32145598238073,-0.23928227,9.140582,3.7854455,3
32145600616928,-0.2105684,9.131011,3.7854455,3
32145602995782,-0.19142582,9.111869,3.7854455,3
32145605374636,-0.13878371,9.12144,3.7998023,3
32145607753542,-0.11964113,9.126225,3.8093736,3
32145610132396,-0.11006984,9.107083,3.7950168,3
32145612511250,-0.086141616,9.102298,3.8141594,3
32145614890105,-0.09571291,9.107083,3.818945,3
32145617268959,-0.07178468,9.107083,3.8141594,3
32145619647865,-0.076570325,9.097511,3.8093736,3
32145622026719,-0.076570325,9.107083,3.818945,3
32145624405573,-0.08135597,9.078369,3.8333018,3
32145626784428,-0.11964113,9.08794,3.842873,3
32145629163334,-0.15792629,9.08794,3.8380876,3
32145631542188,-0.19621146,9.083155,3.8141594,3
32145633921042,-0.22971097,9.083155,3.7998023,3
32145636299896,-0.2440679,9.116654,3.7854455,3
32145638678750,-0.28235307,9.126225,3.7806597,3
32145641057657,-0.33020952,9.135797,3.8093736,3
32145643436511,-0.34456646,9.135797,3.804588,3
32145645815365,-0.32063824,9.145369,3.804588,3
32145648194219,-0.35413775,9.150154,3.790231,3
32145650573073,-0.3493521,9.145369,3.7615173,3
32145652951980,-0.3493521,9.150154,3.7423747,3
32145655330834,-0.30149564,9.145369,3.7567315,3
32145657709688,-0.27756742,9.150154,3.7663028,3
32145660088542,-0.2727818,9.169296,3.7758741,3
32145662467448,-0.26799613,9.135797,3.7758741,3
32145664846303,-0.2727818,9.145369,3.7615173,3
32145667225157,-0.28235307,9.102298,3.751946,3
32145669604011,-0.26799613,9.111869,3.751946,3
32145671982865,-0.25842485,9.111869,3.7615173,3
32145674361771,-0.23928227,9.08794,3.7615173,3
32145676740625,-0.22013968,9.097511,3.7710886,3
32145679119480,-0.23928227,9.111869,3.8093736,3
32145681498334,-0.23449662,9.102298,3.8141594,3
32145683877240,-0.20578274,9.111869,3.804588,3
32145686256094,-0.2105684,9.097511,3.8237305,3
32145688634948,-0.20578274,9.064013,3.8285162,3
32145691013803,-0.19142582,9.073584,3.8285162,3
32145693392709,-0.18185452,9.073584,3.8380876,3
32145695771563,-0.2009971,9.083155,3.8285162,3
32145698150417,-0.2009971,9.083155,3.818945,3
32145700529271,-0.20578274,9.102298,3.7950168,3
32145702908125,-0.2105684,9.107083,3.7998023,3
32145705287032,-0.22971097,9.116654,3.804588,3
32145707665886,-0.21535404,9.102298,3.8285162,3
32145710044740,-0.2105684,9.102298,3.8524444,3
32145712423594,-0.23449662,9.08794,3.8476589,3
32145714802500,-0.2536392,9.111869,3.804588,3
32145717181355,-0.2536392,9.126225,3.790231,3
32145719560209,-0.24885355,9.126225,3.7758741,3
32145721939063,-0.25842485,9.126225,3.7806597,3
32145724317917,-0.28235307,9.111869,3.7806597,3
32145726696823,-0.29671,9.135797,3.7950168,3
32145729075678,-0.29671,9.126225,3.7950168,3
32145731454532,-0.29192436,9.131011,3.7710886,3
32145733833386,-0.28235307,9.126225,3.7567315,3
32145736212292,-0.26799613,9.111869,3.7615173,3
32145738591146,-0.2632105,9.126225,3.790231,3
32145740970000,-0.2440679,9.12144,3.7806597,3
32145743348855,-0.2009971,9.097511,3.8093736,3
32145745727709,-0.15314065,9.097511,3.8141594,3
32145748106615,-0.15792629,9.092726,3.7950168,3
32145750485469,-0.13399807,9.102298,3.790231,3
32145752864323,-0.124426775,9.083155,3.7758741,3
32145755243178,-0.1052842,9.078369,3.7615173,3
32145757622084,-0.1052842,9.097511,3.7663028,3
32145760000938,-0.11006984,9.083155,3.790231,3
32145762379792,-0.1052842,9.12144,3.8141594,3
32145764758646,-0.07178468,9.116654,3.8237305,3
32145767137500,-0.08135597,9.092726,3.8141594,3
32145769516407,-0.076570325,9.08794,3.8237305,3
32145771895261,-0.1052842,9.12144,3.8380876,3
32145774274115,-0.11964113,9.111869,3.8380876,3
32145776652969,-0.124426775,9.111869,3.8476589,3
32145779031875,-0.13399807,9.102298,3.8380876,3
32145781410730,-0.12921242,9.111869,3.8285162,3
32145783789584,-0.16271193,9.092726,3.8237305,3
32145786168438,-0.18664017,9.097511,3.842873,3
32145788547344,-0.18664017,9.102298,3.8380876,3
32145790926198,-0.17228323,9.131011,3.8476589,3
32145793305053,-0.16749759,9.126225,3.8380876,3
32145795683907,-0.15314065,9.097511,3.8285162,3
32145798062761,-0.14356937,9.102298,3.8093736,3
32145800441667,-0.13399807,9.078369,3.7998023,3
32145802820521,-0.11964113,9.111869,3.8093736,3
32145805199375,-0.11006984,9.116654,3.8141594,3
32145807578230,-0.08135597,9.097511,3.7998023,3
32145809957084,-0.08135597,9.092726,3.7950168,3
32145812335990,-0.076570325,9.107083,3.7998023,3
32145814714844,-0.062213387,9.116654,3.8141594,3
32145817093698,-0.0526421,9.116654,3.8333018,3
32145819472553,-0.043070808,9.111869,3.842873,3
32145821851459,-0.06699903,9.116654,3.804588,3
32145824230261,-0.09092726,9.08794,3.7806597,3
32145826609167,-0.09571291,9.107083,3.790231,3
32145828988021,-0.11964113,9.107083,3.8141594,3
32145831366928,-0.12921242,9.08794,3.8141594,3
32145833745782,-0.13399807,9.097511,3.8333018,3
32145836124636,-0.13399807,9.092726,3.804588,3
32145838503490,-0.15792629,9.073584,3.7854455,3
32145840882344,-0.16749759,9.08794,3.7423747,3
32145843261250,-0.2009971,9.092726,3.751946,3
32145845640105,-0.2009971,9.107083,3.7710886,3
32145848018959,-0.2105684,9.102298,3.7854455,3
32145850397813,-0.22013968,9.107083,3.7663028,3
32145852776719,-0.22013968,9.116654,3.7758741,3
32145855155573,-0.2105684,9.12144,3.7663028,3
32145857534428,-0.18185452,9.131011,3.7710886,3
32145859913282,-0.2009971,9.111869,3.7854455,3
32145862292136,-0.22013968,9.126225,3.7950168,3
32145864671042,-0.16271193,9.126225,3.8093736,3
32145867049896,-0.16271193,9.111869,3.804588,3
32145869428750,-0.15314065,9.111869,3.7854455,3
32145871807605,-0.16749759,9.116654,3.7806597,3
32145874186511,-0.14356937,9.12144,3.804588,3
32145876565365,-0.13878371,9.116654,3.8285162,3
32145878944219,-0.124426775,9.097511,3.842873,3
32145881323073,-0.1052842,9.107083,3.8620157,3
32145883701980,-0.1052842,9.116654,3.8524444,3
32145886080834,-0.09092726,9.116654,3.8141594,3
32145888459688,-0.06699903,9.202796,3.9290147,3
32145890838542,0.06699903,9.102298,3.6227336,3
32145893217396,-0.014356935,9.164511,3.1202407,3
32145895596303,0.11964113,9.255438,2.9671001,3
32145897975157,0.124426775,9.131011,3.4121652,3
32145900354011,0.07178468,8.920443,4.3357944,3
32145902732865,0.08135597,8.920443,5.020142,3
32145905111719,0.148355,9.01137,4.800002,3
32145907490625,0.124426775,9.08794,3.7663028,3
32145909869480,0.15314065,9.23151,2.8426733,3
32145912248334,0.2009971,9.241081,2.6799614,3
32145914627188,0.086141616,9.12144,3.4648073,3
32145917006094,-0.019142581,8.968299,4.551149,3
32145919384948,-0.023928227,8.920443,5.0919266,3
32145921763803,-0.1052842,8.963513,4.6372905,3
32145924142657,-0.16749759,9.097511,3.5844483,3
32145926521511,-0.22013968,9.183653,2.8378878,3
32145928900417,-0.31106696,9.169296,2.9431717,3
32145931279271,-0.44506502,9.078369,3.737589,3
32145933658125,-0.5407779,9.025727,4.6037908,3
32145936036980,-0.65084773,9.025727,4.9340005,3
32145938415886,-0.6269195,9.0544405,4.503292,3
32145940794740,-0.5694918,9.15494,3.723232,3
32145943173594,-0.51206404,9.226724,3.1537402,3
32145945552448,-0.4833502,9.217153,3.2207394,3
32145947931355,-0.39720857,9.126225,3.737589,3
32145950310209,-0.3684947,9.102298,4.354937,3
32145952689063,-0.26799613,9.059227,4.5655055,3
32145955067917,-0.17706887,9.073584,4.249653,3
32145957446771,-0.086141616,9.12144,3.6849468,3
32145959825678,-0.014356935,9.169296,3.2159536,3
32145962204532,0.047856454,9.164511,3.2063823,3
32145964583386,0.06699903,9.159725,3.5796626,3
32145966962240,0.076570325,9.12144,4.058227,3
32145969341146,0.06699903,9.092726,4.287938,3
32145971720000,0.09092726,9.08794,4.1347976,3
32145974098855,0.124426775,9.145369,3.7136607,3
32145976477709,0.11006984,9.169296,3.2590244,3
32145978856563,0.06699903,9.183653,3.3020952,3
32145981235417,0.076570325,9.035298,3.6514473,3
32145983614323,-0.019142581,8.997013,4.206582,3
32145985993178,-0.076570325,8.977871,4.4554358,3
32145988372032,-0.086141616,9.030513,4.2975097,3
32145990750886,-0.13399807,9.073584,3.7328033,3
32145993129792,-0.13878371,9.193225,3.2542388,3
32145995508646,-0.10049855,9.15494,3.1250265,3
32145997887500,-0.11006984,9.111869,3.4791641,3
32146000266407,-0.09571291,9.073584,3.9864426,3
32146002645261,-0.08135597,9.0544405,4.302295,3
32146005024115,-0.0526421,9.049655,4.1347976,3
32146007402969,0.019142581,9.150154,3.6993039,3
32146009781823,0.086141616,9.174082,3.306881,3
32146012160730,0.11964113,9.19801,3.2638102,3
32146014539584,0.15314065,9.159725,3.5413775,3
32146016918438,0.16749759,9.102298,3.9577286,3
32146019297292,0.18664017,9.068798,4.1874394,3
32146021676146,0.20578274,9.083155,4.082155,3
32146024055053,0.25842485,9.08794,3.7328033,3
32146026433907,0.2727818,9.12144,3.4504502,3
32146028812761,0.29192436,9.035298,3.397808,3
32146031191615,0.25842485,8.9826565,3.6323047,3
32146033570521,0.20578274,9.025727,3.8811584,3
32146035949375,0.13878371,9.131011,3.7998023,3
32146038328230,0.02871387,9.164511,3.7423747,3
32146040707084,0.014356935,9.073584,3.8907297,3
32146043085938,-0.02871387,9.164511,3.9816568,3
32146045464844,-0.2009971,9.427721,3.900301,3
32146047843698,-0.21535404,9.332008,3.7184465,3
32146050222553,-0.2009971,9.111869,3.5413775,3
32146052601407,-0.33499518,9.107083,3.5796626,3
32146054980313,-0.35413775,9.068798,3.8907297,3
32146057359167,-0.25842485,8.939586,4.254439,3
32146059738021,-0.3062813,9.006584,4.3501515,3
32146062116875,-0.23928227,9.131011,4.1347976,3
32146064495782,-0.11485548,9.145369,3.7280176,3
32146066874636,-0.076570325,9.145369,3.426522,3
32146069253490,-0.043070808,9.135797,3.4360933,3
32146071632344,0.014356935,9.064013,3.7136607,3
32146074011198,0.043070808,9.044869,4.0677986,3
32146076390105,0.02871387,9.083155,4.2257247,3
32146078768959,0.0526421,9.049655,4.125226,3
32146081147813,0.07178468,9.030513,3.8572302,3
32146083526667,0.06699903,9.078369,3.6179478,3
32146085905573,0.08135597,9.107083,3.5940197,3
32146088284428,0.0526421,9.073584,3.7663028,3
32146090663282,0.038285162,9.0544405,3.9481573,3
32146093042136,0.0526421,9.08794,4.0103707,3
32146095420990,0.023928227,9.12144,3.8955152,3
32146097799896,-0.019142581,9.140582,3.6514473,3
32146100178750,-0.033499517,9.193225,3.4887354,3
32146102557605,-0.09092726,9.178867,3.5413775,3
32146104936459,-0.14356937,9.135797,3.7136607,3
32146107315365,-0.18664017,9.097511,3.9098723,3
32146109694219,-0.20578274,9.107083,4.005585,3
32146112073073,-0.19142582,9.078369,3.8907297,3
32146114451928,-0.16749759,9.078369,3.6993039,3
32146116830782,-0.12921242,9.102298,3.5605202,3
32146119209688,-0.062213387,9.102298,3.5605202,3
32146121588542,-0.038285162,9.083155,3.6849468,3
32146123967396,-0.0047856453,9.097511,3.818945,3
32146126346250,0.0047856453,9.097511,3.8572302,3
32146128725157,0.009571291,9.102298,3.7950168,3
32146131104011,0.033499517,9.135797,3.694518,3
32146133482865,0.047856454,9.145369,3.6323047,3
32146135861719,0.023928227,9.116654,3.6993039,3
32146138240625,-0.009571291,9.064013,3.8763726,3
32146140619480,-0.009571291,9.025727,3.9816568,3
32146142998334,-0.047856454,9.068798,4.024728,3
32146145377188,-0.062213387,9.107083,3.900301,3
32146147756042,-0.05742774,9.107083,3.7998023,3
32146150134948,-0.11964113,9.107083,3.751946,3
32146152513803,-0.13878371,9.097511,3.7758741,3
32146154892657,-0.16271193,9.111869,3.8476589,3
32146157271511,-0.19142582,9.116654,3.9290147,3
32146159650365,-0.20578274,9.078369,3.9481573,3
32146162029271,-0.21535404,9.068798,3.9242291,3
32146164408125,-0.24885355,9.049655,3.8668015,3
32146166786980,-0.22971097,9.044869,3.8093736,3
32146169165834,-0.22492532,9.068798,3.818945,3
32146171544740,-0.22971097,9.064013,3.8620157,3
32146173923594,-0.20578274,9.0544405,3.900301,3
32146176302448,-0.18664017,9.068798,3.9050865,3
32146178681303,-0.148355,9.08794,3.8572302,3
32146181060209,-0.12921242,9.078369,3.7710886,3
32146183439063,-0.10049855,9.116654,3.7328033,3
32146185817917,-0.086141616,9.092726,3.7280176,3
32146188196771,-0.08135597,9.097511,3.7806597,3
32146190575678,-0.08135597,9.08794,3.8524444,3
32146192954532,-0.1052842,9.102298,3.871587,3
32146195333386,-0.11485548,9.092726,3.8380876,3
32146197712240,-0.13399807,9.107083,3.804588,3
32146200091094,-0.14356937,9.126225,3.7567315,3
32146202470000,-0.17228323,9.135797,3.737589,3
32146204848855,-0.18664017,9.116654,3.7567315,3
32146207227709,-0.18664017,9.107083,3.7806597,3
32146209606563,-0.19142582,9.097511,3.7806597,3
32146211985417,-0.20578274,9.078369,3.7758741,3
32146214364323,-0.22492532,9.08794,3.7471602,3
32146216743178,-0.2440679,9.107083,3.723232,3
32146219122032,-0.2536392,9.08794,3.7280176,3
32146221500886,-0.25842485,9.068798,3.7615173,3
32146223879792,-0.27756742,9.083155,3.7950168,3
32146226258646,-0.30149564,9.08794,3.7854455,3
32146228637500,-0.29671,9.083155,3.7950168,3
32146231016355,-0.29192436,9.116654,3.7615173,3
32146233395209,-0.29671,9.12144,3.7184465,3
32146235774115,-0.29671,9.150154,3.694518,3
32146238152969,-0.29671,9.150154,3.6897326,3
32146240531823,-0.28235307,9.116654,3.641876,3
32146242910678,-0.29671,9.135797,3.6323047,3
32146245289584,-0.30149564,9.145369,3.6227336,3
32146247668438,-0.3062813,9.092726,3.6753755,3
32146250047292,-0.32063824,9.064013,3.7663028,3
32146252426146,-0.3062813,9.049655,3.8524444,3
32146254805053,-0.32063824,9.030513,3.8620157,3
32146257183907,-0.3397808,9.020942,3.8141594,3
32146259562761,-0.34456646,9.064013,3.7328033,3
32146261941615,-0.3684947,9.083155,3.694518,3
32146264320469,-0.3684947,9.0544405,3.7136607,3
32146266699375,-0.39720857,9.059227,3.790231,3
32146269078230,-0.43070808,9.040084,3.8572302,3
32146271457084,-0.4642076,9.049655,3.885944,3
32146273835886,-0.45942193,9.0544405,3.8524444,3
32146276214844,-0.4642076,9.097511,3.7854455,3
32146278593646,-0.47856453,9.145369,3.7136607,3
32146280972553,-0.45942193,9.159725,3.6897326,3
32146283351407,-0.44506502,9.188439,3.6658044,3
32146285730313,-0.3924229,9.217153,3.6897326,3
32146288109167,-0.31585258,9.245867,3.6993039,3
32146290488021,-0.22492532,9.30808,3.723232,3
32146292866875,-0.13399807,9.322437,3.6993039,3
32146295245730,-0.043070808,9.327223,3.641876,3
32146297624636,0.07178468,9.365508,3.6083765,3
32146300003490,0.14356937,9.360723,3.6466618,3
32146302382344,0.2632105,9.298509,3.7567315,3
32146304761198,0.33499518,9.255438,3.871587,3
32146307140053,0.41635114,9.188439,3.9338005,3
32146309518959,0.4833502,9.126225,3.9290147,3
32146311897813,0.5168497,9.092726,3.8620157,3
32146314276667,0.5168497,9.068798,3.7854455,3
32146316655521,0.4881358,9.035298,3.7806597,3
32146319034428,0.41156548,9.016156,3.8285162,3
32146321413282,0.30149564,9.020942,3.9242291,3
32146323792136,0.11485548,9.001799,3.9816568,3
32146326170990,-0.047856454,9.020942,4.0007997,3
32146328549896,-0.27756742,9.020942,3.9816568,3
32146330928750,-0.4546363,9.044869,3.9673,3
32146333307605,-0.66999036,9.059227,4.0103707,3
32146335686459,-0.86141616,9.083155,4.1347976,3
32146338065313,-1.0001999,9.102298,4.1874394,3
32146340444219,-1.0959128,9.145369,4.2257247,3
32146342823073,-1.1150553,9.164511,4.211368,3
32146345201928,-1.105484,9.145369,4.15394,3
32146347580782,-1.0336994,9.188439,4.1204405,3
32146349959688,-0.91405827,9.265009,4.0869412,3
32146352338542,-0.7465607,9.241081,4.0869412,3
32146354717396,-0.55513483,9.23151,4.0390844,3
32146357096250,-0.37806597,9.221938,3.9816568,3
32146359475105,-0.20578274,9.183653,3.8907297,3
32146361854011,-0.047856454,9.150154,3.7950168,3
32146364232865,0.11006984,9.068798,3.7280176,3
32146366611719,0.24885355,8.997013,3.6849468,3
32146368990573,0.3397808,9.001799,3.67059,3
32146371369480,0.40677986,8.968299,3.6323047,3
32146373748334,0.40677986,8.963513,3.5988052,3
32146376127188,0.36370903,8.987442,3.5988052,3
32146378506042,0.28235307,8.968299,3.6610186,3
32146380884948,0.16271193,8.992228,3.7136607,3
32146383263803,0.0,9.040084,3.7040894,3
32146385642657,-0.17228323,9.0544405,3.6083765,3
32146388021511,-0.3589234,9.078369,3.4983068,3
32146390400365,-0.51206404,9.12144,3.4504502,3
32146392779271,-0.64606214,9.12144,3.5126636,3
32146395158125,-0.7322037,9.092726,3.6466618,3
32146397536980,-0.7465607,9.073584,3.751946,3
32146399915834,-0.7082755,9.073584,3.737589,3
32146402294688,-0.6125626,9.097511,3.6801612,3
32146404673594,-0.4354937,9.135797,3.6131623,3
32146407052448,-0.2440679,9.193225,3.5988052,3
32146409431303,-0.023928227,9.174082,3.5509489,3
32146411810157,0.23928227,9.188439,3.5270207,3
32146414189063,0.4642076,9.169296,3.5892339,3
32146416567917,0.6652047,9.140582,3.6993039,3
32146418946771,0.8709874,9.111869,3.8285162,3
32146421325625,1.0097711,9.08794,3.8763726,3
32146423704532,1.1246266,9.068798,3.8476589,3
32146426083386,1.2299109,9.078369,3.7615173,3
32146428462240,1.2777673,9.102298,3.656233,3
32146430841094,1.2442678,9.116654,3.5940197,3
32146433219948,1.1916257,9.08794,3.6275191,3
32146435598855,1.0432707,9.073584,3.6993039,3
32146437977709,0.8662018,9.092726,3.7423747,3
32146440356563,0.66041905,9.073584,3.7184465,3
32146442735417,0.4211368,9.040084,3.6849468,3
32146445114323,0.17706887,9.0544405,3.6514473,3
32146447493178,-0.076570325,9.08794,3.6466618,3
32146449872032,-0.2727818,9.08794,3.7136607,3
32146452250886,-0.4881358,9.097511,3.7806597,3
32146454629792,-0.6556334,9.126225,3.8572302,3
32146457008646,-0.7704889,9.116654,3.8763726,3
32146459387500,-0.85184485,9.116654,3.8524444,3
32146461766355,-0.86141616,9.145369,3.7806597,3
32146464145209,-0.8422736,9.169296,3.7663028,3
32146466524115,-0.7896315,9.145369,3.7806597,3
32146468902969,-0.7178468,9.107083,3.8572302,3
32146471281823,-0.6269195,9.107083,3.9338005,3
32146473660678,-0.55034924,9.08794,3.9768713,3
32146476039584,-0.42592242,9.068798,4.005585,3
32146478418438,-0.29671,9.073584,4.005585,3
32146480797292,-0.2105684,9.073584,4.0151563,3
32146483176146,-0.124426775,9.083155,4.0295134,3
32146485555000,-0.019142581,9.097511,4.0773697,3
32146487933907,0.06699903,9.08794,4.1204405,3
32146490312761,0.10049855,9.083155,4.1491547,3
32146492691615,0.148355,9.078369,4.173083,3
32146495070469,0.15792629,9.08794,4.1491547,3
32146497449375,0.16749759,9.08794,4.1204405,3
32146499828230,0.18664017,9.073584,4.0869412,3
32146502207084,0.16749759,9.073584,4.048656,3
32146504585938,0.124426775,9.08794,4.0438704,3
32146506964844,0.076570325,9.064013,4.0773697,3
32146509343698,0.043070808,9.064013,4.048656,3
32146511722553,0.02871387,9.097511,3.991228,3
32146514101407,0.019142581,9.111869,3.9577286,3
32146516480261,0.0,9.092726,3.8955152,3
32146518859167,-0.0047856453,9.107083,3.885944,3
32146521238021,-0.014356935,9.083155,3.8668015,3
32146523616875,-0.0526421,9.107083,3.842873,3
32146525995730,-0.06699903,9.116654,3.7950168,3
32146528374636,-0.062213387,9.111869,3.7615173,3
32146530753490,-0.062213387,9.116654,3.7136607,3
32146533132292,-0.08135597,9.145369,3.7280176,3
32146535511198,-0.08135597,9.12144,3.7854455,3
32146537890053,-0.1052842,9.126225,3.790231,3
32146540268959,-0.11006984,9.145369,3.694518,3
32146542647813,-0.11485548,9.131011,3.5940197,3
32146545026667,-0.13878371,9.131011,3.522235,3
32146547405521,-0.16749759,9.15494,3.5796626,3
32146549784428,-0.16749759,9.150154,3.6801612,3
32146552163282,-0.22013968,9.135797,3.7184465,3
32146554542136,-0.22013968,9.12144,3.6849468,3
32146556920990,-0.22971097,9.140582,3.656233,3
32146559299844,-0.23449662,9.135797,3.6610186,3
32146561678750,-0.20578274,9.126225,3.7471602,3
32146564057605,-0.2009971,9.126225,3.8380876,3
32146566436459,-0.16271193,9.116654,3.7998023,3
32146568815313,-0.11006984,9.145369,3.7040894,3
32146571194219,-0.07178468,9.164511,3.6466618,3
32146573573073,-0.019142581,9.131011,3.6610186,3
32146575951928,0.014356935,9.131011,3.7471602,3
32146578330782,0.047856454,9.126225,3.8620157,3
32146580709636,0.10049855,9.068798,3.842873,3
32146583088542,0.12921242,9.102298,3.6993039,3
32146585467396,0.124426775,9.140582,3.5988052,3
32146587846250,0.18185452,9.107083,3.5318062,3
32146590225105,0.148355,9.083155,3.5988052,3
32146592604011,0.15792629,9.092726,3.8141594,3
32146594982865,0.148355,9.040084,3.9960139,3
32146597361719,0.12921242,9.059227,4.019942,3
32146599740573,0.08135597,9.102298,3.7710886,3
32146602119480,0.11964113,9.083155,3.4600215,3
32146604498334,0.02871387,9.12144,3.4504502,3
32146606877188,0.019142581,9.073584,3.7615173,3
32146609256042,0.0,9.016156,4.0677986,3
32146611634896,-0.02871387,9.083155,4.091727,3
32146614013803,0.014356935,9.145369,3.8380876,3
32146616392605,0.038285162,9.131011,3.426522,3
32146618771511,-0.023928227,9.245867,3.4456646,3
32146621150365,0.023928227,9.08794,3.6227336,3
32146623529271,0.02871387,9.083155,3.9433718,3
32146625908125,0.0,9.040084,4.0390844,3
32146628286980,-0.014356935,9.073584,4.1443686,3
32146630665834,0.124426775,8.9826565,4.0295134,3
32146633044740,0.08135597,9.083155,3.8141594,3
32146635423594,0.17706887,9.164511,3.6370904,3
32146637802448,0.28235307,9.083155,3.4839497,3
32146640181303,0.28713873,9.116654,3.603591,3
32146642560157,0.22971097,9.140582,3.9720855,3
32146644939063,0.27756742,9.030513,4.206582,3
32146647317917,0.18664017,9.025727,4.0773697,3
32146649696771,0.1052842,9.140582,3.7663028,3
32146652075625,0.043070808,9.169296,3.6658044,3
32146654454532,-0.009571291,9.0544405,3.6466618,3
32146656833386,-0.22492532,9.111869,3.7280176,3
32146659212188,-0.25842485,9.236296,4.0390844,3
32146661591094,-0.27756742,9.059227,4.0773697,3
32146663970000,-0.32063824,9.064013,3.8285162,3
32146666348855,-0.4211368,9.269794,3.7471602,3
32146668727709,-0.25842485,9.150154,3.7423747,3
32146671106563,-0.3493521,9.020942,3.7758741,3
32146673485417,-0.35413775,9.150154,3.8620157,3
32146675864323,-0.33499518,9.212367,4.106084,3
32146678243178,-0.22013968,8.9013,3.9338005,3
32146680622032,-0.34456646,9.12144,3.8955152,3
32146683000886,-0.19621146,9.212367,3.8620157,3
32146685379792,-0.09092726,8.973084,3.7040894,3
32146687758646,-0.09092726,9.001799,3.6466618,3
32146690137500,-0.009571291,9.2075815,4.024728,3
32146692516355,0.15792629,8.891729,4.2975097,3
32146694895209,0.13399807,8.748159,4.278367,3
32146697274115,0.16271193,9.073584,4.168297,3
32146699652969,0.29671,9.0544405,3.9673,3
32146702031823,0.25842485,8.958728,3.6801612,3
32146704410678,0.2009971,9.2075815,3.455236,3
32146706789584,0.22013968,9.269794,3.3499517,3
32146709168438,0.17228323,9.040084,3.4073794,3
32146711547292,0.014356935,9.12144,3.723232,3
32146713926146,0.038285162,9.288938,3.9098723,3
32146716305000,-0.038285162,9.2075815,3.7328033,3
32146718683907,-0.086141616,9.131011,3.345166,3
32146721062761,-0.02871387,9.265009,3.1345978,3
32146723441615,-0.02871387,9.30808,3.1872396,3
32146725820469,-0.07178468,9.255438,3.4456646,3
32146728199375,-0.014356935,9.245867,3.818945,3
32146730578230,0.019142581,9.159725,3.9673,3
32146732957084,0.02871387,9.102298,3.8285162,3
32146735335938,0.06699903,9.135797,3.603591,3
32146737714792,0.09092726,9.15494,3.4695928,3
32146740093698,0.0526421,9.107083,3.522235,3
32146742472553,-0.009571291,9.030513,3.7328033,3
32146744851407,-0.0526421,8.987442,4.024728,3
32146747230261,-0.14356937,8.949157,4.1347976,3
32146749609167,-0.27756742,8.953942,4.0390844,3
32146751988021,-0.28235307,9.025727,3.8476589,3
32146754366875,-0.3397808,9.0544405,3.67059,3
32146756745730,-0.4354937,9.040084,3.6658044,3
32146759124636,-0.4833502,9.044869,3.842873,3
32146761503490,-0.5407779,9.0544405,4.058227,3
32146763882344,-0.6029913,9.083155,4.125226,3
32146766261198,-0.5694918,9.12144,4.034299,3
32146768640053,-0.5312066,9.164511,3.8668015,3
32146771018959,-0.44027936,9.150154,3.7280176,3
32146773397813,-0.34456646,9.159725,3.737589,3
32146775776667,-0.23449662,9.164511,3.842873,3
32146778155521,-0.09092726,9.159725,3.9864426,3
32146780534428,0.038285162,9.126225,4.0390844,3
32146782913282,0.13878371,9.12144,3.991228,3
32146785292136,0.2632105,9.111869,3.8620157,3
32146787670990,0.37328035,9.126225,3.7615173,3
32146790049896,0.44027936,9.12144,3.7136607,3
32146792428750,0.4546363,9.08794,3.790231,3
32146794807605,0.45942193,9.068798,3.9098723,3
32146797186459,0.4211368,9.0544405,4.0007997,3
32146799565313,0.3924229,9.064013,3.9481573,3
32146801944219,0.3493521,9.040084,3.8333018,3
32146804323073,0.24885355,9.044869,3.7423747,3
32146806701928,0.13878371,9.059227,3.7040894,3
32146809080782,0.038285162,9.025727,3.751946,3
32146811459688,-0.076570325,9.016156,3.8333018,3
32146813838542,-0.17706887,9.059227,3.8811584,3
32146816217396,-0.26799613,9.078369,3.8285162,3
32146818596250,-0.33499518,9.078369,3.737589,3
32146820975157,-0.35413775,9.107083,3.6610186,3
32146823354011,-0.33499518,9.135797,3.641876,3
32146825732813,-0.31585258,9.126225,3.6897326,3
32146828111719,-0.2536392,9.116654,3.7471602,3
32146830490573,-0.16749759,9.12144,3.7998023,3
32146832869480,-0.038285162,9.169296,3.818945,3
32146835248334,0.076570325,9.169296,3.7758741,3
32146837627188,0.18664017,9.169296,3.7471602,3
32146840006042,0.28235307,9.159725,3.737589,3
32146842384948,0.3589234,9.15494,3.7663028,3
32146844763803,0.40677986,9.102298,3.818945,3
32146847142657,0.41635114,9.102298,3.8668015,3
32146849521511,0.39720857,9.111869,3.8380876,3
32146851900417,0.33020952,9.092726,3.804588,3
32146854279271,0.2536392,9.107083,3.7423747,3
32146856658125,0.12921242,9.097511,3.7615173,3
32146859036980,0.019142581,9.083155,3.7950168,3
32146861415834,-0.1052842,9.083155,3.8476589,3
32146863794740,-0.22492532,9.073584,3.8811584,3
32146866173594,-0.3397808,9.111869,3.8811584,3
32146868552448,-0.41156548,9.111869,3.8380876,3
32146870931303,-0.526421,9.12144,3.7998023,3
32146873310209,-0.59342,9.126225,3.8237305,3
32146875689063,-0.61734825,9.12144,3.8524444,3
32146878067865,-0.6029913,9.08794,3.8763726,3
32146880446771,-0.56470615,9.126225,3.8668015,3
32146882825678,-0.4881358,9.116654,3.8572302,3
32146885204532,-0.39720857,9.126225,3.8237305,3
32146887583386,-0.27756742,9.12144,3.804588,3
32146889962240,-0.148355,9.131011,3.804588,3
32146892341094,-0.043070808,9.12144,3.818945,3
32146894720000,0.05742774,9.12144,3.8285162,3
32146897098855,0.13399807,9.135797,3.818945,3
32146899477709,0.22013968,9.12144,3.804588,3
32146901856563,0.2536392,9.111869,3.7663028,3
32146904235469,0.29671,9.107083,3.7567315,3
32146906614323,0.26799613,9.111869,3.7567315,3
32146908993178,0.23449662,9.135797,3.7710886,3
32146911372032,0.16749759,9.12144,3.7663028,3
32146913750938,0.07178468,9.107083,3.7567315,3
32146916129792,-0.02871387,9.107083,3.7615173,3
32146918508646,-0.17706887,9.116654,3.7758741,3
32146920887500,-0.25842485,9.145369,3.7758741,3
32146923266355,-0.3397808,9.140582,3.8093736,3
32146925645261,-0.41635114,9.164511,3.8237305,3
32146928024115,-0.47377887,9.150154,3.8476589,3
32146930402969,-0.51206404,9.140582,3.8572302,3
32146932781823,-0.526421,9.140582,3.8524444,3
32146935160730,-0.49292147,9.145369,3.8620157,3
32146937539584,-0.44027936,9.15494,3.8572302,3
32146939918438,-0.37806597,9.140582,3.8380876,3
32146942297240,-0.29671,9.150154,3.842873,3
32146944676198,-0.22013968,9.145369,3.8572302,3
32146947055053,-0.124426775,9.145369,3.8524444,3
32146949433907,-0.047856454,9.102298,3.8524444,3
32146951812709,0.023928227,9.102298,3.8620157,3
32146954191615,0.09571291,9.097511,3.8572302,3
32146956570521,0.148355,9.08794,3.818945,3
32146958949375,0.16749759,9.092726,3.842873,3
32146961328230,0.16271193,9.116654,3.8380876,3
32146963707084,0.15314065,9.08794,3.8093736,3
32146966085990,0.11485548,9.083155,3.8237305,3
32146968464844,0.019142581,9.126225,3.804588,3
32146970843698,-0.062213387,9.116654,3.7806597,3
32146973222553,-0.17706887,9.049655,3.7998023,3
32146975601407,-0.26799613,9.107083,3.8524444,3
32146977980313,-0.38285163,9.12144,3.842873,3
32146980359167,-0.47856453,9.064013,3.885944,3
32146982738021,-0.56470615,9.049655,3.8811584,3
32146985116875,-0.66041905,9.145369,3.8620157,3
32146987495782,-0.7082755,9.08794,3.8285162,3
32146989874636,-0.7513463,9.0544405,3.8476589,3
32146992253490,-0.7896315,9.092726,3.842873,3
32146994632344,-0.79920274,9.131011,3.8476589,3
32146997011250,-0.7800602,9.073584,3.8476589,3
32146999390105,-0.74177504,9.078369,3.8237305,3
32147001768959,-0.71306115,9.111869,3.790231,3
32147004147813,-0.64606214,9.083155,3.751946,3
32147006526667,-0.5838487,9.073584,3.723232,3
32147008905573,-0.52163535,9.131011,3.7280176,3
32147011284428,-0.46899325,9.135797,3.737589,3
32147013663282,-0.43070808,9.064013,3.737589,3
32147016042136,-0.4211368,9.092726,3.7280176,3
32147018421042,-0.40677986,9.140582,3.7136607,3
32147020799896,-0.44027936,9.097511,3.694518,3
32147023178750,-0.49292147,9.107083,3.656233,3
32147025557605,-0.53599226,9.159725,3.6658044,3
32147027936511,-0.6029913,9.140582,3.67059,3
32147030315365,-0.6891329,9.12144,3.723232,3
32147032694219,-0.72741807,9.145369,3.737589,3
32147035073073,-0.7800602,9.164511,3.7471602,3
32147037451928,-0.7752745,9.131011,3.7471602,3
32147039830834,-0.79920274,9.150154,3.7328033,3
32147042209688,-0.81834537,9.150154,3.737589,3
32147044588542,-0.8662018,9.126225,3.7663028,3
32147046967396,-0.8662018,9.116654,3.7806597,3
32147049346303,-0.8470592,9.150154,3.790231,3
32147051725157,-0.7896315,9.140582,3.8093736,3
32147054104011,-0.7513463,9.135797,3.7854455,3
32147056482865,-0.7082755,9.150154,3.7758741,3
32147058861719,-0.6269195,9.150154,3.7758741,3
32147061240625,-0.56470615,9.131011,3.7806597,3
32147063619480,-0.5024927,9.116654,3.7950168,3
32147065998334,-0.44027936,9.126225,3.8093736,3
32147068377188,-0.41156548,9.12144,3.8141594,3
32147070756094,-0.38285163,9.111869,3.8333018,3
32147073134948,-0.35413775,9.111869,3.8093736,3
32147075513803,-0.3397808,9.097511,3.790231,3
32147077892657,-0.34456646,9.135797,3.804588,3
32147080271511,-0.34456646,9.12144,3.8141594,3
32147082650417,-0.3684947,9.140582,3.8141594,3
32147085029271,-0.38285163,9.102298,3.8093736,3
32147087408125,-0.38285163,9.107083,3.8141594,3
32147089786980,-0.40677986,9.111869,3.7998023,3
32147092165886,-0.44027936,9.097511,3.7806597,3
32147094544740,-0.43070808,9.107083,3.7854455,3
32147096923542,-0.44027936,9.116654,3.790231,3
32147099302448,-0.42592242,9.12144,3.7998023,3
32147101681355,-0.44506502,9.083155,3.8093736,3
32147104060209,-0.41635114,9.092726,3.804588,3
32147106439063,-0.3924229,9.083155,3.7854455,3
32147108817917,-0.36370903,9.078369,3.7615173,3
32147111196823,-0.34456646,9.102298,3.7663028,3
32147113575678,-0.29671,9.097511,3.7328033,3
32147115954532,-0.2632105,9.08794,3.737589,3
32147118333386,-0.22492532,9.083155,3.7184465,3
32147120712136,-0.2009971,9.068798,3.737589,3
32147123091146,-0.15792629,9.083155,3.7328033,3
32147125470000,-0.13878371,9.073584,3.7471602,3
32147127848855,-0.13399807,9.068798,3.7423747,3
32147130227709,-0.14356937,9.097511,3.7567315,3
32147132606615,-0.18185452,9.111869,3.751946,3
32147134985469,-0.2105684,9.126225,3.7615173,3
32147137364323,-0.2536392,9.107083,3.7615173,3
32147139743178,-0.30149564,9.126225,3.7567315,3
32147142122032,-0.3684947,9.111869,3.7710886,3
32147144500938,-0.43070808,9.12144,3.7663028,3
32147146879792,-0.49292147,9.12144,3.7710886,3
32147149258594,-0.52163535,9.111869,3.7806597,3
32147151637500,-0.5455636,9.107083,3.7663028,3
32147154016407,-0.57906306,9.116654,3.7471602,3
32147156395261,-0.57906306,9.126225,3.7567315,3
32147158774115,-0.6029913,9.116654,3.751946,3
32147161152969,-0.60777694,9.107083,3.7567315,3
32147163531875,-0.57906306,9.102298,3.7758741,3
32147165910730,-0.57906306,9.107083,3.7663028,3
32147168289584,-0.5838487,9.092726,3.7710886,3
32147170668438,-0.55034924,9.107083,3.7471602,3
32147173047344,-0.5455636,9.111869,3.7663028,3
32147175426198,-0.526421,9.111869,3.7758741,3
32147177805053,-0.47856453,9.092726,3.7663028,3
32147180183907,-0.45942193,9.107083,3.7758741,3
32147182562761,-0.44506502,9.102298,3.790231,3
32147184941667,-0.45942193,9.102298,3.7710886,3
32147187320521,-0.4354937,9.073584,3.7471602,3
32147189699375,-0.44027936,9.08794,3.7615173,3
32147192078230,-0.4881358,9.102298,3.7615173,3
32147194457136,-0.52163535,9.092726,3.737589,3
32147196835990,-0.55513483,9.102298,3.7471602,3
32147199214844,-0.5886344,9.097511,3.7423747,3
32147201593698,-0.6364908,9.116654,3.7280176,3
32147203972605,-0.66999036,9.116654,3.7088752,3
32147206351407,-0.70348984,9.135797,3.7040894,3
32147208730313,-0.71306115,9.107083,3.7040894,3
32147211109167,-0.7465607,9.131011,3.7328033,3
32147213488073,-0.7609176,9.126225,3.7758741,3
32147215866928,-0.76570326,9.116654,3.7806597,3
32147218245782,-0.7465607,9.135797,3.7806597,3
32147220624636,-0.7082755,9.131011,3.7615173,3
32147223003490,-0.65084773,9.135797,3.7423747,3
32147225382396,-0.6029913,9.135797,3.7615173,3
32147227761250,-0.55513483,9.12144,3.7950168,3
32147230140105,-0.5072784,9.111869,3.8285162,3
32147232518959,-0.4642076,9.131011,3.8333018,3
32147234897813,-0.39720857,9.135797,3.8237305,3
32147237276719,-0.34456646,9.116654,3.8237305,3
32147239655573,-0.27756742,9.140582,3.818945,3
32147242034428,-0.23928227,9.126225,3.8237305,3
32147244413282,-0.2009971,9.111869,3.8285162,3
32147246792188,-0.14356937,9.111869,3.8237305,3
32147249171042,-0.11485548,9.102298,3.8237305,3
32147251549896,-0.08135597,9.107083,3.8285162,3
32147253928750,-0.09571291,9.08794,3.818945,3
32147256307657,-0.10049855,9.107083,3.7998023,3
32147258686511,-0.086141616,9.116654,3.7806597,3
32147261065365,-0.1052842,9.116654,3.7950168,3
32147263444219,-0.13878371,9.116654,3.8141594,3
32147265823073,-0.16749759,9.092726,3.8572302,3
32147268201980,-0.19142582,9.092726,3.8380876,3
32147270580834,-0.23449662,9.097511,3.8333018,3
32147272959688,-0.2727818,9.097511,3.8333018,3
32147275338542,-0.28713873,9.083155,3.842873,3
32147277717448,-0.3062813,9.08794,3.8620157,3
32147280096303,-0.33020952,9.102298,3.8811584,3
32147282475157,-0.31585258,9.092726,3.885944,3
32147284854011,-0.31585258,9.111869,3.8668015,3
32147287232917,-0.29192436,9.12144,3.842873,3
32147289611771,-0.29671,9.092726,3.8141594,3
32147291990625,-0.30149564,9.097511,3.804588,3
32147294369480,-0.28713873,9.111869,3.7950168,3
32147296748386,-0.27756742,9.12144,3.8237305,3
32147299127240,-0.2440679,9.116654,3.8237305,3
32147301506094,-0.2632105,9.092726,3.7998023,3
32147303884948,-0.26799613,9.111869,3.7710886,3
32147306263803,-0.23449662,9.12144,3.7710886,3
32147308642709,-0.23449662,9.126225,3.7663028,3
32147311021563,-0.2440679,9.126225,3.7998023,3
32147313400417,-0.22013968,9.12144,3.7854455,3
32147315779271,-0.22492532,9.12144,3.7854455,3
32147318158178,-0.22971097,9.111869,3.7710886,3
32147320537032,-0.25842485,9.102298,3.723232,3
32147322915886,-0.29192436,9.111869,3.7040894,3
32147325294740,-0.32542387,9.111869,3.6993039,3
32147327673646,-0.3589234,9.107083,3.737589,3
32147330052500,-0.38285163,9.111869,3.7567315,3
32147332431355,-0.44027936,9.097511,3.751946,3
32147334810209,-0.4642076,9.111869,3.7567315,3
32147337189063,-0.5072784,9.102298,3.7328033,3
32147339567917,-0.5312066,9.102298,3.7423747,3
32147341946823,-0.526421,9.107083,3.7615173,3
32147344325625,-0.5455636,9.08794,3.790231,3
32147346704532,-0.51206404,9.064013,3.7806597,3
32147349083438,-0.526421,9.0544405,3.7998023,3
32147351462292,-0.5168497,9.073584,3.7998023,3
32147353841146,-0.4881358,9.083155,3.7998023,3
32147356220000,-0.47377887,9.064013,3.7758741,3
32147358598907,-0.44506502,9.068798,3.7663028,3
32147360977761,-0.44985065,9.078369,3.7854455,3
32147363356615,-0.44506502,9.083155,3.804588,3
32147365735469,-0.44027936,9.107083,3.8333018,3
32147368114323,-0.44027936,9.092726,3.842873,3
32147370493230,-0.43070808,9.107083,3.8285162,3
32147372872084,-0.42592242,9.097511,3.7998023,3
32147375250938,-0.4354937,9.092726,3.790231,3
32147377629792,-0.42592242,9.12144,3.7854455,3
32147380008698,-0.4354937,9.083155,3.8141594,3
32147382387553,-0.44027936,9.092726,3.8237305,3
32147384766407,-0.4546363,9.092726,3.818945,3
32147387145261,-0.47856453,9.08794,3.7854455,3
32147389524167,-0.4642076,9.083155,3.7663028,3
32147391903021,-0.4546363,9.097511,3.737589,3
32147394281875,-0.4546363,9.102298,3.7615173,3
32147396660730,-0.43070808,9.12144,3.7950168,3
32147399039584,-0.41156548,9.126225,3.790231,3
32147401418490,-0.37806597,9.107083,3.790231,3
32147403797344,-0.3493521,9.126225,3.7710886,3
32147406176198,-0.30149564,9.126225,3.7567315,3
32147408555053,-0.2727818,9.126225,3.7663028,3
32147410933959,-0.23928227,9.12144,3.7710886,3
32147413312761,-0.19142582,9.102298,3.7854455,3
32147415691667,-0.16749759,9.08794,3.7950168,3
32147418070521,-0.148355,9.111869,3.8093736,3
32147420449428,-0.148355,9.08794,3.804588,3
32147422828282,-0.13399807,9.097511,3.7854455,3
32147425207136,-0.15314065,9.068798,3.7710886,3
32147427585990,-0.16749759,9.073584,3.790231,3
32147429964896,-0.2009971,9.064013,3.804588,3
32147432343750,-0.22492532,9.073584,3.7950168,3
32147434722605,-0.29671,9.092726,3.804588,3
32147437101459,-0.3493521,9.092726,3.7950168,3
32147439480313,-0.3924229,9.116654,3.7854455,3
32147441859219,-0.4354937,9.107083,3.7758741,3
32147444238021,-0.4546363,9.097511,3.7710886,3
32147446616928,-0.4833502,9.08794,3.790231,3
32147448995782,-0.47856453,9.08794,3.818945,3
32147451374688,-0.4642076,9.111869,3.7950168,3
32147453753542,-0.4642076,9.092726,3.7758741,3
32147456132396,-0.42592242,9.111869,3.7710886,3
32147458511250,-0.3924229,9.135797,3.7710886,3
32147460890105,-0.34456646,9.12144,3.7806597,3
32147463269011,-0.31585258,9.102298,3.7710886,3
32147465647865,-0.26799613,9.097511,3.7854455,3
32147468026719,-0.20578274,9.107083,3.790231,3
32147470405573,-0.17228323,9.107083,3.790231,3
32147472784480,-0.14356937,9.097511,3.7854455,3
32147475163334,-0.09571291,9.097511,3.7854455,3
32147477542188,-0.086141616,9.068798,3.790231,3
32147479921042,-0.07178468,9.064013,3.7854455,3
32147482299948,-0.062213387,9.064013,3.804588,3
32147484678803,-0.076570325,9.064013,3.7998023,3
32147487057657,-0.11006984,9.059227,3.7806597,3
32147489436511,-0.11485548,9.083155,3.790231,3
32147491815365,-0.13399807,9.116654,3.790231,3
32147494194271,-0.17228323,9.131011,3.7806597,3
32147496573125,-0.16749759,9.131011,3.804588,3
32147498951980,-0.17228323,9.140582,3.818945,3
32147501330834,-0.17706887,9.126225,3.8237305,3
32147503709740,-0.18664017,9.107083,3.8141594,3
32147506088594,-0.2009971,9.102298,3.8141594,3
32147508467448,-0.17706887,9.08794,3.8093736,3
32147510846303,-0.148355,9.092726,3.8237305,3
32147513225209,-0.124426775,9.092726,3.8620157,3
32147515604063,-0.09571291,9.078369,3.8668015,3
32147517982917,-0.062213387,9.083155,3.8572302,3
32147520361771,-0.038285162,9.08794,3.842873,3
32147522740625,-0.014356935,9.102298,3.8333018,3
32147525119532,-0.019142581,9.083155,3.8333018,3
32147527498386,-0.023928227,9.083155,3.8141594,3
32147529877240,-0.02871387,9.092726,3.7950168,3
32147532256094,-0.038285162,9.111869,3.7806597,3
32147534635000,-0.06699903,9.12144,3.7950168,3
32147537013855,-0.086141616,9.131011,3.7710886,3
32147539392709,-0.11006984,9.140582,3.7471602,3
32147541771563,-0.15792629,9.116654,3.7615173,3
32147544150469,-0.18185452,9.107083,3.7806597,3
32147546529323,-0.22492532,9.116654,3.7854455,3
32147548908178,-0.2727818,9.131011,3.790231,3
32147551287032,-0.31585258,9.12144,3.7950168,3
32147553665886,-0.32542387,9.145369,3.790231,3
32147556044792,-0.34456646,9.145369,3.7710886,3
32147558423646,-0.3397808,9.111869,3.7854455,3
32147560802500,-0.36370903,9.12144,3.7758741,3
32147563181355,-0.36370903,9.131011,3.7758741,3
32147565560261,-0.34456646,9.126225,3.7854455,3
32147567939115,-0.32063824,9.116654,3.7950168,3
32147570317969,-0.32063824,9.092726,3.7758741,3
32147572696823,-0.28713873,9.083155,3.7854455,3
32147575075730,-0.2632105,9.116654,3.7950168,3
32147577454584,-0.21535404,9.111869,3.7806597,3
32147579833438,-0.2105684,9.131011,3.790231,3
32147582212292,-0.20578274,9.140582,3.804588,3
32147584591198,-0.17228323,9.116654,3.8093736,3
32147586970053,-0.16271193,9.107083,3.7950168,3
32147589348907,-0.15792629,9.08794,3.7710886,3
32147591727761,-0.148355,9.092726,3.7615173,3
32147594106615,-0.13878371,9.097511,3.7663028,3
32147596485521,-0.15314065,9.126225,3.751946,3
32147598864375,-0.14356937,9.131011,3.7615173,3
32147601243230,-0.16271193,9.107083,3.7328033,3
32147603622084,-0.16271193,9.107083,3.7423747,3
32147606000886,-0.17706887,9.116654,3.7615173,3
32147608379844,-0.18185452,9.126225,3.7710886,3
32147610758698,-0.22013968,9.092726,3.7806597,3
32147613137553,-0.23449662,9.126225,3.7854455,3
32147615516459,-0.2536392,9.116654,3.790231,3
32147617895313,-0.27756742,9.102298,3.7950168,3
32147620274167,-0.28235307,9.097511,3.818945,3
32147622653021,-0.30149564,9.102298,3.8380876,3
32147625031875,-0.3062813,9.078369,3.8141594,3
32147627410782,-0.32063824,9.08794,3.8141594,3
32147629789636,-0.32063824,9.097511,3.8380876,3
32147632168490,-0.32542387,9.097511,3.8380876,3
32147634547344,-0.3062813,9.102298,3.8333018,3
32147636926250,-0.32063824,9.08794,3.804588,3
32147639305105,-0.3062813,9.092726,3.8093736,3
32147641683959,-0.28235307,9.107083,3.7998023,3
32147644062761,-0.28713873,9.131011,3.8237305,3
32147646441719,-0.2632105,9.116654,3.8093736,3
32147648820573,-0.22492532,9.12144,3.8285162,3
32147651199428,-0.22013968,9.107083,3.818945,3
32147653578282,-0.18664017,9.107083,3.8285162,3
32147655957136,-0.16749759,9.092726,3.8333018,3
32147658336042,-0.15314065,9.073584,3.8476589,3
32147660714896,-0.12921242,9.078369,3.8476589,3
32147663093750,-0.09571291,9.073584,3.842873,3
32147665472605,-0.07178468,9.064013,3.8141594,3
32147667851511,-0.038285162,9.08794,3.7998023,3
32147670230365,-0.023928227,9.078369,3.7950168,3
32147672609219,-0.02871387,9.068798,3.790231,3
32147674988073,0.0,9.092726,3.7806597,3
32147677366928,0.019142581,9.097511,3.7663028,3
32147679745834,0.033499517,9.097511,3.7854455,3
32147682124688,0.02871387,9.12144,3.7854455,3
32147684503542,0.009571291,9.140582,3.7950168,3
32147686882448,0.0047856453,9.135797,3.7950168,3
32147689261303,0.0047856453,9.107083,3.7854455,3
32147691640157,-0.023928227,9.126225,3.7806597,3
32147694019011,-0.062213387,9.140582,3.7567315,3
32147696397865,-0.09092726,9.135797,3.7663028,3
32147698776771,-0.11964113,9.131011,3.7567315,3
32147701155625,-0.15314065,9.131011,3.7663028,3
32147703534480,-0.16749759,9.102298,3.7663028,3
32147705913334,-0.2105684,9.111869,3.7567315,3
32147708292240,-0.26799613,9.135797,3.7854455,3
32147710671094,-0.2727818,9.131011,3.7998023,3
32147713049948,-0.2727818,9.102298,3.7950168,3
32147715428803,-0.3062813,9.08794,3.804588,3
32147717807657,-0.28713873,9.092726,3.7998023,3
32147720186563,-0.28713873,9.107083,3.818945,3
32147722565417,-0.29192436,9.116654,3.8141594,3
32147724944271,-0.29671,9.116654,3.818945,3
32147727323125,-0.29192436,9.107083,3.8285162,3
32147729702032,-0.2536392,9.097511,3.8141594,3
32147732080886,-0.22971097,9.083155,3.8285162,3
32147734459740,-0.18664017,9.08794,3.8141594,3
32147736838594,-0.16271193,9.107083,3.7950168,3
32147739217500,-0.15314065,9.08794,3.804588,3
32147741596355,-0.11006984,9.092726,3.804588,3
32147743975209,-0.10049855,9.092726,3.7710886,3
32147746354063,-0.1052842,9.12144,3.7615173,3
32147748732969,-0.11006984,9.140582,3.7423747,3
32147751111823,-0.11006984,9.126225,3.7280176,3
32147753490678,-0.11485548,9.145369,3.7471602,3
32147755869532,-0.124426775,9.131011,3.751946,3
32147758248438,-0.14356937,9.131011,3.7663028,3
32147760627292,-0.15792629,9.107083,3.7806597,3
32147763006146,-0.18185452,9.116654,3.7998023,3
32147765385000,-0.2009971,9.097511,3.8093736,3
32147767763855,-0.22013968,9.111869,3.7950168,3
32147770142761,-0.20578274,9.097511,3.7758741,3
32147772521615,-0.21535404,9.111869,3.7758741,3
32147774900469,-0.22013968,9.126225,3.7950168,3
32147777279323,-0.22971097,9.135797,3.7854455,3
32147779658178,-0.22971097,9.150154,3.7758741,3
32147782037084,-0.23449662,9.145369,3.7806597,3
32147784415938,-0.2105684,9.135797,3.7758741,3
32147786794792,-0.2105684,9.131011,3.790231,3
32147789173698,-0.17228323,9.12144,3.7950168,3
32147791552553,-0.15314065,9.111869,3.8141594,3
32147793931407,-0.16749759,9.107083,3.8237305,3
32147796310261,-0.148355,9.092726,3.8285162,3
32147798689115,-0.13399807,9.08794,3.8141594,3
32147801068021,-0.13399807,9.083155,3.8141594,3
32147803446875,-0.13878371,9.097511,3.7854455,3
32147805825730,-0.12921242,9.111869,3.7806597,3
32147808204584,-0.148355,9.102298,3.7758741,3
32147810583490,-0.14356937,9.111869,3.7710886,3
32147812962344,-0.15792629,9.08794,3.7950168,3
32147815341198,-0.15314065,9.102298,3.804588,3
32147817720053,-0.15314065,9.083155,3.7998023,3
32147820098959,-0.14356937,9.08794,3.7950168,3
32147822477813,-0.13878371,9.092726,3.7998023,3
32147824856667,-0.124426775,9.107083,3.7950168,3
32147827235521,-0.13399807,9.111869,3.790231,3
32147829614375,-0.15314065,9.102298,3.7950168,3
32147831993282,-0.12921242,9.083155,3.7950168,3
32147834372136,-0.11485548,9.078369,3.790231,3
32147836750990,-0.11964113,9.107083,3.7806597,3
32147839129844,-0.11964113,9.116654,3.7806597,3
32147841508750,-0.10049855,9.12144,3.7710886,3
32147843887605,-0.11964113,9.116654,3.7663028,3
32147846266459,-0.124426775,9.107083,3.7663028,3
32147848645313,-0.12921242,9.097511,3.7710886,3
32147851024219,-0.124426775,9.092726,3.7663028,3
32147853403073,-0.11964113,9.107083,3.7710886,3
32147855781928,-0.11006984,9.092726,3.7710886,3
32147858160782,-0.11006984,9.083155,3.7567315,3
32147860539636,-0.11964113,9.08794,3.751946,3
32147862918542,-0.15314065,9.102298,3.7615173,3
32147865297396,-0.148355,9.107083,3.7806597,3
32147867676250,-0.13878371,9.12144,3.790231,3
32147870055105,-0.148355,9.107083,3.790231,3
32147872434011,-0.14356937,9.111869,3.790231,3
32147874812865,-0.15314065,9.12144,3.7998023,3
32147877191719,-0.16271193,9.111869,3.8093736,3
32147879570573,-0.16271193,9.092726,3.7950168,3
32147881949480,-0.15792629,9.097511,3.7806597,3
32147884328334,-0.17706887,9.116654,3.7854455,3
32147886707188,-0.17228323,9.111869,3.7663028,3
32147889086042,-0.19142582,9.116654,3.7615173,3
32147891464896,-0.17228323,9.107083,3.7471602,3
32147893843803,-0.15314065,9.107083,3.7280176,3
32147896222657,-0.15792629,9.12144,3.737589,3
32147898601511,-0.15792629,9.12144,3.7423747,3
32147900980365,-0.11964113,9.116654,3.7567315,3
32147903359271,-0.11006984,9.116654,3.7806597,3
32147905738125,-0.124426775,9.111869,3.7950168,3
32147908116980,-0.08135597,9.12144,3.790231,3
32147910495834,-0.09092726,9.111869,3.790231,3
32147912874740,-0.09571291,9.116654,3.7950168,3
32147915253594,-0.086141616,9.12144,3.7854455,3
32147917632448,-0.07178468,9.102298,3.804588,3
32147920011303,-0.076570325,9.097511,3.790231,3
32147922390157,-0.09571291,9.107083,3.7854455,3
32147924769063,-0.086141616,9.135797,3.790231,3
32147927147917,-0.11485548,9.135797,3.7663028,3
32147929526771,-0.15314065,9.140582,3.7567315,3
32147931905625,-0.2009971,9.111869,3.7663028,3
32147934284532,-0.23928227,9.12144,3.7854455,3
32147936663386,-0.2632105,9.12144,3.790231,3
32147939042240,-0.28235307,9.116654,3.790231,3
32147941421094,-0.30149564,9.111869,3.7806597,3
32147943800000,-0.33020952,9.107083,3.751946,3
32147946178855,-0.32542387,9.111869,3.7328033,3
32147948557709,-0.33499518,9.102298,3.7280176,3
32147950936563,-0.3397808,9.126225,3.7280176,3
32147953315469,-0.35413775,9.135797,3.737589,3
32147955694323,-0.33499518,9.131011,3.7423747,3
32147958073178,-0.32063824,9.135797,3.7280176,3
32147960452032,-0.27756742,9.135797,3.7423747,3
32147962830886,-0.26799613,9.145369,3.7567315,3
32147965209792,-0.25842485,9.145369,3.7567315,3
32147967588646,-0.23449662,9.111869,3.7998023,3
32147969967500,-0.2105684,9.102298,3.8093736,3
32147972346355,-0.2105684,9.097511,3.8285162,3
32147974725261,-0.17228323,9.083155,3.842873,3
32147977104115,-0.16271193,9.078369,3.8285162,3
32147979482969,-0.18185452,9.107083,3.8333018,3
32147981861823,-0.18664017,9.078369,3.8237305,3
32147984240678,-0.18664017,9.068798,3.8285162,3
32147986619584,-0.20578274,9.097511,3.8620157,3
32147988998438,-0.22492532,9.102298,3.8572302,3
32147991377292,-0.23449662,9.092726,3.8237305,3
32147993756094,-0.28235307,9.102298,3.8285162,3
32147996135053,-0.31585258,9.107083,3.8093736,3
32147998513907,-0.3062813,9.083155,3.818945,3
32148000892761,-0.31585258,9.102298,3.7950168,3
32148003271615,-0.31106696,9.131011,3.7950168,3
32148005650521,-0.28713873,9.145369,3.7998023,3
32148008029375,-0.28235307,9.140582,3.7758741,3
32148010408230,-0.25842485,9.135797,3.7806597,3
32148012787084,-0.25842485,9.131011,3.7758741,3
32148015165990,-0.22013968,9.111869,3.7471602,3
32148017544844,-0.19142582,9.131011,3.737589,3
32148019923698,-0.16749759,9.135797,3.7328033,3
32148022302553,-0.13399807,9.140582,3.7423747,3
32148024681407,-0.11006984,9.116654,3.7328033,3
32148027060313,-0.09571291,9.092726,3.7471602,3
32148029439167,-0.08135597,9.12144,3.7423747,3
32148031818021,-0.076570325,9.135797,3.7615173,3
32148034196875,-0.09092726,9.111869,3.7615173,3
32148036575782,-0.12921242,9.12144,3.7854455,3
32148038954636,-0.17228323,9.12144,3.7758741,3
32148041333490,-0.2009971,9.126225,3.7806597,3
32148043712344,-0.23449662,9.135797,3.7950168,3
32148046091250,-0.28713873,9.15494,3.7806597,3
32148048470105,-0.33020952,9.145369,3.7950168,3
32148050848959,-0.3684947,9.140582,3.790231,3
32148053227813,-0.41156548,9.126225,3.7806597,3
32148055606667,-0.42592242,9.150154,3.7854455,3
32148057985573,-0.44506502,9.15494,3.7758741,3
32148060364428,-0.44506502,9.135797,3.7854455,3
32148062743282,-0.40677986,9.145369,3.7950168,3
32148065122136,-0.36370903,9.140582,3.7950168,3
32148067501042,-0.34456646,9.12144,3.790231,3
32148069879896,-0.33020952,9.135797,3.7710886,3
32148072258750,-0.29671,9.126225,3.7854455,3
32148074637605,-0.23928227,9.12144,3.7998023,3
32148077016511,-0.19142582,9.102298,3.790231,3
32148079395365,-0.14356937,9.083155,3.7615173,3
32148081774219,-0.09571291,9.092726,3.751946,3
32148084153073,-0.10049855,9.083155,3.7471602,3
32148086531980,-0.09571291,9.097511,3.7328033,3
32148088910834,-0.09571291,9.097511,3.723232,3
32148091289688,-0.09092726,9.083155,3.737589,3
32148093668542,-0.11964113,9.092726,3.7567315,3
32148096047448,-0.15792629,9.111869,3.7710886,3
32148098426303,-0.22013968,9.111869,3.7663028,3
32148100805157,-0.27756742,9.083155,3.7854455,3
32148103184011,-0.33499518,9.083155,3.7854455,3
32148105562865,-0.37806597,9.068798,3.7758741,3
32148107941771,-0.40677986,9.083155,3.790231,3
32148110320625,-0.44506502,9.092726,3.8093736,3
32148112699480,-0.4642076,9.107083,3.804588,3
32148115078334,-0.5072784,9.107083,3.7950168,3
32148117457240,-0.526421,9.092726,3.790231,3
32148119836094,-0.5168497,9.116654,3.7854455,3
32148122214948,-0.4833502,9.12144,3.7663028,3
32148124593803,-0.46899325,9.116654,3.7471602,3
32148126972709,-0.42592242,9.12144,3.751946,3
32148129351511,-0.38285163,9.12144,3.7615173,3
32148131730417,-0.34456646,9.092726,3.7710886,3
32148134109271,-0.29671,9.116654,3.790231,3
32148136488178,-0.2632105,9.083155,3.7710886,3
32148138867032,-0.20578274,9.12144,3.7854455,3
32148141245886,-0.17706887,9.116654,3.7663028,3
32148143624740,-0.14356937,9.107083,3.7854455,3
32148146003594,-0.148355,9.116654,3.8093736,3
32148148382448,-0.17706887,9.092726,3.790231,3
32148150761355,-0.19621146,9.083155,3.8141594,3
32148153140209,-0.22492532,9.116654,3.8093736,3
32148155519063,-0.2536392,9.107083,3.7806597,3
32148157897969,-0.3062813,9.111869,3.7710886,3
32148160276823,-0.34456646,9.126225,3.7806597,3
32148162655678,-0.35413775,9.12144,3.7998023,3
32148165034532,-0.3684947,9.126225,3.818945,3
32148167413386,-0.4019942,9.12144,3.818945,3
32148169792292,-0.41156548,9.12144,3.818945,3
32148172171146,-0.40677986,9.107083,3.8093736,3
32148174550000,-0.40677986,9.12144,3.7950168,3
32148176928855,-0.40677986,9.116654,3.7758741,3
32148179307761,-0.37328035,9.12144,3.7998023,3
32148181686615,-0.3397808,9.12144,3.790231,3
32148184065469,-0.29192436,9.116654,3.804588,3
32148186444323,-0.29671,9.111869,3.790231,3
32148188823230,-0.28235307,9.107083,3.7567315,3
32148191202084,-0.2536392,9.102298,3.7423747,3
32148193580938,-0.22971097,9.097511,3.7471602,3
32148195959792,-0.2440679,9.12144,3.7567315,3
32148198338698,-0.23449662,9.116654,3.7710886,3
32148200717553,-0.23928227,9.131011,3.790231,3
32148203096407,-0.2440679,9.131011,3.7950168,3
32148205475261,-0.2727818,9.102298,3.8141594,3
32148207854115,-0.28235307,9.092726,3.804588,3
32148210233021,-0.29671,9.08794,3.8093736,3
32148212611875,-0.30149564,9.08794,3.804588,3
32148214990730,-0.31106696,9.102298,3.7950168,3
32148217369584,-0.34456646,9.097511,3.7998023,3
32148219748490,-0.36370903,9.116654,3.7998023,3
32148222127344,-0.39720857,9.135797,3.8093736,3
32148224506198,-0.42592242,9.126225,3.7950168,3
32148226885053,-0.4211368,9.12144,3.7710886,3
32148229263959,-0.4211368,9.116654,3.7758741,3
32148231642813,-0.41635114,9.102298,3.7663028,3
32148234021667,-0.43070808,9.116654,3.7806597,3
32148236400521,-0.43070808,9.116654,3.7758741,3
32148238779375,-0.40677986,9.12144,3.7615173,3
32148241158282,-0.38285163,9.111869,3.7758741,3
32148243537136,-0.38285163,9.097511,3.7710886,3
32148245915990,-0.38285163,9.083155,3.7806597,3
32148248294844,-0.38285163,9.083155,3.7854455,3
32148250673750,-0.3924229,9.064013,3.7854455,3
32148253052605,-0.4019942,9.092726,3.790231,3
32148255431459,-0.39720857,9.102298,3.7806597,3
32148257810313,-0.40677986,9.083155,3.7710886,3
32148260189219,-0.42592242,9.116654,3.7710886,3
32148262568073,-0.4354937,9.12144,3.751946,3
32148264946928,-0.41156548,9.116654,3.7615173,3
32148267325782,-0.4211368,9.12144,3.790231,3
32148269704688,-0.40677986,9.135797,3.804588,3
32148272083542,-0.41635114,9.116654,3.7950168,3
32148274462396,-0.40677986,9.12144,3.804588,3
32148276841250,-0.38285163,9.111869,3.8093736,3
32148279220157,-0.37806597,9.107083,3.8093736,3
32148281599011,-0.35413775,9.08794,3.8237305,3
32148283977865,-0.32063824,9.097511,3.8093736,3
32148286356719,-0.33499518,9.116654,3.8141594,3
32148288735573,-0.3062813,9.107083,3.8141594,3
32148291114428,-0.27756742,9.111869,3.8093736,3
32148293493334,-0.28235307,9.126225,3.790231,3
32148295872136,-0.26799613,9.107083,3.7854455,3
32148298251042,-0.2536392,9.107083,3.790231,3
32148300629948,-0.24885355,9.116654,3.7998023,3
32148303008803,-0.25842485,9.097511,3.8093736,3
32148305387657,-0.26799613,9.102298,3.818945,3
32148307766511,-0.29192436,9.092726,3.790231,3
32148310145417,-0.28235307,9.116654,3.7758741,3
32148312524271,-0.3062813,9.116654,3.804588,3
32148314903125,-0.32542387,9.107083,3.7950168,3
32148317281980,-0.31585258,9.150154,3.7950168,3
32148319660834,-0.33499518,9.135797,3.7806597,3
32148322039740,-0.34456646,9.12144,3.7710886,3
32148324418594,-0.35413775,9.111869,3.7710886,3
32148326797448,-0.34456646,9.092726,3.7710886,3
32148329176303,-0.3493521,9.097511,3.7663028,3
32148331555209,-0.32542387,9.102298,3.7615173,3
32148333934063,-0.31585258,9.092726,3.7567315,3
32148336312865,-0.33499518,9.092726,3.751946,3
32148338691771,-0.33499518,9.102298,3.7567315,3
32148341070678,-0.33499518,9.126225,3.7710886,3
32148343449532,-0.3397808,9.116654,3.7471602,3
32148345828386,-0.3397808,9.12144,3.7423747,3
32148348207240,-0.33499518,9.12144,3.7423747,3
32148350586146,-0.38285163,9.111869,3.7423747,3
32148352965000,-0.39720857,9.111869,3.7567315,3
32148355343855,-0.39720857,9.116654,3.7663028,3
32148357722709,-0.4354937,9.107083,3.7710886,3
32148360101563,-0.46899325,9.111869,3.7950168,3
32148362480469,-0.4833502,9.092726,3.818945,3
32148364859323,-0.5024927,9.068798,3.8524444,3
32148367238178,-0.4977071,9.078369,3.8333018,3
32148369617032,-0.4977071,9.111869,3.8285162,3
32148371995938,-0.4881358,9.12144,3.8285162,3
32148374374792,-0.4642076,9.111869,3.818945,3
32148376753646,-0.44027936,9.102298,3.8237305,3
32148379132500,-0.40677986,9.111869,3.7998023,3
32148381511407,-0.3684947,9.107083,3.804588,3
32148383890261,-0.32063824,9.111869,3.804588,3
32148386269115,-0.2440679,9.102298,3.7998023,3
32148388647969,-0.22013968,9.102298,3.7950168,3
32148391026875,-0.19142582,9.107083,3.7710886,3
32148393405730,-0.17228323,9.131011,3.7710886,3
32148395784584,-0.148355,9.111869,3.7854455,3
32148398163438,-0.148355,9.116654,3.7950168,3
32148400542292,-0.15314065,9.116654,3.8141594,3
32148402921198,-0.17228323,9.116654,3.804588,3
32148405300053,-0.19621146,9.12144,3.7710886,3
32148407678907,-0.2632105,9.12144,3.7710886,3
32148410057761,-0.29671,9.111869,3.7854455,3
32148412436615,-0.34456646,9.111869,3.7806597,3
32148414815521,-0.38285163,9.08794,3.7998023,3
32148417194375,-0.44027936,9.078369,3.804588,3
32148419573230,-0.4977071,9.126225,3.7998023,3
32148421952136,-0.526421,9.097511,3.790231,3
32148424330990,-0.55513483,9.116654,3.804588,3
32148426709844,-0.5599205,9.126225,3.8237305,3
32148429088698,-0.55513483,9.107083,3.8237305,3
32148431467553,-0.5455636,9.111869,3.8237305,3
32148433846459,-0.5168497,9.111869,3.8093736,3
32148436225313,-0.4833502,9.116654,3.790231,3
32148438604167,-0.41156548,9.097511,3.7710886,3
32148440983021,-0.3684947,9.116654,3.7854455,3
32148443361928,-0.30149564,9.126225,3.790231,3
32148445740782,-0.2632105,9.126225,3.7710886,3
32148448119636,-0.2009971,9.12144,3.751946,3
32148450498490,-0.14356937,9.12144,3.737589,3
32148452877344,-0.11485548,9.126225,3.7423747,3
32148455256250,-0.08135597,9.12144,3.737589,3
32148457635105,-0.086141616,9.092726,3.737589,3
32148460013959,-0.06699903,9.126225,3.7663028,3
32148462392813,-0.09092726,9.12144,3.7663028,3
32148464771719,-0.09092726,9.111869,3.7615173,3
32148467150573,-0.11006984,9.111869,3.7710886,3
32148469529428,-0.16271193,9.111869,3.7567315,3
32148471908282,-0.2105684,9.102298,3.7758741,3
32148474287188,-0.2632105,9.107083,3.7854455,3
32148476666042,-0.30149564,9.102298,3.7663028,3
32148479044896,-0.34456646,9.111869,3.7663028,3
32148481423750,-0.37328035,9.111869,3.7710886,3
32148483802657,-0.39720857,9.107083,3.7806597,3
32148486181511,-0.4211368,9.111869,3.7806597,3
32148488560365,-0.43070808,9.12144,3.804588,3
32148490939219,-0.4546363,9.131011,3.790231,3
32148493318125,-0.4354937,9.102298,3.7854455,3
32148495696980,-0.42592242,9.097511,3.804588,3
32148498075834,-0.39720857,9.135797,3.7950168,3
32148500454688,-0.36370903,9.145369,3.790231,3
32148502833594,-0.33020952,9.111869,3.7950168,3
32148505212448,-0.28235307,9.097511,3.7710886,3
32148507591303,-0.2632105,9.107083,3.7758741,3
32148509970157,-0.24885355,9.102298,3.7615173,3
32148512349011,-0.22971097,9.12144,3.7663028,3
32148514727917,-0.20578274,9.140582,3.7567315,3
32148517106771,-0.2105684,9.150154,3.7663028,3
32148519485625,-0.22971097,9.126225,3.7758741,3
32148521864480,-0.23449662,9.107083,3.7806597,3
32148524243386,-0.24885355,9.102298,3.7854455,3
32148526622240,-0.25842485,9.097511,3.7806597,3
32148529001094,-0.28713873,9.102298,3.7710886,3
32148531379948,-0.33020952,9.111869,3.7758741,3
32148533758803,-0.38285163,9.116654,3.7950168,3
32148536137709,-0.38763726,9.116654,3.7758741,3
32148538516563,-0.39720857,9.126225,3.7806597,3
32148540895417,-0.4019942,9.107083,3.7998023,3
32148543274323,-0.4211368,9.111869,3.7998023,3
32148545653178,-0.42592242,9.131011,3.790231,3
32148548032032,-0.41156548,9.131011,3.7806597,3
32148550410886,-0.38763726,9.131011,3.790231,3
32148552789740,-0.3589234,9.111869,3.7854455,3
32148555168646,-0.35413775,9.116654,3.8093736,3
32148557547500,-0.31585258,9.111869,3.818945,3
32148559926355,-0.29671,9.111869,3.8093736,3
32148562305209,-0.2727818,9.12144,3.804588,3
32148564684115,-0.26799613,9.126225,3.8093736,3
32148567062969,-0.25842485,9.102298,3.7950168,3
32148569441823,-0.25842485,9.12144,3.804588,3
32148571820678,-0.25842485,9.12144,3.7806597,3
32148574199532,-0.28235307,9.111869,3.7758741,3
32148576578438,-0.32542387,9.107083,3.7758741,3
32148578957292,-0.3397808,9.111869,3.7758741,3
32148581336146,-0.3684947,9.097511,3.7710886,3
32148583714948,-0.4211368,9.111869,3.7950168,3
32148586093907,-0.44506502,9.116654,3.804588,3
32148588472761,-0.47856453,9.111869,3.7998023,3
32148590851615,-0.49292147,9.111869,3.804588,3
32148593230469,-0.4977071,9.092726,3.818945,3
32148595609375,-0.5168497,9.102298,3.8285162,3
32148597988230,-0.52163535,9.097511,3.8237305,3
32148600367084,-0.53599226,9.111869,3.8237305,3
32148602745938,-0.5168497,9.102298,3.804588,3
32148605124844,-0.4977071,9.073584,3.7758741,3
32148607503698,-0.47856453,9.073584,3.7854455,3
32148609882553,-0.43070808,9.107083,3.7806597,3
32148612261407,-0.3924229,9.126225,3.7710886,3
32148614640261,-0.3589234,9.116654,3.7567315,3
32148617019167,-0.31585258,9.116654,3.7471602,3
32148619398021,-0.28713873,9.107083,3.7615173,3
32148621776875,-0.25842485,9.131011,3.7663028,3
32148624155730,-0.20578274,9.126225,3.7663028,3
32148626534636,-0.17706887,9.12144,3.751946,3
32148628913490,-0.15792629,9.131011,3.7663028,3
32148631292344,-0.16271193,9.131011,3.790231,3
32148633671198,-0.14356937,9.135797,3.7758741,3
32148636050105,-0.16271193,9.116654,3.7806597,3
32148638428959,-0.19142582,9.12144,3.7615173,3
32148640807813,-0.2105684,9.116654,3.7758741,3
32148643186667,-0.2440679,9.097511,3.7615173,3
32148645565521,-0.2632105,9.097511,3.7710886,3
32148647944428,-0.28235307,9.092726,3.7806597,3
32148650323282,-0.33499518,9.111869,3.7806597,3
32148652702136,-0.35413775,9.107083,3.7663028,3
32148655081042,-0.38285163,9.083155,3.7854455,3
32148657459896,-0.41635114,9.097511,3.7806597,3
32148659838750,-0.41156548,9.116654,3.7758741,3
32148662217605,-0.41156548,9.116654,3.7854455,3
32148664596459,-0.41635114,9.097511,3.7758741,3
32148666975365,-0.4019942,9.107083,3.7758741,3
32148669354219,-0.4019942,9.102298,3.7710886,3
32148671733073,-0.36370903,9.097511,3.7663028,3
32148674111928,-0.3684947,9.102298,3.7806597,3
32148676490834,-0.37328035,9.092726,3.7854455,3
32148678869688,-0.32063824,9.097511,3.7710886,3
32148681248542,-0.3062813,9.078369,3.7663028,3
32148683627396,-0.28713873,9.097511,3.7710886,3
32148686006250,-0.26799613,9.126225,3.7854455,3
32148688385157,-0.28235307,9.126225,3.7806597,3
32148690764011,-0.28235307,9.140582,3.7758741,3
32148693142865,-0.2727818,9.135797,3.790231,3
32148695521719,-0.24885355,9.097511,3.7950168,3
32148697900625,-0.27756742,9.083155,3.8093736,3
32148700279480,-0.29671,9.102298,3.790231,3
32148702658334,-0.30149564,9.107083,3.7806597,3
32148705037188,-0.31106696,9.107083,3.790231,3
32148707416094,-0.3397808,9.107083,3.7806597,3
32148709794948,-0.37328035,9.092726,3.7854455,3
32148712173698,-0.38285163,9.073584,3.7998023,3
32148714552657,-0.38285163,9.08794,3.790231,3
32148716931563,-0.38285163,9.097511,3.804588,3
32148719310417,-0.38763726,9.111869,3.8141594,3
32148721689271,-0.38285163,9.102298,3.7998023,3
32148724068125,-0.37328035,9.12144,3.804588,3
32148726447032,-0.3589234,9.12144,3.7806597,3
32148728825834,-0.3684947,9.126225,3.7854455,3
32148731204740,-0.32063824,9.135797,3.790231,3
32148733583594,-0.2727818,9.126225,3.790231,3
32148735962448,-0.26799613,9.116654,3.7998023,3
32148738341355,-0.27756742,9.126225,3.7998023,3
32148740720209,-0.2536392,9.131011,3.8093736,3
32148743099063,-0.2536392,9.126225,3.7950168,3
32148745477917,-0.2727818,9.107083,3.790231,3
32148747856823,-0.28235307,9.111869,3.7663028,3
32148750235678,-0.28235307,9.116654,3.7567315,3
32148752614532,-0.28713873,9.097511,3.7615173,3
32148754993386,-0.31106696,9.097511,3.7615173,3
32148757372292,-0.3493521,9.12144,3.7806597,3
32148759751146,-0.37328035,9.131011,3.7710886,3
32148762130000,-0.38285163,9.111869,3.7710886,3
32148764508855,-0.41635114,9.107083,3.7854455,3
32148766887709,-0.40677986,9.116654,3.790231,3
32148769266615,-0.42592242,9.08794,3.7806597,3
32148771645469,-0.41635114,9.08794,3.7806597,3
32148774024323,-0.41635114,9.097511,3.7758741,3
32148776403178,-0.41635114,9.107083,3.7854455,3
32148778782084,-0.39720857,9.116654,3.7615173,3
32148781160938,-0.37806597,9.135797,3.7806597,3
32148783539792,-0.37328035,9.116654,3.7998023,3
32148785918646,-0.37328035,9.116654,3.7998023,3
32148788297553,-0.3397808,9.102298,3.818945,3
32148790676407,-0.32063824,9.131011,3.8141594,3
32148793055261,-0.33499518,9.145369,3.8093736,3
32148795434115,-0.29192436,9.116654,3.7998023,3
32148797813021,-0.3062813,9.116654,3.804588,3
32148800191875,-0.30149564,9.111869,3.790231,3
32148802570730,-0.3062813,9.107083,3.7998023,3
32148804949584,-0.31585258,9.116654,3.7950168,3
32148807328438,-0.3493521,9.102298,3.7950168,3
32148809707344,-0.37328035,9.068798,3.7854455,3
32148812086198,-0.4019942,9.092726,3.804588,3
32148814465053,-0.4019942,9.116654,3.818945,3
32148816843907,-0.44027936,9.097511,3.804588,3
32148819222813,-0.4642076,9.08794,3.7950168,3
32148821601667,-0.4546363,9.097511,3.7998023,3
32148823980521,-0.4546363,9.111869,3.7854455,3
32148826359375,-0.45942193,9.12144,3.790231,3
32148828738282,-0.4642076,9.126225,3.7806597,3
32148831117136,-0.44985065,9.116654,3.7806597,3
32148833495990,-0.41635114,9.12144,3.7758741,3
32148835874844,-0.41156548,9.111869,3.7806597,3
32148838253750,-0.37328035,9.150154,3.7758741,3
32148840632605,-0.35413775,9.140582,3.790231,3
32148843011459,-0.32542387,9.135797,3.7998023,3
32148845390313,-0.3062813,9.097511,3.8093736,3
32148847769167,-0.32063824,9.107083,3.804588,3
32148850148073,-0.29671,9.102298,3.804588,3
32148852526928,-0.27756742,9.097511,3.790231,3
32148854905782,-0.2536392,9.116654,3.790231,3
32148857284636,-0.2632105,9.111869,3.7806597,3
32148859663542,-0.2536392,9.102298,3.7710886,3
32148862042396,-0.28713873,9.126225,3.7567315,3
32148864421250,-0.30149564,9.111869,3.7615173,3
32148866800105,-0.3062813,9.097511,3.7615173,3
32148869179011,-0.31585258,9.12144,3.7710886,3
32148871557865,-0.32063824,9.107083,3.7567315,3
32148873936719,-0.3493521,9.097511,3.7710886,3
32148876315573,-0.38285163,9.107083,3.790231,3
32148878694428,-0.37328035,9.12144,3.7854455,3
32148881073334,-0.36370903,9.12144,3.7854455,3
32148883452188,-0.37328035,9.111869,3.790231,3
32148885831042,-0.37328035,9.097511,3.7950168,3
32148888209896,-0.37328035,9.097511,3.7806597,3
32148890588803,-0.3493521,9.116654,3.7710886,3
32148892967657,-0.32542387,9.111869,3.7854455,3
32148895346511,-0.3062813,9.111869,3.7663028,3
32148897725365,-0.28713873,9.111869,3.7615173,3
32148900104271,-0.3062813,9.097511,3.7710886,3
32148902483125,-0.29192436,9.097511,3.7710886,3
32148904861980,-0.28235307,9.102298,3.7806597,3
32148907240834,-0.3062813,9.083155,3.7998023,3
32148909619688,-0.31585258,9.068798,3.790231,3
32148911998594,-0.3062813,9.083155,3.7567315,3
32148914377448,-0.32063824,9.092726,3.7567315,3
32148916756303,-0.33020952,9.107083,3.751946,3
32148919135157,-0.34456646,9.107083,3.7710886,3
32148921514063,-0.33020952,9.126225,3.7806597,3
32148923892917,-0.3397808,9.12144,3.7758741,3
32148926271771,-0.32542387,9.135797,3.7854455,3
32148928650625,-0.34456646,9.145369,3.7806597,3
32148931029532,-0.35413775,9.135797,3.7806597,3
32148933408386,-0.36370903,9.131011,3.790231,3
32148935787240,-0.36370903,9.126225,3.7998023,3
32148938166094,-0.3684947,9.12144,3.8237305,3
32148940545000,-0.34456646,9.135797,3.8380876,3
32148942923855,-0.3397808,9.140582,3.818945,3
32148945302709,-0.3397808,9.107083,3.818945,3
32148947681563,-0.32542387,9.102298,3.8141594,3
32148950060417,-0.33020952,9.097511,3.8285162,3
32148952439323,-0.32542387,9.08794,3.8333018,3
32148954818178,-0.33499518,9.102298,3.8285162,3
32148957197032,-0.35413775,9.078369,3.8333018,3
32148959575886,-0.37806597,9.092726,3.8141594,3
32148961955157,-0.37328035,9.097511,3.804588,3
32148964333646,-0.38285163,9.092726,3.8093736,3
32148966712500,-0.39720857,9.102298,3.7950168,3
32148969091355,-0.39720857,9.092726,3.7854455,3
32148971470261,-0.40677986,9.107083,3.7615173,3
32148973849115,-0.40677986,9.107083,3.7663028,3
32148976227969,-0.3924229,9.102298,3.7663028,3
32148978606823,-0.42592242,9.111869,3.7806597,3
32148980985730,-0.41156548,9.111869,3.7806597,3
32148983364584,-0.39720857,9.126225,3.7854455,3
32148985743438,-0.36370903,9.12144,3.7710886,3
32148988122292,-0.3397808,9.145369,3.7710886,3
32148990501146,-0.29192436,9.135797,3.7471602,3
32148992880053,-0.25842485,9.145369,3.7663028,3
32148995258907,-0.24885355,9.140582,3.7854455,3
32148997637761,-0.2440679,9.126225,3.7758741,3
32149000016615,-0.22492532,9.150154,3.7806597,3
32149002395521,-0.17706887,9.131011,3.7998023,3
32149004774375,-0.17706887,9.092726,3.7758741,3
32149007153230,-0.16749759,9.092726,3.7710886,3
32149009532084,-0.17706887,9.111869,3.7710886,3
32149011910990,-0.19142582,9.092726,3.7710886,3
32149014289792,-0.19621146,9.083155,3.7950168,3
32149016668698,-0.21535404,9.08794,3.7950168,3
32149019047553,-0.23928227,9.092726,3.790231,3
32149021426407,-0.28713873,9.08794,3.804588,3
32149023805313,-0.33020952,9.083155,3.7950168,3
32149026184167,-0.34456646,9.092726,3.8141594,3
32149028563021,-0.37328035,9.097511,3.8093736,3
32149030941875,-0.38285163,9.111869,3.7998023,3
32149033320782,-0.41156548,9.107083,3.790231,3
32149035699636,-0.41156548,9.116654,3.7806597,3
32149038078490,-0.4211368,9.12144,3.7567315,3
32149040457344,-0.4211368,9.107083,3.7567315,3
32149042836250,-0.40677986,9.092726,3.751946,3
32149045215105,-0.38763726,9.107083,3.7710886,3
32149047593959,-0.3589234,9.150154,3.7615173,3
32149049972813,-0.34456646,9.164511,3.7663028,3
32149052351719,-0.31106696,9.131011,3.7567315,3
32149054730573,-0.27756742,9.116654,3.7567315,3
32149057109428,-0.2632105,9.131011,3.7663028,3
32149059488282,-0.2440679,9.12144,3.7615173,3
32149061867136,-0.2105684,9.126225,3.7663028,3
32149064246042,-0.21535404,9.131011,3.804588,3
32149066624896,-0.21535404,9.126225,3.8093736,3
32149069003750,-0.22492532,9.102298,3.804588,3
32149071382605,-0.2105684,9.102298,3.818945,3
32149073761511,-0.22013968,9.126225,3.8141594,3
32149076140365,-0.21535404,9.12144,3.8141594,3
32149078519219,-0.22492532,9.092726,3.8237305,3
32149080898073,-0.26799613,9.092726,3.8333018,3
32149083276928,-0.27756742,9.107083,3.8285162,3
32149085655834,-0.29192436,9.111869,3.8237305,3
32149088034688,-0.31585258,9.08794,3.8093736,3
32149090413542,-0.31106696,9.097511,3.790231,3
32149092792396,-0.3062813,9.111869,3.8141594,3
32149095171303,-0.29192436,9.111869,3.8237305,3
32149097550157,-0.28713873,9.126225,3.8237305,3
32149099929011,-0.25842485,9.111869,3.8141594,3
32149102307865,-0.23928227,9.111869,3.818945,3
32149104686771,-0.2105684,9.107083,3.804588,3
32149107065625,-0.20578274,9.097511,3.804588,3
32149109444480,-0.19621146,9.102298,3.804588,3
32149111823334,-0.18664017,9.102298,3.7998023,3
32149114202240,-0.17228323,9.116654,3.7854455,3
32149116581094,-0.16271193,9.097511,3.7854455,3
32149118959948,-0.17228323,9.116654,3.790231,3
32149121338803,-0.18664017,9.111869,3.7806597,3
32149123717709,-0.21535404,9.12144,3.7998023,3
32149126096563,-0.2105684,9.102298,3.7758741,3
32149128475417,-0.2632105,9.12144,3.7567315,3
32149130854271,-0.28235307,9.135797,3.751946,3
32149133233125,-0.31106696,9.107083,3.7806597,3
32149135612032,-0.32063824,9.08794,3.7806597,3
32149137990886,-0.33020952,9.107083,3.7663028,3
32149140369740,-0.34456646,9.131011,3.7758741,3
32149142748594,-0.3589234,9.12144,3.7806597,3
32149145127500,-0.35413775,9.102298,3.7806597,3
32149147506355,-0.33020952,9.083155,3.7663028,3
32149149885209,-0.29192436,9.078369,3.7806597,3
32149152264011,-0.25842485,9.08794,3.7615173,3
32149154642969,-0.22492532,9.092726,3.7471602,3
32149157021823,-0.22013968,9.097511,3.751946,3
32149159400678,-0.2009971,9.097511,3.737589,3
32149161779532,-0.17706887,9.107083,3.737589,3
32149164158438,-0.15792629,9.102298,3.7280176,3
32149166537292,-0.13399807,9.102298,3.751946,3
32149168916146,-0.13878371,9.08794,3.7615173,3
32149171295000,-0.12921242,9.083155,3.751946,3
32149173673907,-0.14356937,9.097511,3.7615173,3
32149176052761,-0.15792629,9.102298,3.7710886,3
32149178431615,-0.16749759,9.078369,3.7710886,3
32149180810469,-0.2105684,9.092726,3.7710886,3
32149183189323,-0.23449662,9.111869,3.7806597,3
32149185568230,-0.2727818,9.111869,3.7806597,3
32149187947084,-0.30149564,9.107083,3.7663028,3
32149190325938,-0.33499518,9.116654,3.751946,3
32149192704740,-0.35413775,9.102298,3.7471602,3
32149195083698,-0.37806597,9.102298,3.737589,3
32149197462553,-0.40677986,9.111869,3.7471602,3
32149199841407,-0.39720857,9.116654,3.7615173,3
32149202220261,-0.3924229,9.111869,3.7806597,3
32149204599115,-0.38285163,9.102298,3.7950168,3
32149206978021,-0.37328035,9.102298,3.7854455,3
32149209356875,-0.3589234,9.102298,3.7998023,3
32149211735730,-0.28713873,9.111869,3.7950168,3
32149214114584,-0.23928227,9.102298,3.7854455,3
32149216493490,-0.2105684,9.092726,3.7998023,3
32149218872344,-0.18185452,9.107083,3.7854455,3
32149221251198,-0.12921242,9.126225,3.7998023,3
32149223630053,-0.11964113,9.078369,3.7710886,3
32149226008959,-0.09571291,9.08794,3.7471602,3
32149228387813,-0.05742774,9.097511,3.7423747,3
32149230766667,-0.05742774,9.12144,3.751946,3
32149233145521,-0.086141616,9.102298,3.7615173,3
32149235524375,-0.08135597,9.107083,3.7950168,3
32149237903282,-0.09571291,9.08794,3.818945,3
32149240282136,-0.13399807,9.092726,3.7950168,3
32149242660990,-0.19142582,9.097511,3.7854455,3
32149245039844,-0.22971097,9.08794,3.7950168,3
32149247418750,-0.24885355,9.097511,3.8141594,3
32149249797605,-0.27756742,9.102298,3.842873,3
32149252176459,-0.31585258,9.126225,3.8524444,3
32149254555313,-0.3589234,9.107083,3.8476589,3
32149256934219,-0.37806597,9.116654,3.8524444,3
32149259313073,-0.3924229,9.131011,3.8333018,3
32149261691928,-0.38763726,9.107083,3.8237305,3
32149264070782,-0.34456646,9.102298,3.818945,3
32149266449636,-0.3397808,9.131011,3.7950168,3
32149268828542,-0.28235307,9.111869,3.7998023,3
32149271207396,-0.2440679,9.135797,3.7950168,3
32149273586250,-0.2009971,9.135797,3.7998023,3
32149275965105,-0.17228323,9.12144,3.8093736,3
32149278344011,-0.13878371,9.131011,3.7998023,3
32149280722865,-0.1052842,9.12144,3.790231,3
32149283101719,-0.086141616,9.12144,3.7950168,3
32149285480573,-0.08135597,9.131011,3.7998023,3
32149287859480,-0.08135597,9.102298,3.7806597,3
32149290238334,-0.086141616,9.097511,3.7806597,3
32149292617188,-0.1052842,9.107083,3.7950168,3
32149294996042,-0.13878371,9.12144,3.7950168,3
32149297374896,-0.16749759,9.111869,3.7806597,3
32149299753803,-0.21535404,9.107083,3.790231,3
32149302132657,-0.23449662,9.092726,3.7806597,3
32149304511511,-0.2727818,9.097511,3.790231,3
32149306890417,-0.30149564,9.111869,3.804588,3
32149309269271,-0.3589234,9.126225,3.8093736,3
32149311648125,-0.3924229,9.131011,3.804588,3
32149314026980,-0.37328035,9.107083,3.8093736,3
32149316405834,-0.38285163,9.12144,3.7998023,3
32149318784740,-0.38285163,9.131011,3.8093736,3
32149321163594,-0.37328035,9.135797,3.7950168,3
32149323542448,-0.3493521,9.126225,3.7998023,3
32149325921303,-0.32063824,9.102298,3.8285162,3
32149328300209,-0.28713873,9.116654,3.8285162,3
32149330679063,-0.23449662,9.126225,3.8093736,3
32149333057917,-0.18664017,9.126225,3.7854455,3
32149335436771,-0.16749759,9.116654,3.790231,3
32149337815625,-0.15792629,9.116654,3.7854455,3
32149340194532,-0.13399807,9.107083,3.7806597,3
32149342573386,-0.11485548,9.111869,3.7710886,3
32149344952240,-0.124426775,9.092726,3.7710886,3
32149347331094,-0.13399807,9.102298,3.7710886,3
32149349710000,-0.148355,9.078369,3.7615173,3
32149352088855,-0.19142582,9.08794,3.7758741,3
32149354467709,-0.21535404,9.107083,3.7854455,3
32149356846563,-0.23928227,9.097511,3.7950168,3
32149359225469,-0.2727818,9.111869,3.804588,3
32149361604323,-0.30149564,9.08794,3.804588,3
32149363983178,-0.35413775,9.111869,3.7806597,3
32149366362032,-0.3684947,9.126225,3.790231,3
32149368740886,-0.36370903,9.107083,3.7663028,3
32149371119792,-0.38285163,9.092726,3.7806597,3
32149373498646,-0.40677986,9.12144,3.8093736,3
32149375877500,-0.38763726,9.116654,3.8237305,3
32149378256355,-0.36370903,9.12144,3.7950168,3
32149380635261,-0.3397808,9.12144,3.7806597,3
32149383014115,-0.32063824,9.116654,3.7950168,3
32149385392969,-0.29192436,9.102298,3.7758741,3
32149387771823,-0.26799613,9.111869,3.790231,3
32149390150730,-0.25842485,9.102298,3.790231,3
32149392529584,-0.24885355,9.111869,3.790231,3
32149394908438,-0.23928227,9.126225,3.790231,3
32149397287292,-0.22971097,9.107083,3.7758741,3
32149399666198,-0.20578274,9.102298,3.7758741,3
32149402045053,-0.22013968,9.107083,3.7806597,3
32149404423907,-0.23449662,9.126225,3.7854455,3
32149406802761,-0.2727818,9.111869,3.804588,3
32149409181615,-0.29671,9.140582,3.804588,3
32149411560521,-0.33499518,9.150154,3.804588,3
32149413939375,-0.3589234,9.126225,3.8093736,3
32149416318230,-0.35413775,9.116654,3.804588,3
32149418697084,-0.36370903,9.131011,3.790231,3
32149421075990,-0.3684947,9.131011,3.790231,3
32149423454844,-0.3924229,9.111869,3.7950168,3
32149425833698,-0.3684947,9.107083,3.7998023,3
32149428212553,-0.3397808,9.107083,3.7854455,3
32149430591459,-0.3062813,9.107083,3.7998023,3
32149432970313,-0.3062813,9.135797,3.7806597,3
32149435349167,-0.32063824,9.126225,3.790231,3
32149437728021,-0.28235307,9.116654,3.8093736,3
32149440106928,-0.24885355,9.111869,3.7998023,3
32149442485782,-0.22971097,9.116654,3.7998023,3
32149444864636,-0.2105684,9.107083,3.7806597,3
32149447243490,-0.20578274,9.107083,3.7710886,3
32149449622344,-0.22971097,9.116654,3.7615173,3
32149452001250,-0.22971097,9.083155,3.7471602,3
32149454380105,-0.2440679,9.097511,3.7758741,3
32149456758959,-0.2536392,9.116654,3.7710886,3
32149459137813,-0.27756742,9.12144,3.7758741,3
32149461516719,-0.30149564,9.126225,3.7615173,3
32149463895573,-0.33020952,9.107083,3.751946,3
32149466274428,-0.35413775,9.107083,3.7328033,3
32149468653282,-0.3684947,9.111869,3.7423747,3
32149471032136,-0.37806597,9.116654,3.7423747,3
32149473411042,-0.41156548,9.111869,3.7615173,3
32149475789896,-0.41635114,9.131011,3.7663028,3
32149478168750,-0.40677986,9.131011,3.7615173,3
32149480547553,-0.40677986,9.116654,3.751946,3
32149482926511,-0.4019942,9.111869,3.723232,3
32149485305365,-0.37806597,9.107083,3.737589,3
32149487684219,-0.35413775,9.097511,3.751946,3
32149490063125,-0.34456646,9.08794,3.751946,3
32149492441980,-0.33020952,9.073584,3.7615173,3
32149494820834,-0.31585258,9.08794,3.7567315,3
32149497199688,-0.29671,9.097511,3.7710886,3
32149499578542,-0.27756742,9.107083,3.7471602,3
32149501957448,-0.2727818,9.116654,3.751946,3
32149504336303,-0.2727818,9.097511,3.7663028,3
32149506715157,-0.28235307,9.12144,3.7615173,3
32149509093959,-0.29192436,9.102298,3.7758741,3
32149511472865,-0.30149564,9.083155,3.790231,3
32149513851771,-0.31585258,9.102298,3.7615173,3
32149516230625,-0.33499518,9.107083,3.7806597,3
32149518609480,-0.3589234,9.092726,3.7806597,3
32149520988334,-0.3493521,9.111869,3.7854455,3
32149523367188,-0.3589234,9.107083,3.790231,3
32149525746094,-0.37806597,9.116654,3.7806597,3
32149528124948,-0.4019942,9.092726,3.7950168,3
32149530503803,-0.39720857,9.111869,3.7758741,3
32149532882709,-0.41156548,9.102298,3.7615173,3
32149535261563,-0.41635114,9.102298,3.7615173,3
32149537640417,-0.40677986,9.102298,3.7663028,3
32149540019271,-0.37328035,9.078369,3.7710886,3
32149542398178,-0.35413775,9.092726,3.7854455,3
32149544777032,-0.34456646,9.08794,3.7950168,3
32149547155834,-0.34456646,9.08794,3.790231,3
32149549534740,-0.31106696,9.078369,3.7998023,3
32149551913594,-0.28713873,9.102298,3.7710886,3
32149554292500,-0.2727818,9.097511,3.7950168,3
32149556671355,-0.26799613,9.08794,3.8141594,3
32149559050209,-0.2632105,9.064013,3.8141594,3
32149561429063,-0.26799613,9.078369,3.804588,3
32149563807969,-0.26799613,9.097511,3.7806597,3
32149566186823,-0.28713873,9.08794,3.7854455,3
32149568565678,-0.29192436,9.097511,3.7710886,3
32149570944532,-0.32542387,9.111869,3.7854455,3
32149573323438,-0.34456646,9.131011,3.7950168,3
32149575702292,-0.36370903,9.140582,3.818945,3
32149578081146,-0.35413775,9.140582,3.8237305,3
32149580460000,-0.38763726,9.145369,3.8093736,3
32149582838855,-0.39720857,9.140582,3.7998023,3
32149585217761,-0.41635114,9.140582,3.7854455,3
32149587596615,-0.41156548,9.12144,3.7950168,3
32149589975469,-0.38763726,9.131011,3.8093736,3
32149592354323,-0.37328035,9.131011,3.8237305,3
32149594733230,-0.37328035,9.097511,3.818945,3
32149597112084,-0.34456646,9.092726,3.804588,3
32149599490938,-0.33499518,9.116654,3.7950168,3
32149601869792,-0.33020952,9.107083,3.7998023,3
32149604248698,-0.28713873,9.135797,3.7998023,3
32149606627553,-0.28235307,9.135797,3.8141594,3
32149609006407,-0.25842485,9.126225,3.8237305,3
32149611385261,-0.22971097,9.135797,3.804588,3
32149613764167,-0.23928227,9.131011,3.7998023,3
32149616143021,-0.22492532,9.140582,3.8141594,3
32149618521875,-0.22492532,9.131011,3.8285162,3
32149620900730,-0.22492532,9.15494,3.842873,3
32149623279584,-0.21535404,9.145369,3.8476589,3
32149625658490,-0.23449662,9.145369,3.8333018,3
32149628037344,-0.2440679,9.135797,3.8333018,3
32149630416198,-0.22971097,9.145369,3.8237305,3
32149632795053,-0.2440679,9.131011,3.8333018,3
32149635173959,-0.2440679,9.097511,3.8333018,3
32149637552813,-0.28235307,9.102298,3.8476589,3
32149639931667,-0.28235307,9.116654,3.8333018,3
32149642310521,-0.29671,9.107083,3.8237305,3
32149644689375,-0.31585258,9.107083,3.8237305,3
32149647068282,-0.33020952,9.111869,3.7950168,3
32149649447136,-0.29192436,9.102298,3.7854455,3
32149651825990,-0.29192436,9.08794,3.7806597,3
32149654204844,-0.28713873,9.107083,3.8093736,3
32149656583750,-0.28235307,9.097511,3.8141594,3
32149658962605,-0.29192436,9.102298,3.7950168,3
32149661341459,-0.28235307,9.131011,3.7806597,3
32149663720313,-0.23928227,9.102298,3.7758741,3
32149666099219,-0.2632105,9.145369,3.7710886,3
32149668478073,-0.26799613,9.150154,3.7758741,3
32149670856875,-0.28235307,9.126225,3.790231,3
32149673235782,-0.29671,9.116654,3.7950168,3
32149675614688,-0.30149564,9.116654,3.8093736,3
32149677993542,-0.29671,9.12144,3.7758741,3
32149680372396,-0.32542387,9.116654,3.7471602,3
32149682751250,-0.33020952,9.116654,3.7567315,3
32149685130157,-0.33499518,9.083155,3.7615173,3
32149687509011,-0.37806597,9.102298,3.7663028,3
32149689887865,-0.39720857,9.126225,3.7615173,3
32149692266719,-0.3924229,9.102298,3.7471602,3
32149694645573,-0.39720857,9.111869,3.7663028,3
32149697024480,-0.41635114,9.116654,3.7471602,3
32149699403334,-0.42592242,9.107083,3.7423747,3
32149701782188,-0.44027936,9.083155,3.7758741,3
32149704161042,-0.44985065,9.092726,3.7710886,3
32149706539896,-0.42592242,9.092726,3.7854455,3
32149708918803,-0.42592242,9.102298,3.7854455,3
32149711297657,-0.42592242,9.092726,3.7567315,3
32149713676511,-0.39720857,9.092726,3.7567315,3
32149716055365,-0.36370903,9.073584,3.751946,3
32149718434271,-0.3589234,9.068798,3.7663028,3
32149720813125,-0.36370903,9.068798,3.7806597,3
32149723191980,-0.33499518,9.102298,3.7998023,3
32149725570834,-0.30149564,9.092726,3.8141594,3
32149727949740,-0.28235307,9.116654,3.7950168,3
32149730328594,-0.2727818,9.111869,3.7854455,3
32149732707448,-0.2632105,9.116654,3.790231,3
32149735086303,-0.25842485,9.102298,3.7758741,3
32149737465209,-0.2632105,9.102298,3.8093736,3
32149739844063,-0.2440679,9.097511,3.8141594,3
32149742222917,-0.2440679,9.097511,3.790231,3
32149744601771,-0.2440679,9.097511,3.7806597,3
32149746980678,-0.2440679,9.107083,3.7806597,3
32149749359532,-0.2536392,9.092726,3.7615173,3
32149751738386,-0.25842485,9.092726,3.7663028,3
32149754117240,-0.24885355,9.102298,3.7854455,3
32149756496094,-0.24885355,9.097511,3.790231,3
32149758875000,-0.23449662,9.097511,3.7854455,3
32149761253855,-0.24885355,9.102298,3.7710886,3
32149763632709,-0.25842485,9.126225,3.751946,3
32149766011563,-0.23449662,9.107083,3.7663028,3
32149768390469,-0.23449662,9.092726,3.7998023,3
32149770769323,-0.22971097,9.092726,3.7998023,3
32149773148178,-0.2536392,9.097511,3.804588,3
32149775527032,-0.22492532,9.08794,3.8093736,3
32149777905886,-0.23449662,9.111869,3.7854455,3
32149780284792,-0.22492532,9.111869,3.7710886,3
32149782663646,-0.22971097,9.135797,3.7806597,3
32149785042500,-0.22013968,9.131011,3.7663028,3
32149787421355,-0.20578274,9.12144,3.7710886,3
32149789800261,-0.23928227,9.097511,3.7950168,3
32149792179063,-0.27756742,9.08794,3.7950168,3
32149794557969,-0.2632105,9.097511,3.7998023,3
32149796936823,-0.2440679,9.116654,3.8093736,3
32149799315678,-0.28713873,9.111869,3.804588,3
32149801694584,-0.28713873,9.12144,3.7998023,3
32149804073438,-0.2727818,9.097511,3.7950168,3
32149806452292,-0.2727818,9.092726,3.790231,3
32149808831146,-0.28235307,9.097511,3.804588,3
32149811210053,-0.26799613,9.097511,3.804588,3
32149813588907,-0.26799613,9.111869,3.7950168,3
32149815967761,-0.28713873,9.102298,3.7710886,3
32149818346615,-0.29192436,9.111869,3.7567315,3
32149820725521,-0.28713873,9.12144,3.7758741,3
32149823104375,-0.28235307,9.135797,3.7854455,3
32149825483230,-0.26799613,9.12144,3.7998023,3
32149827862084,-0.28713873,9.126225,3.7854455,3
32149830240990,-0.2727818,9.131011,3.790231,3
32149832619844,-0.25842485,9.111869,3.7950168,3
32149834998698,-0.2727818,9.102298,3.8141594,3
32149837377553,-0.2632105,9.116654,3.804588,3
32149839756407,-0.2440679,9.131011,3.804588,3
32149842135313,-0.21535404,9.111869,3.8093736,3
32149844514167,-0.23449662,9.107083,3.8285162,3
32149846893021,-0.23928227,9.092726,3.7950168,3
32149849271875,-0.22971097,9.126225,3.7998023,3
32149851650782,-0.22971097,9.12144,3.790231,3
32149854029636,-0.23928227,9.102298,3.7998023,3
32149856408490,-0.22013968,9.083155,3.804588,3
32149858787344,-0.22492532,9.107083,3.7998023,3
32149861166250,-0.22971097,9.111869,3.790231,3
32149863545053,-0.22013968,9.12144,3.7758741,3
32149865923959,-0.24885355,9.107083,3.7758741,3
32149868302813,-0.22971097,9.116654,3.7758741,3
32149870681667,-0.23449662,9.12144,3.7854455,3
32149873060573,-0.2536392,9.092726,3.7806597,3
32149875439428,-0.24885355,9.12144,3.7567315,3
32149877818282,-0.23928227,9.145369,3.7710886,3
32149880197136,-0.25842485,9.12144,3.7615173,3
32149882576042,-0.27756742,9.102298,3.7710886,3
32149884954896,-0.28235307,9.116654,3.7758741,3
32149887333750,-0.2727818,9.107083,3.790231,3
32149889712605,-0.27756742,9.102298,3.818945,3
32149892091511,-0.2727818,9.097511,3.7998023,3
32149894470365,-0.2632105,9.116654,3.7758741,3
32149896849219,-0.2632105,9.107083,3.7758741,3
32149899228073,-0.26799613,9.111869,3.7663028,3
32149901606980,-0.2727818,9.131011,3.7854455,3
32149903985834,-0.29192436,9.116654,3.7806597,3
32149906364688,-0.29671,9.102298,3.7854455,3
32149908743542,-0.31106696,9.092726,3.7998023,3
32149911122396,-0.29192436,9.107083,3.8141594,3
32149913501303,-0.32063824,9.116654,3.8237305,3
32149915880157,-0.32063824,9.12144,3.7998023,3
32149918259011,-0.32542387,9.135797,3.8093736,3
32149920637865,-0.33020952,9.135797,3.804588,3
32149923016771,-0.3397808,9.116654,3.804588,3
32149925395625,-0.31106696,9.12144,3.8093736,3
32149927774480,-0.32063824,9.097511,3.8141594,3
32149930153334,-0.28713873,9.092726,3.8093736,3
32149932532240,-0.29192436,9.08794,3.8093736,3
32149934911094,-0.2536392,9.107083,3.8141594,3
32149937289948,-0.23928227,9.126225,3.7998023,3
32149939668803,-0.23928227,9.102298,3.7998023,3
32149942047657,-0.2440679,9.107083,3.8141594,3
32149944426511,-0.23449662,9.092726,3.818945,3
32149946805417,-0.22013968,9.102298,3.8237305,3
32149949184271,-0.22013968,9.111869,3.8093736,3
32149951563125,-0.22013968,9.131011,3.7854455,3
32149953942032,-0.22013968,9.116654,3.7710886,3
32149956320886,-0.22013968,9.111869,3.7710886,3
32149958699740,-0.2009971,9.135797,3.7758741,3
32149961078594,-0.19621146,9.131011,3.7854455,3
32149963457500,-0.21535404,9.12144,3.7854455,3
32149965836355,-0.19621146,9.111869,3.7710886,3
32149968215209,-0.22013968,9.111869,3.7854455,3
32149970594063,-0.23449662,9.12144,3.7806597,3
32149972972917,-0.22013968,9.111869,3.7806597,3
32149975351823,-0.22492532,9.107083,3.7806597,3
32149977730625,-0.22492532,9.126225,3.7806597,3
32149980109532,-0.2440679,9.12144,3.7710886,3
32149982488386,-0.23928227,9.131011,3.7663028,3
32149984867292,-0.23928227,9.135797,3.7567315,3
32149987246146,-0.19142582,9.116654,3.751946,3
32149989625000,-0.17706887,9.126225,3.7615173,3
32149992003855,-0.16271193,9.111869,3.7710886,3
32149994382709,-0.17228323,9.107083,3.7663028,3
32149996761615,-0.16749759,9.140582,3.7710886,3
32149999140469,-0.15314065,9.150154,3.7567315,3
32150001519323,-0.12921242,9.126225,3.7615173,3
32150003898178,-0.11485548,9.107083,3.7615173,3
32150006277084,-0.124426775,9.08794,3.7663028,3
32150008655938,-0.148355,9.08794,3.7758741,3
32150011034792,-0.13878371,9.107083,3.7806597,3
32150013413646,-0.12921242,9.083155,3.7854455,3
32150015792500,-0.14356937,9.068798,3.790231,3
32150018171303,-0.17706887,9.078369,3.7950168,3
32150020550261,-0.2009971,9.102298,3.7854455,3
32150022929115,-0.22013968,9.092726,3.7854455,3
32150025307969,-0.24885355,9.08794,3.7998023,3
32150027686875,-0.29192436,9.107083,3.804588,3
32150030065730,-0.30149564,9.111869,3.818945,3
32150032444584,-0.32063824,9.097511,3.8141594,3
32150034823438,-0.34456646,9.116654,3.8237305,3
32150037202344,-0.32063824,9.107083,3.8141594,3
32150039581198,-0.32542387,9.12144,3.804588,3
32150041960053,-0.31585258,9.111869,3.8093736,3
32150044338907,-0.28713873,9.126225,3.7950168,3
32150046717813,-0.25842485,9.126225,3.7950168,3
32150049096667,-0.22971097,9.116654,3.790231,3
32150051475521,-0.19621146,9.111869,3.8093736,3
32150053854375,-0.19621146,9.135797,3.818945,3
32150056233282,-0.16749759,9.107083,3.7950168,3
32150058612136,-0.14356937,9.08794,3.790231,3
32150060990990,-0.11964113,9.083155,3.7806597,3
32150063369844,-0.13399807,9.08794,3.7758741,3
32150065748698,-0.13399807,9.097511,3.7854455,3
32150068127605,-0.13878371,9.116654,3.7758741,3
32150070506459,-0.16271193,9.111869,3.7710886,3
32150072885313,-0.18664017,9.107083,3.7663028,3
32150075264167,-0.21535404,9.107083,3.751946,3
32150077643073,-0.25842485,9.097511,3.7663028,3
32150080021928,-0.26799613,9.107083,3.7567315,3
32150082400782,-0.2536392,9.097511,3.7615173,3
32150084779636,-0.28235307,9.107083,3.7854455,3
32150087158490,-0.31106696,9.131011,3.7758741,3
32150089537396,-0.33020952,9.116654,3.7854455,3
32150091916250,-0.3493521,9.107083,3.7663028,3
32150094295105,-0.3493521,9.097511,3.7758741,3
32150096673959,-0.32542387,9.111869,3.7758741,3
32150099052865,-0.29671,9.083155,3.7710886,3
32150101431719,-0.30149564,9.073584,3.7854455,3
32150103810573,-0.29671,9.08794,3.7950168,3
32150106189428,-0.2536392,9.107083,3.7950168,3
32150108568334,-0.23928227,9.116654,3.7854455,3
32150110947188,-0.2105684,9.107083,3.790231,3
32150113326042,-0.18185452,9.097511,3.7950168,3
32150115704896,-0.17228323,9.102298,3.790231,3
32150118083803,-0.15792629,9.08794,3.790231,3
32150120462657,-0.15314065,9.097511,3.790231,3
32150122841511,-0.13878371,9.092726,3.7950168,3
32150125220365,-0.11964113,9.097511,3.7806597,3
32150127599219,-0.11964113,9.111869,3.790231,3
32150129978125,-0.148355,9.111869,3.804588,3
32150132356980,-0.17228323,9.107083,3.818945,3
32150134735834,-0.18185452,9.131011,3.8237305,3
32150137114688,-0.2105684,9.12144,3.804588,3
32150139493594,-0.23449662,9.145369,3.7998023,3
32150141872448,-0.2536392,9.135797,3.790231,3
32150144251303,-0.28235307,9.135797,3.790231,3
32150146630157,-0.32063824,9.126225,3.804588,3
32150149009011,-0.32542387,9.12144,3.7950168,3
32150151387917,-0.3493521,9.111869,3.7854455,3
32150153766771,-0.33499518,9.097511,3.804588,3
32150156145625,-0.33499518,9.111869,3.818945,3
32150158524480,-0.3397808,9.116654,3.8285162,3
32150160903386,-0.34456646,9.107083,3.7998023,3
32150163282240,-0.34456646,9.092726,3.8093736,3
32150165661094,-0.34456646,9.092726,3.8141594,3
32150168039948,-0.33499518,9.116654,3.818945,3
32150170418803,-0.33020952,9.107083,3.8141594,3
32150172797709,-0.32542387,9.116654,3.8237305,3
32150175176563,-0.33499518,9.126225,3.818945,3
32150177555417,-0.32063824,9.12144,3.8237305,3
32150179934271,-0.31106696,9.12144,3.8237305,3
32150182313178,-0.32063824,9.135797,3.8141594,3
32150184692032,-0.31106696,9.12144,3.818945,3
32150187070886,-0.32063824,9.116654,3.8237305,3
32150189449740,-0.33499518,9.102298,3.8237305,3
32150191828646,-0.32063824,9.107083,3.8141594,3
32150194207500,-0.32063824,9.126225,3.7950168,3
32150196586355,-0.32063824,9.107083,3.7998023,3
32150198965209,-0.32063824,9.08794,3.804588,3
32150201344063,-0.32542387,9.097511,3.8141594,3
32150203722969,-0.32542387,9.107083,3.8333018,3
32150206101823,-0.31106696,9.107083,3.818945,3
32150208480678,-0.30149564,9.097511,3.7806597,3
32150210859532,-0.31106696,9.097511,3.7710886,3
32150213238438,-0.32542387,9.116654,3.7710886,3
32150215617292,-0.33020952,9.131011,3.7663028,3
32150217996094,-0.31106696,9.140582,3.751946,3
32150220375000,-0.3062813,9.140582,3.7615173,3
32150222753855,-0.3062813,9.135797,3.7710886,3
32150225132761,-0.3062813,9.12144,3.7806597,3
32150227511615,-0.31585258,9.131011,3.8141594,3
32150229890469,-0.30149564,9.140582,3.790231,3
32150232269323,-0.30149564,9.102298,3.8093736,3
32150234648230,-0.3062813,9.111869,3.8093736,3
32150237027084,-0.31585258,9.131011,3.8285162,3
32150239405938,-0.33499518,9.097511,3.8237305,3
32150241784792,-0.34456646,9.078369,3.8285162,3
32150244163698,-0.33499518,9.08794,3.7998023,3
32150246542553,-0.3493521,9.073584,3.7806597,3
32150248921407,-0.35413775,9.035298,3.7615173,3
32150251300261,-0.39720857,9.059227,3.7854455,3
32150253679115,-0.41635114,9.097511,3.804588,3
32150256058021,-0.44506502,9.068798,3.842873,3
32150258436875,-0.44506502,9.083155,3.8333018,3
32150260815730,-0.4211368,9.097511,3.8237305,3
32150263194584,-0.44027936,9.092726,3.7806597,3
32150265573490,-0.4354937,9.092726,3.7663028,3
32150267952344,-0.44027936,9.102298,3.7615173,3
32150270331198,-0.43070808,9.097511,3.7758741,3
32150272710053,-0.4354937,9.092726,3.7950168,3
32150275088959,-0.4211368,9.097511,3.7806597,3
32150277467813,-0.4019942,9.116654,3.751946,3
32150279846667,-0.37328035,9.102298,3.737589,3
32150282225521,-0.36370903,9.107083,3.737589,3
32150284604428,-0.3684947,9.107083,3.7471602,3
32150286983282,-0.3397808,9.092726,3.7567315,3
32150289362136,-0.32542387,9.092726,3.790231,3
32150291740990,-0.33499518,9.097511,3.7758741,3
32150294119844,-0.3493521,9.092726,3.7615173,3
32150296498750,-0.36370903,9.111869,3.737589,3
32150298877605,-0.3589234,9.111869,3.7328033,3
32150301256459,-0.38285163,9.102298,3.737589,3
32150303635313,-0.38763726,9.102298,3.7710886,3
32150306014219,-0.41156548,9.12144,3.790231,3
32150308393073,-0.42592242,9.126225,3.7806597,3
32150310771928,-0.4211368,9.135797,3.7663028,3
32150313150782,-0.41156548,9.131011,3.751946,3
32150315529636,-0.4354937,9.140582,3.737589,3
32150317908542,-0.4354937,9.126225,3.7615173,3
32150320287396,-0.44506502,9.111869,3.7854455,3
32150322666250,-0.41635114,9.111869,3.7806597,3
32150325045105,-0.40677986,9.135797,3.7854455,3
32150327424011,-0.37806597,9.126225,3.7758741,3
32150329802865,-0.3684947,9.102298,3.7423747,3
32150332181719,-0.3493521,9.08794,3.7471602,3
32150334560573,-0.33499518,9.08794,3.7615173,3
32150336939428,-0.33499518,9.08794,3.7806597,3
32150339318334,-0.3397808,9.078369,3.7854455,3
32150341697188,-0.32542387,9.08794,3.7950168,3
32150344076042,-0.32063824,9.092726,3.7998023,3
32150346454896,-0.3397808,9.08794,3.804588,3
32150348833803,-0.3589234,9.102298,3.8093736,3
32150351212657,-0.3684947,9.097511,3.8093736,3
32150353591511,-0.39720857,9.097511,3.8237305,3
32150355970365,-0.41635114,9.097511,3.8093736,3
32150358349271,-0.44506502,9.097511,3.790231,3
32150360728125,-0.44985065,9.111869,3.7950168,3
32150363106980,-0.4354937,9.126225,3.7854455,3
32150365485834,-0.4642076,9.111869,3.7950168,3
32150367864688,-0.46899325,9.097511,3.7806597,3
32150370243594,-0.47377887,9.102298,3.7854455,3
32150372622448,-0.4642076,9.102298,3.7998023,3
32150375001250,-0.4546363,9.107083,3.7998023,3
32150377380157,-0.4211368,9.126225,3.790231,3
32150379759063,-0.40677986,9.15494,3.7806597,3
32150382137917,-0.4019942,9.126225,3.7806597,3
32150384516771,-0.3684947,9.126225,3.7758741,3
32150386895625,-0.3493521,9.12144,3.7758741,3
32150389274532,-0.33499518,9.140582,3.7710886,3
32150391653386,-0.31585258,9.126225,3.7758741,3
32150394032240,-0.3062813,9.111869,3.7710886,3
32150396411094,-0.3397808,9.107083,3.7806597,3
32150398790000,-0.31585258,9.116654,3.7950168,3
32150401168855,-0.34456646,9.102298,3.7950168,3
32150403547709,-0.3589234,9.107083,3.7854455,3
32150405926563,-0.38285163,9.111869,3.7950168,3
32150408305469,-0.41635114,9.12144,3.7854455,3
32150410684323,-0.45942193,9.131011,3.7806597,3
32150413063178,-0.49292147,9.135797,3.7854455,3
32150415442032,-0.5072784,9.12144,3.7950168,3
32150417820886,-0.53599226,9.126225,3.7950168,3
32150420199792,-0.5599205,9.107083,3.7998023,3
32150422578646,-0.5694918,9.116654,3.7998023,3
32150424957500,-0.5694918,9.116654,3.8093736,3
32150427336355,-0.5455636,9.135797,3.7758741,3
32150429715209,-0.55034924,9.131011,3.7663028,3
32150432094115,-0.5312066,9.111869,3.7567315,3
32150434472969,-0.5024927,9.12144,3.7567315,3
32150436851823,-0.47856453,9.107083,3.7567315,3
32150439230678,-0.44985065,9.097511,3.751946,3
32150441609532,-0.44985065,9.092726,3.7471602,3
32150443988438,-0.40677986,9.092726,3.7423747,3
32150446367292,-0.37328035,9.102298,3.751946,3
32150448746146,-0.3684947,9.135797,3.737589,3
32150451125000,-0.37328035,9.111869,3.751946,3
32150453503907,-0.3589234,9.116654,3.7758741,3
32150455882761,-0.32063824,9.116654,3.7854455,3
32150458261615,-0.31106696,9.12144,3.7806597,3
32150460640469,-0.32063824,9.107083,3.790231,3
32150463019375,-0.35413775,9.097511,3.7758741,3
32150465398230,-0.38285163,9.097511,3.7758741,3
32150467777084,-0.36370903,9.12144,3.790231,3
32150470155938,-0.3684947,9.097511,3.7806597,3
32150472534844,-0.3924229,9.083155,3.7663028,3
32150474913698,-0.42592242,9.092726,3.7615173,3
32150477292553,-0.43070808,9.126225,3.7758741,3
32150479671407,-0.43070808,9.092726,3.7615173,3
32150482050261,-0.39720857,9.083155,3.7471602,3
32150484429167,-0.4211368,9.097511,3.7423747,3
32150486808021,-0.41156548,9.107083,3.7471602,3
32150489186875,-0.41635114,9.116654,3.7184465,3
32150491565730,-0.41156548,9.116654,3.737589,3
32150493944584,-0.4211368,9.131011,3.7567315,3
32150496323490,-0.40677986,9.150154,3.7663028,3
32150498702344,-0.40677986,9.140582,3.7758741,3
32150501081198,-0.43070808,9.131011,3.7663028,3
32150503460053,-0.41635114,9.140582,3.7615173,3
32150505838959,-0.4019942,9.116654,3.7758741,3
32150508217813,-0.42592242,9.116654,3.7950168,3
32150510596667,-0.44506502,9.102298,3.8237305,3
32150512975521,-0.45942193,9.107083,3.8237305,3
32150515354428,-0.43070808,9.078369,3.818945,3
32150517733282,-0.42592242,9.092726,3.818945,3
32150520112084,-0.42592242,9.078369,3.818945,3
32150522490990,-0.4211368,9.08794,3.8237305,3
32150524869844,-0.40677986,9.083155,3.8333018,3
32150527248750,-0.39720857,9.097511,3.8285162,3
32150529627605,-0.38763726,9.097511,3.7950168,3
32150532006459,-0.3684947,9.092726,3.7615173,3
32150534385313,-0.3493521,9.107083,3.7471602,3
32150536764219,-0.3397808,9.107083,3.7328033,3
32150539143073,-0.33020952,9.102298,3.737589,3
32150541521928,-0.35413775,9.107083,3.7710886,3
32150543900782,-0.33020952,9.092726,3.7806597,3
32150546279688,-0.3062813,9.107083,3.790231,3
32150548658542,-0.36370903,9.092726,3.7567315,3
32150551037396,-0.37328035,9.111869,3.7328033,3
32150553416250,-0.3924229,9.107083,3.7423747,3
32150555795105,-0.40677986,9.102298,3.7471602,3
32150558174011,-0.44027936,9.126225,3.7567315,3
32150560552865,-0.4833502,9.12144,3.7663028,3
32150562931719,-0.55034924,9.12144,3.7806597,3
32150565310573,-0.5694918,9.12144,3.7806597,3
32150567689480,-0.6125626,9.135797,3.8093736,3
32150570068282,-0.66041905,9.135797,3.8333018,3
32150572447188,-0.6795616,9.126225,3.8333018,3
32150574826042,-0.6843473,9.150154,3.8572302,3
32150577204948,-0.6843473,9.150154,3.8620157,3
32150579583803,-0.6843473,9.145369,3.8620157,3
32150581962605,-0.67477596,9.140582,3.8668015,3
32150584341511,-0.6269195,9.126225,3.8668015,3
32150586720417,-0.5838487,9.126225,3.871587,3
32150589099271,-0.5024927,9.102298,3.8620157,3
32150591478125,-0.45942193,9.102298,3.8524444,3
32150593856980,-0.4019942,9.107083,3.8237305,3
32150596235834,-0.36370903,9.092726,3.8093736,3
32150598614740,-0.3062813,9.097511,3.8093736,3
32150600993594,-0.2632105,9.097511,3.8093736,3
32150603372396,-0.24885355,9.083155,3.804588,3
32150605751303,-0.21535404,9.097511,3.8093736,3
32150608130157,-0.19142582,9.092726,3.8333018,3
32150610509063,-0.19142582,9.102298,3.8141594,3
32150612887917,-0.20578274,9.092726,3.7950168,3
32150615266771,-0.23449662,9.092726,3.7806597,3
32150617645625,-0.24885355,9.08794,3.7806597,3
32150620024532,-0.30149564,9.092726,3.7950168,3
32150622403386,-0.35413775,9.116654,3.7950168,3
32150624782240,-0.41156548,9.126225,3.7710886,3
32150627161094,-0.4546363,9.12144,3.7328033,3
32150629539948,-0.52163535,9.116654,3.737589,3
32150631918855,-0.57906306,9.12144,3.751946,3
32150634297709,-0.6029913,9.111869,3.7615173,3
32150636676563,-0.6221339,9.111869,3.7758741,3
32150639055417,-0.6364908,9.116654,3.7998023,3
32150641434323,-0.63170516,9.116654,3.7854455,3
32150643813178,-0.60777694,9.126225,3.7854455,3
32150646192032,-0.5886344,9.135797,3.7806597,3
32150648570886,-0.5599205,9.140582,3.7806597,3
32150650949792,-0.526421,9.135797,3.7854455,3
32150653328646,-0.5072784,9.12144,3.7806597,3
32150655707500,-0.46899325,9.08794,3.7710886,3
32150658086355,-0.46899325,9.083155,3.7806597,3
32150660465209,-0.4211368,9.102298,3.7663028,3
32150662844115,-0.39720857,9.107083,3.7615173,3
32150665222969,-0.3924229,9.102298,3.7567315,3
32150667601823,-0.40677986,9.097511,3.7758741,3
32150669980678,-0.39720857,9.078369,3.7710886,3
32150672359584,-0.41635114,9.078369,3.7758741,3
32150674738438,-0.44985065,9.083155,3.7758741,3
32150677117292,-0.47377887,9.078369,3.7663028,3
32150679496146,-0.5072784,9.073584,3.737589,3
32150681875053,-0.53599226,9.078369,3.723232,3
32150684253907,-0.5407779,9.073584,3.723232,3
32150686632761,-0.55513483,9.083155,3.7471602,3
32150689011615,-0.57906306,9.102298,3.7615173,3
32150691390469,-0.5838487,9.111869,3.7663028,3
32150693769375,-0.5982057,9.107083,3.751946,3
32150696148230,-0.5838487,9.092726,3.7423747,3
32150698527084,-0.55513483,9.107083,3.7136607,3
32150700905938,-0.5455636,9.12144,3.723232,3
32150703284844,-0.5599205,9.111869,3.7615173,3
32150705663698,-0.52163535,9.102298,3.7806597,3
32150708042553,-0.4977071,9.097511,3.7950168,3
32150710421407,-0.49292147,9.08794,3.7758741,3
32150712800313,-0.46899325,9.097511,3.751946,3
32150715179167,-0.4546363,9.08794,3.7423747,3
32150717558021,-0.44985065,9.092726,3.7423747,3
32150719936875,-0.43070808,9.078369,3.7806597,3
32150722315730,-0.42592242,9.116654,3.8093736,3
32150724694636,-0.41635114,9.107083,3.8141594,3
32150727073490,-0.40677986,9.116654,3.8141594,3
32150729452344,-0.4211368,9.092726,3.8141594,3
32150731831198,-0.42592242,9.102298,3.8093736,3
32150734210053,-0.44506502,9.092726,3.804588,3
32150736588959,-0.47856453,9.097511,3.8093736,3
32150738967813,-0.45942193,9.107083,3.8237305,3
32150741346667,-0.5072784,9.083155,3.8141594,3
32150743725521,-0.4977071,9.08794,3.8237305,3
32150746104428,-0.4977071,9.107083,3.818945,3
32150748483282,-0.51206404,9.08794,3.818945,3
32150750862136,-0.5168497,9.08794,3.8093736,3
32150753240990,-0.5024927,9.08794,3.818945,3
32150755619896,-0.5168497,9.097511,3.818945,3
32150757998750,-0.47856453,9.107083,3.7998023,3
32150760377605,-0.47377887,9.097511,3.8285162,3
32150762756459,-0.44506502,9.116654,3.7998023,3
32150765135313,-0.42592242,9.126225,3.8093736,3
32150767514219,-0.41635114,9.135797,3.8141594,3
32150769893073,-0.40677986,9.135797,3.8093736,3
32150772271928,-0.37806597,9.145369,3.7998023,3
32150774650782,-0.35413775,9.111869,3.7950168,3
32150777029688,-0.3493521,9.12144,3.7998023,3
32150779408542,-0.32542387,9.102298,3.7806597,3
32150781787396,-0.32063824,9.131011,3.7710886,3
32150784166250,-0.33499518,9.102298,3.7854455,3
32150786545105,-0.33499518,9.08794,3.7758741,3
32150788924011,-0.31585258,9.116654,3.7663028,3
32150791302865,-0.3493521,9.116654,3.7710886,3
32150793681719,-0.3589234,9.116654,3.7758741,3
32150796060573,-0.37806597,9.126225,3.7710886,3
32150798439480,-0.3924229,9.12144,3.7663028,3
32150800818334,-0.41635114,9.116654,3.7758741,3
32150803197188,-0.40677986,9.102298,3.7998023,3
32150805576042,-0.4354937,9.140582,3.8093736,3
32150807954948,-0.44027936,9.145369,3.790231,3
32150810333803,-0.45942193,9.131011,3.7998023,3
32150812712657,-0.45942193,9.116654,3.7950168,3
32150815091511,-0.46899325,9.111869,3.7710886,3
32150817470365,-0.4642076,9.102298,3.7806597,3
32150819849271,-0.46899325,9.116654,3.7758741,3
32150822228125,-0.4833502,9.111869,3.7854455,3
32150824606980,-0.49292147,9.111869,3.7854455,3
32150826985834,-0.47856453,9.131011,3.7758741,3
32150829364688,-0.4977071,9.116654,3.751946,3
32150831743594,-0.49292147,9.15494,3.7471602,3
32150834122448,-0.4833502,9.135797,3.7328033,3
32150836501303,-0.4642076,9.131011,3.7471602,3
32150838880157,-0.44985065,9.116654,3.7615173,3
32150841259063,-0.44027936,9.126225,3.7950168,3
32150843637917,-0.41635114,9.131011,3.804588,3
32150846016771,-0.41635114,9.097511,3.804588,3
32150848395625,-0.44027936,9.111869,3.7998023,3
32150850774532,-0.44506502,9.102298,3.804588,3
32150853153386,-0.41156548,9.097511,3.7998023,3
32150855532240,-0.4019942,9.126225,3.7854455,3
32150857911094,-0.39720857,9.135797,3.790231,3
32150860289948,-0.41156548,9.12144,3.818945,3
32150862668855,-0.39720857,9.116654,3.8093736,3
32150865047709,-0.41156548,9.12144,3.7854455,3
32150867426563,-0.38285163,9.116654,3.7663028,3
32150869805417,-0.38763726,9.08794,3.751946,3
32150872184323,-0.40677986,9.102298,3.7615173,3
32150874563178,-0.39720857,9.102298,3.7471602,3
32150876942032,-0.3924229,9.107083,3.7710886,3
32150879320886,-0.4211368,9.107083,3.7663028,3
32150881699740,-0.41156548,9.08794,3.7758741,3
32150884078646,-0.4211368,9.083155,3.790231,3
32150886457500,-0.43070808,9.092726,3.7663028,3
32150888836355,-0.44506502,9.126225,3.7758741,3
