t_ns,ax,ay,az,bx,by,bz
20405908776354,1.038485,8.930014,4.034299,0.0,0.0,0.0
20405911156197,1.0193424,8.949157,4.0965123,0.0,0.0,0.0
20405913535260,0.971486,8.9348,4.0869412,0.0,0.0,0.0
20405915914375,0.9092726,8.958728,4.0677986,0.0,0.0,0.0
20405918293437,0.85184485,8.987442,4.034299,0.0,0.0,0.0
20405920672500,0.79441714,9.01137,3.9720855,0.0,0.0,0.0
20405923051614,0.7513463,9.01137,3.9577286,0.0,0.0,0.0
20405925430677,0.70348984,9.006584,4.0295134,0.0,0.0,0.0
20405927809791,0.6795616,9.025727,4.0869412,0.0,0.0,0.0
20405930188854,0.6556334,9.025727,4.101298,0.0,0.0,0.0
20405932567916,0.64606214,9.016156,4.082155,0.0,0.0,0.0
20405934947031,0.66041905,9.025727,4.019942,0.0,0.0,0.0
20405937326093,0.6939186,9.016156,4.0007997,0.0,0.0,0.0
20405939705208,0.7609176,9.025727,4.0103707,0.0,0.0,0.0
20405942084270,0.8039884,9.016156,4.0295134,0.0,0.0,0.0
20405944463385,0.8566305,9.01137,4.0534415,0.0,0.0,0.0
20405946842447,0.89013004,8.997013,4.082155,0.0,0.0,0.0
20405949221510,0.98584294,9.001799,4.101298,0.0,0.0,0.0
20405951600625,1.0241281,8.958728,4.082155,0.0,0.0,0.0
20405953979687,1.0336994,8.939586,4.048656,0.0,0.0,0.0
20405956358802,1.0480564,8.953942,4.024728,0.0,0.0,0.0
20405958737864,1.038485,8.920443,4.024728,0.0,0.0,0.0
20405961116979,1.0049855,8.896515,4.058227,0.0,0.0,0.0
20405963496041,0.9619147,8.906086,4.082155,0.0,0.0,0.0
20405965875104,0.91884387,8.896515,4.106084,0.0,0.0,0.0
20405968254218,0.86141616,8.896515,4.1347976,0.0,0.0,0.0
20405970633281,0.79920274,8.925228,4.125226,0.0,0.0,0.0
20405973012395,0.7704889,8.9013,4.130012,0.0,0.0,0.0
20405975391458,0.7513463,8.9108715,4.130012,0.0,0.0,0.0
20405977770572,0.75613195,8.891729,4.1443686,0.0,0.0,0.0
20405980149635,0.72263247,8.9013,4.173083,0.0,0.0,0.0
20405982528697,0.7465607,8.906086,4.2161536,0.0,0.0,0.0
20405984907812,0.7800602,8.882157,4.2161536,0.0,0.0,0.0
20405987286875,0.80877405,8.882157,4.206582,0.0,0.0,0.0
20405989665989,0.8662018,8.886943,4.2017965,0.0,0.0,0.0
20405992045052,0.8853444,8.896515,4.211368,0.0,0.0,0.0
20405994424114,0.9284152,8.85823,4.23051,0.0,0.0,0.0
20405996803229,0.93320084,8.85823,4.2257247,0.0,0.0,0.0
20405999182291,0.94755775,8.834301,4.2352962,0.0,0.0,0.0
20406001561406,0.94277215,8.834301,4.2352962,0.0,0.0,0.0
20406003940468,0.9379865,8.82473,4.240082,0.0,0.0,0.0
20406006319583,0.91405827,8.819944,4.240082,0.0,0.0,0.0
20406008698645,0.8757731,8.829515,4.2352962,0.0,0.0,0.0
20406011077708,0.85184485,8.815159,4.249653,0.0,0.0,0.0
20406013456822,0.79441714,8.843872,4.2831526,0.0,0.0,0.0
20406015835885,0.74177504,8.839087,4.302295,0.0,0.0,0.0
20406018215000,0.70348984,8.839087,4.331009,0.0,0.0,0.0
20406020594062,0.66999036,8.85823,4.3501515,0.0,0.0,0.0
20406022973177,0.6652047,8.867801,4.3645086,0.0,0.0,0.0
20406025352239,0.6412765,8.85823,4.3645086,0.0,0.0,0.0
20406027731302,0.64606214,8.872586,4.369294,0.0,0.0,0.0
20406030110416,0.67477596,8.863015,4.3788652,0.0,0.0,0.0
20406032489479,0.6843473,8.85823,4.398008,0.0,0.0,0.0
20406034868593,0.72741807,8.872586,4.421936,0.0,0.0,0.0
20406037247656,0.76570326,8.848659,4.436293,0.0,0.0,0.0
20406039626718,0.8135597,8.85823,4.4315076,0.0,0.0,0.0
20406042005833,0.85184485,8.834301,4.421936,0.0,0.0,0.0
20406044384895,0.89491564,8.82473,4.4315076,0.0,0.0,0.0
20406046764010,0.9236295,8.829515,4.465007,0.0,0.0,0.0
20406049143072,0.9523434,8.805588,4.479364,0.0,0.0,0.0
20406051522187,0.9619147,8.79123,4.4841495,0.0,0.0,0.0
20406053901250,0.9236295,8.781659,4.4745784,0.0,0.0,0.0
20406056280364,0.89491564,8.796016,4.45065,0.0,0.0,0.0
20406058659427,0.8422736,8.796016,4.4315076,0.0,0.0,0.0
20406061038489,0.80877405,8.786445,4.4315076,0.0,0.0,0.0
20406063417604,0.7609176,8.796016,4.4602213,0.0,0.0,0.0
20406065796666,0.70348984,8.829515,4.469793,0.0,0.0,0.0
20406068175781,0.65084773,8.82473,4.469793,0.0,0.0,0.0
20406070554843,0.6221339,8.834301,4.4554358,0.0,0.0,0.0
20406072933906,0.59342,8.839087,4.465007,0.0,0.0,0.0
20406075313020,0.57427746,8.834301,4.4602213,0.0,0.0,0.0
20406077692083,0.59342,8.839087,4.465007,0.0,0.0,0.0
20406080071197,0.6029913,8.829515,4.4554358,0.0,0.0,0.0
20406082450260,0.61734825,8.829515,4.4554358,0.0,0.0,0.0
20406084829375,0.64606214,8.815159,4.4458647,0.0,0.0,0.0
20406087208437,0.6843473,8.848659,4.4410787,0.0,0.0,0.0
20406089587500,0.72263247,8.843872,4.421936,0.0,0.0,0.0
20406091966614,0.74177504,8.839087,4.426722,0.0,0.0,0.0
20406094345677,0.7704889,8.815159,4.4075794,0.0,0.0,0.0
20406096724791,0.7896315,8.819944,4.426722,0.0,0.0,0.0
20406099103802,0.80877405,8.82473,4.412365,0.0,0.0,0.0
20406101482968,0.8566305,8.82473,4.3932223,0.0,0.0,0.0
20406103862031,0.85184485,8.829515,4.388437,0.0,0.0,0.0
20406106241093,0.8279166,8.829515,4.369294,0.0,0.0,0.0
20406108620208,0.7896315,8.810373,4.369294,0.0,0.0,0.0
20406110999270,0.7609176,8.839087,4.331009,0.0,0.0,0.0
20406113378385,0.72741807,8.853444,4.321438,0.0,0.0,0.0
20406115757447,0.6795616,8.810373,4.3357944,0.0,0.0,0.0
20406118136562,0.6364908,8.815159,4.331009,0.0,0.0,0.0
20406120515625,0.61734825,8.819944,4.316652,0.0,0.0,0.0
20406122894687,0.5838487,8.819944,4.3070807,0.0,0.0,0.0
20406125273802,0.55513483,8.82473,4.2927237,0.0,0.0,0.0
20406127652864,0.55034924,8.843872,4.2831526,0.0,0.0,0.0
20406130031927,0.57906306,8.839087,4.273581,0.0,0.0,0.0
20406132411041,0.59342,8.853444,4.287938,0.0,0.0,0.0
20406134790104,0.61734825,8.834301,4.278367,0.0,0.0,0.0
20406137169218,0.6364908,8.843872,4.278367,0.0,0.0,0.0
20406139548281,0.9619147,8.939586,4.1922255,0.0,0.0,0.0
20406141927395,1.0193424,8.7577305,4.2352962,0.0,0.0,0.0
20406144306458,0.83748794,8.867801,4.331009,0.0,0.0,0.0
20406146685572,0.79441714,8.891729,4.3262234,0.0,0.0,0.0
20406149064635,0.75613195,8.829515,4.3262234,0.0,0.0,0.0
20406151443697,0.70348984,8.800801,4.197011,0.0,0.0,0.0
20406153822812,0.6125626,8.9348,4.2161536,0.0,0.0,0.0
20406156201875,0.6364908,8.863015,4.197011,0.0,0.0,0.0
20406158580989,0.6029913,8.810373,4.23051,0.0,0.0,0.0
20406160960052,0.6125626,8.896515,4.2592244,0.0,0.0,0.0
20406163339114,0.70348984,8.886943,4.278367,0.0,0.0,0.0
20406165718229,0.7513463,8.839087,4.287938,0.0,0.0,0.0
20406168097291,0.79920274,8.839087,4.206582,0.0,0.0,0.0
20406170476406,0.8805587,8.906086,4.173083,0.0,0.0,0.0
20406172855468,0.9523434,8.872586,4.1443686,0.0,0.0,0.0
20406175234583,0.9284152,8.834301,4.182654,0.0,0.0,0.0
20406177613645,0.9523434,8.886943,4.2257247,0.0,0.0,0.0
20406179992708,0.9379865,8.896515,4.2352962,0.0,0.0,0.0
20406182371822,0.9092726,8.891729,4.240082,0.0,0.0,0.0
20406184750885,0.91884387,8.9348,4.182654,0.0,0.0,0.0
20406187130000,0.90448695,8.925228,4.1587257,0.0,0.0,0.0
20406189512343,0.80877405,8.939586,4.1587257,0.0,0.0,0.0
20406191888177,0.74177504,8.973084,4.1635113,0.0,0.0,0.0
20406194267239,0.72263247,8.977871,4.206582,0.0,0.0,0.0
20406196646302,0.6891329,8.949157,4.2257247,0.0,0.0,0.0
20406199025416,0.6556334,8.968299,4.220939,0.0,0.0,0.0
20406201404479,0.64606214,8.963513,4.240082,0.0,0.0,0.0
20406203783593,0.66041905,8.944371,4.206582,0.0,0.0,0.0
20406206162656,0.7178468,8.963513,4.1922255,0.0,0.0,0.0
20406208541718,0.74177504,8.963513,4.182654,0.0,0.0,0.0
20406210920833,0.7800602,8.958728,4.2161536,0.0,0.0,0.0
20406213299895,0.80877405,8.9108715,4.23051,0.0,0.0,0.0
20406215679010,0.8709874,8.915657,4.211368,0.0,0.0,0.0
20406218058072,0.9092726,8.9108715,4.1778684,0.0,0.0,0.0
20406220437187,0.9379865,8.9013,4.173083,0.0,0.0,0.0
20406222816250,0.9906286,8.886943,4.173083,0.0,0.0,0.0
20406225195312,1.0241281,8.882157,4.1635113,0.0,0.0,0.0
20406227574427,1.0001999,8.863015,4.168297,0.0,0.0,0.0
20406229953489,0.9954142,8.853444,4.1635113,0.0,0.0,0.0
20406232332604,0.9762716,8.839087,4.1778684,0.0,0.0,0.0
20406234711666,0.9379865,8.829515,4.1922255,0.0,0.0,0.0
20406237090781,0.8997013,8.79123,4.182654,0.0,0.0,0.0
20406239469843,0.85184485,8.796016,4.1635113,0.0,0.0,0.0
20406241848906,0.79441714,8.786445,4.1778684,0.0,0.0,0.0
20406244228020,0.7513463,8.79123,4.2017965,0.0,0.0,0.0
20406246607083,0.71306115,8.805588,4.2161536,0.0,0.0,0.0
20406248986197,0.6843473,8.796016,4.2352962,0.0,0.0,0.0
20406251365260,0.66041905,8.829515,4.240082,0.0,0.0,0.0
20406253744322,0.6269195,8.834301,4.23051,0.0,0.0,0.0
20406256123437,0.6364908,8.834301,4.2448673,0.0,0.0,0.0
20406258502500,0.61734825,8.85823,4.2448673,0.0,0.0,0.0
20406260881614,0.6412765,8.85823,4.2448673,0.0,0.0,0.0
20406263260677,0.6556334,8.877372,4.2687955,0.0,0.0,0.0
20406265639739,0.67477596,8.848659,4.302295,0.0,0.0,0.0
20406268018854,0.71306115,8.85823,4.3357944,0.0,0.0,0.0
20406270397916,0.7322037,8.834301,4.321438,0.0,0.0,0.0
20406272777031,0.74177504,8.829515,4.316652,0.0,0.0,0.0
20406275156093,0.7513463,8.834301,4.321438,0.0,0.0,0.0
20406277535208,0.7513463,8.839087,4.321438,0.0,0.0,0.0
20406279914270,0.72741807,8.819944,4.3501515,0.0,0.0,0.0
20406282293333,0.72741807,8.829515,4.3645086,0.0,0.0,0.0
20406284672447,0.6987042,8.800801,4.3740797,0.0,0.0,0.0
20406287051510,0.6891329,8.79123,4.3501515,0.0,0.0,0.0
20406289430625,0.6556334,8.786445,4.3501515,0.0,0.0,0.0
20406291809687,0.6269195,8.776874,4.3357944,0.0,0.0,0.0
20406294188802,0.6364908,8.7673025,4.321438,0.0,0.0,0.0
20406296567864,0.61734825,8.762517,4.359723,0.0,0.0,0.0
20406298946927,0.59342,8.776874,4.359723,0.0,0.0,0.0
20406301326041,0.6029913,8.786445,4.369294,0.0,0.0,0.0
20406303705104,0.6125626,8.776874,4.359723,0.0,0.0,0.0
20406306084218,0.6364908,8.786445,4.3740797,0.0,0.0,0.0
20406308463281,0.64606214,8.819944,4.3501515,0.0,0.0,0.0
20406310842343,0.66999036,8.810373,4.321438,0.0,0.0,0.0
20406313221458,0.67477596,8.843872,4.3262234,0.0,0.0,0.0
20406315600520,0.6939186,8.872586,4.345366,0.0,0.0,0.0
20406317979635,0.72741807,8.882157,4.354937,0.0,0.0,0.0
20406320358697,0.7465607,8.9013,4.345366,0.0,0.0,0.0
20406322737812,0.74177504,8.906086,4.331009,0.0,0.0,0.0
20406325116875,0.7369894,8.925228,4.3501515,0.0,0.0,0.0
20406327495937,0.7465607,8.9108715,4.3357944,0.0,0.0,0.0
20406329875052,0.7178468,8.915657,4.331009,0.0,0.0,0.0
20406332254114,0.7178468,8.9348,4.316652,0.0,0.0,0.0
20406334633229,0.72741807,8.9348,4.2975097,0.0,0.0,0.0
20406337012291,0.72741807,8.9013,4.316652,0.0,0.0,0.0
20406339391354,0.7178468,8.920443,4.3357944,0.0,0.0,0.0
20406341770468,0.70348984,8.9013,4.321438,0.0,0.0,0.0
20406344149531,0.7082755,8.891729,4.3262234,0.0,0.0,0.0
20406346528645,0.7513463,8.877372,4.316652,0.0,0.0,0.0
20406348907708,0.79441714,8.867801,4.2975097,0.0,0.0,0.0
20406351286770,0.82313097,8.877372,4.287938,0.0,0.0,0.0
20406353665885,0.8662018,8.882157,4.2687955,0.0,0.0,0.0
20406356044947,0.89013004,8.872586,4.249653,0.0,0.0,0.0
20406358424062,0.9284152,8.867801,4.23051,0.0,0.0,0.0
20406360803125,0.95712906,8.867801,4.211368,0.0,0.0,0.0
20406363182239,0.9810573,8.872586,4.2161536,0.0,0.0,0.0
20406365561302,0.9762716,8.872586,4.2161536,0.0,0.0,0.0
20406367940364,0.95712906,8.867801,4.211368,0.0,0.0,0.0
20406370319479,0.9762716,8.882157,4.2017965,0.0,0.0,0.0
20406372698541,0.9667004,8.896515,4.1778684,0.0,0.0,0.0
20406375077656,0.95712906,8.872586,4.1587257,0.0,0.0,0.0
20406377456718,0.91884387,8.882157,4.1491547,0.0,0.0,0.0
20406379835833,0.89491564,8.9108715,4.173083,0.0,0.0,0.0
20406382214895,0.8805587,8.925228,4.168297,0.0,0.0,0.0
20406384593958,0.8757731,8.930014,4.1922255,0.0,0.0,0.0
20406386973072,0.83748794,8.987442,4.197011,0.0,0.0,0.0
20406389352083,0.83748794,9.006584,4.1778684,0.0,0.0,0.0
20406391731250,0.8327023,8.992228,4.130012,0.0,0.0,0.0
20406394110312,0.8327023,9.016156,4.15394,0.0,0.0,0.0
20406396489375,0.83748794,9.040084,4.1587257,0.0,0.0,0.0
20406398868489,0.8566305,9.020942,4.168297,0.0,0.0,0.0
20406401247552,0.8662018,9.035298,4.15394,0.0,0.0,0.0
20406403626666,0.91405827,9.030513,4.139583,0.0,0.0,0.0
20406406005729,0.93320084,9.020942,4.1347976,0.0,0.0,0.0
20406408384843,1.0001999,9.006584,4.106084,0.0,0.0,0.0
20406410763906,1.0145568,9.001799,4.072584,0.0,0.0,0.0
20406413142968,1.0624132,8.997013,4.072584,0.0,0.0,0.0
20406415522083,1.0911272,8.968299,4.0534415,0.0,0.0,0.0
20406417901145,1.119841,8.939586,4.0390844,0.0,0.0,0.0
20406420280260,1.1006985,8.949157,4.048656,0.0,0.0,0.0
20406422659270,1.0959128,8.958728,4.024728,0.0,0.0,0.0
20406425038385,1.0671989,8.925228,3.991228,0.0,0.0,0.0
20406427417500,1.0480564,8.9108715,3.9864426,0.0,0.0,0.0
20406429796562,1.0049855,8.915657,3.9768713,0.0,0.0,0.0
20406432175677,0.95712906,8.915657,3.991228,0.0,0.0,0.0
20406434554739,0.8805587,8.915657,4.005585,0.0,0.0,0.0
20406436933854,0.8279166,8.9108715,4.0151563,0.0,0.0,0.0
20406439312916,0.7896315,8.939586,4.0103707,0.0,0.0,0.0
20406441691979,0.75613195,8.944371,3.991228,0.0,0.0,0.0
20406444071093,0.72741807,8.953942,3.9720855,0.0,0.0,0.0
20406446450156,0.7082755,8.987442,3.9720855,0.0,0.0,0.0
20406448829270,0.70348984,9.006584,3.9816568,0.0,0.0,0.0
20406451208229,0.75613195,9.006584,4.0007997,0.0,0.0,0.0
20406453587395,0.7800602,8.997013,4.0295134,0.0,0.0,0.0
20406455966510,0.8135597,9.001799,4.0438704,0.0,0.0,0.0
20406458345572,0.8662018,9.001799,4.024728,0.0,0.0,0.0
20406460724687,0.9284152,9.044869,4.019942,0.0,0.0,0.0
20406463103750,0.971486,9.040084,3.991228,0.0,0.0,0.0
20406465482864,0.9906286,9.01137,3.9864426,0.0,0.0,0.0
20406467861927,1.038485,8.987442,3.991228,0.0,0.0,0.0
20406470240989,1.0815558,8.992228,3.9960139,0.0,0.0,0.0
20406472620104,1.1102697,8.9826565,3.9960139,0.0,0.0,0.0
20406474999166,1.1102697,8.963513,4.0103707,0.0,0.0,0.0
20406477378281,1.0863415,8.953942,4.0007997,0.0,0.0,0.0
20406479757343,1.0767702,8.939586,3.991228,0.0,0.0,0.0
20406482136354,1.0480564,8.953942,3.9768713,0.0,0.0,0.0
20406484515520,1.0289137,8.9348,3.991228,0.0,0.0,0.0
20406486894583,1.0145568,8.9108715,3.991228,0.0,0.0,0.0
20406489273697,0.9954142,8.925228,3.9864426,0.0,0.0,0.0
20406491652760,0.95712906,8.949157,4.0103707,0.0,0.0,0.0
20406494031822,0.9379865,8.9348,4.019942,0.0,0.0,0.0
20406496410937,0.9379865,8.925228,4.024728,0.0,0.0,0.0
20406498790000,0.9236295,8.925228,4.019942,0.0,0.0,0.0
20406501169114,0.91884387,8.939586,4.019942,0.0,0.0,0.0
20406503548177,0.91884387,8.949157,4.0103707,0.0,0.0,0.0
20406505927291,0.93320084,8.925228,4.034299,0.0,0.0,0.0
20406508306354,0.93320084,8.9348,4.034299,0.0,0.0,0.0
20406510685416,0.9236295,8.944371,4.048656,0.0,0.0,0.0
20406513064531,0.9619147,8.944371,4.034299,0.0,0.0,0.0
20406515443593,0.9619147,8.949157,4.048656,0.0,0.0,0.0
20406517822708,0.9284152,8.953942,4.0534415,0.0,0.0,0.0
20406520201770,0.9236295,8.963513,4.0438704,0.0,0.0,0.0
20406522580833,0.89013004,8.992228,4.0534415,0.0,0.0,0.0
20406524959947,0.82313097,9.001799,4.048656,0.0,0.0,0.0
20406527339010,0.79441714,9.001799,4.048656,0.0,0.0,0.0
20406529718125,0.7513463,8.992228,4.063013,0.0,0.0,0.0
20406532097187,0.72263247,9.01137,4.048656,0.0,0.0,0.0
20406534476250,0.6556334,8.992228,4.0438704,0.0,0.0,0.0
20406536855364,0.61734825,9.01137,4.019942,0.0,0.0,0.0
20406539234427,0.57427746,9.006584,4.034299,0.0,0.0,0.0
20406541613541,0.55034924,8.9826565,4.0534415,0.0,0.0,0.0
20406543992604,0.53599226,8.977871,4.058227,0.0,0.0,0.0
20406546371718,0.5599205,9.01137,4.0677986,0.0,0.0,0.0
20406548750781,0.5886344,9.01137,4.072584,0.0,0.0,0.0
20406551129843,0.6125626,9.001799,4.0773697,0.0,0.0,0.0
20406553508958,0.6364908,8.977871,4.0677986,0.0,0.0,0.0
20406555888020,0.6987042,8.977871,4.0677986,0.0,0.0,0.0
20406558267135,0.75613195,8.987442,4.072584,0.0,0.0,0.0
20406560646145,0.81834537,9.020942,4.0773697,0.0,0.0,0.0
20406563025312,0.86141616,9.006584,4.082155,0.0,0.0,0.0
20406565404375,0.9284152,8.977871,4.0773697,0.0,0.0,0.0
20406567783437,0.9810573,8.977871,4.091727,0.0,0.0,0.0
20406570162552,0.9906286,8.973084,4.1108694,0.0,0.0,0.0
20406572541614,1.038485,8.968299,4.115655,0.0,0.0,0.0
20406574920677,1.0432707,8.968299,4.125226,0.0,0.0,0.0
20406577299791,1.0624132,8.973084,4.130012,0.0,0.0,0.0
20406579678854,1.0432707,8.958728,4.139583,0.0,0.0,0.0
20406582057968,1.0289137,8.958728,4.139583,0.0,0.0,0.0
20406584437031,1.0001999,8.968299,4.1443686,0.0,0.0,0.0
20406586816145,0.9619147,8.992228,4.139583,0.0,0.0,0.0
20406589195208,0.94277215,8.958728,4.1587257,0.0,0.0,0.0
20406591574270,0.8997013,8.973084,4.173083,0.0,0.0,0.0
20406593953385,0.89491564,8.973084,4.173083,0.0,0.0,0.0
20406596332447,0.8805587,8.958728,4.1874394,0.0,0.0,0.0
20406598711562,0.86141616,8.949157,4.182654,0.0,0.0,0.0
20406601090625,0.86141616,8.944371,4.206582,0.0,0.0,0.0
20406603469687,0.8662018,8.915657,4.1922255,0.0,0.0,0.0
20406605848802,0.8853444,8.882157,4.1874394,0.0,0.0,0.0
20406608227864,0.8997013,8.872586,4.197011,0.0,0.0,0.0
20406610606979,0.9284152,8.891729,4.206582,0.0,0.0,0.0
20406612986041,0.95712906,8.877372,4.2017965,0.0,0.0,0.0
20406615365156,0.95712906,8.867801,4.1874394,0.0,0.0,0.0
20406617744218,0.95712906,8.834301,4.1874394,0.0,0.0,0.0
20406620123281,0.9236295,8.796016,4.1874394,0.0,0.0,0.0
20406622502395,0.91405827,8.815159,4.1922255,0.0,0.0,0.0
20406624881458,0.8805587,8.805588,4.197011,0.0,0.0,0.0
20406627260572,0.8470592,8.786445,4.2017965,0.0,0.0,0.0
20406629639635,0.7848458,8.805588,4.220939,0.0,0.0,0.0
20406632018697,0.72263247,8.805588,4.211368,0.0,0.0,0.0
20406634397812,0.6652047,8.815159,4.211368,0.0,0.0,0.0
20406636776875,0.61734825,8.839087,4.206582,0.0,0.0,0.0
20406639155989,0.59342,8.863015,4.211368,0.0,0.0,0.0
20406641535052,0.5694918,8.867801,4.2352962,0.0,0.0,0.0
20406643914166,0.526421,8.867801,4.240082,0.0,0.0,0.0
20406646293229,0.5168497,8.896515,4.249653,0.0,0.0,0.0
20406648672291,0.53599226,8.9013,4.249653,0.0,0.0,0.0
20406651051406,0.56470615,8.9013,4.2592244,0.0,0.0,0.0
20406653430468,0.5838487,8.939586,4.2831526,0.0,0.0,0.0
20406655809583,0.6412765,8.953942,4.287938,0.0,0.0,0.0
20406658188645,0.6987042,8.9348,4.287938,0.0,0.0,0.0
20406660567708,0.7513463,8.915657,4.3070807,0.0,0.0,0.0
20406662946822,0.81834537,8.949157,4.3118663,0.0,0.0,0.0
20406665325885,0.8662018,8.925228,4.2975097,0.0,0.0,0.0
20406667705000,0.91884387,8.906086,4.26401,0.0,0.0,0.0
20406670084062,0.9523434,8.872586,4.273581,0.0,0.0,0.0
20406672463072,0.9619147,8.877372,4.2687955,0.0,0.0,0.0
20406674842239,0.9523434,8.882157,4.278367,0.0,0.0,0.0
20406677221302,0.9762716,8.886943,4.278367,0.0,0.0,0.0
20406679600416,0.9523434,8.85823,4.287938,0.0,0.0,0.0
20406681979479,0.91405827,8.877372,4.273581,0.0,0.0,0.0
20406684358489,0.89491564,8.85823,4.2687955,0.0,0.0,0.0
20406686737656,0.8470592,8.863015,4.26401,0.0,0.0,0.0
20406689116666,0.83748794,8.848659,4.278367,0.0,0.0,0.0
20406691495833,0.8135597,8.863015,4.278367,0.0,0.0,0.0
20406693874895,0.8135597,8.85823,4.2927237,0.0,0.0,0.0
20406696253958,0.8039884,8.872586,4.287938,0.0,0.0,0.0
20406698633072,0.79441714,8.867801,4.287938,0.0,0.0,0.0
20406701012135,0.81834537,8.85823,4.2927237,0.0,0.0,0.0
20406703391250,0.82313097,8.863015,4.3118663,0.0,0.0,0.0
20406705770312,0.80877405,8.872586,4.331009,0.0,0.0,0.0
20406708149427,0.8470592,8.891729,4.345366,0.0,0.0,0.0
20406710528489,0.86141616,8.882157,4.3262234,0.0,0.0,0.0
20406712907552,0.8757731,8.896515,4.331009,0.0,0.0,0.0
20406715286666,0.89013004,8.877372,4.345366,0.0,0.0,0.0
20406717665729,0.8997013,8.863015,4.331009,0.0,0.0,0.0
20406720044843,0.9092726,8.839087,4.331009,0.0,0.0,0.0
20406722423906,0.91884387,8.853444,4.331009,0.0,0.0,0.0
20406724802968,0.94755775,8.853444,4.3262234,0.0,0.0,0.0
20406727182083,0.94755775,8.85823,4.321438,0.0,0.0,0.0
20406729561145,0.9284152,8.85823,4.302295,0.0,0.0,0.0
20406731940260,0.91884387,8.848659,4.2927237,0.0,0.0,0.0
20406734319322,0.8997013,8.85823,4.2927237,0.0,0.0,0.0
20406736698437,0.8853444,8.877372,4.273581,0.0,0.0,0.0
20406739077447,0.8422736,8.848659,4.2687955,0.0,0.0,0.0
20406741456562,0.80877405,8.834301,4.278367,0.0,0.0,0.0
20406743835677,0.79441714,8.843872,4.26401,0.0,0.0,0.0
20406746214739,0.7752745,8.829515,4.2448673,0.0,0.0,0.0
20406748593802,0.7609176,8.834301,4.2352962,0.0,0.0,0.0
20406750972916,0.74177504,8.839087,4.2257247,0.0,0.0,0.0
20406753351979,0.76570326,8.853444,4.206582,0.0,0.0,0.0
20406755731093,0.7800602,8.853444,4.23051,0.0,0.0,0.0
20406758110156,0.7896315,8.877372,4.2592244,0.0,0.0,0.0
20406760489270,0.7896315,8.872586,4.2687955,0.0,0.0,0.0
20406762868333,0.8039884,8.843872,4.278367,0.0,0.0,0.0
20406765247395,0.8039884,8.853444,4.2448673,0.0,0.0,0.0
20406767626510,0.8135597,8.891729,4.220939,0.0,0.0,0.0
20406770005572,0.80877405,8.891729,4.2257247,0.0,0.0,0.0
20406772384687,0.80877405,8.9013,4.249653,0.0,0.0,0.0
20406774763750,0.82313097,8.896515,4.2448673,0.0,0.0,0.0
20406777142812,0.83748794,8.915657,4.2592244,0.0,0.0,0.0
20406779521927,0.83748794,8.915657,4.240082,0.0,0.0,0.0
20406781900989,0.83748794,8.920443,4.23051,0.0,0.0,0.0
20406784280104,0.8422736,8.915657,4.211368,0.0,0.0,0.0
20406786659166,0.82313097,8.9108715,4.1922255,0.0,0.0,0.0
20406789038281,0.8327023,8.920443,4.2017965,0.0,0.0,0.0
20406791417343,0.80877405,8.915657,4.23051,0.0,0.0,0.0
20406793796406,0.79920274,8.930014,4.220939,0.0,0.0,0.0
20406796175520,0.8135597,8.930014,4.1922255,0.0,0.0,0.0
20406798554583,0.83748794,8.949157,4.197011,0.0,0.0,0.0
20406800933697,0.8422736,8.920443,4.220939,0.0,0.0,0.0
20406803312760,0.85184485,8.915657,4.23051,0.0,0.0,0.0
20406805691822,0.8709874,8.925228,4.206582,0.0,0.0,0.0
20406808070937,0.8997013,8.9348,4.1778684,0.0,0.0,0.0
20406810450000,0.90448695,8.944371,4.173083,0.0,0.0,0.0
20406812829114,0.94277215,8.963513,4.1922255,0.0,0.0,0.0
20406815208177,0.9523434,8.944371,4.240082,0.0,0.0,0.0
20406817587239,0.971486,8.915657,4.26401,0.0,0.0,0.0
20406819966354,0.9762716,8.906086,4.2592244,0.0,0.0,0.0
20406822345416,0.971486,8.915657,4.2352962,0.0,0.0,0.0
20406824724531,0.93320084,8.886943,4.197011,0.0,0.0,0.0
20406827103593,0.8853444,8.85823,4.173083,0.0,0.0,0.0
20406829482656,0.85184485,8.863015,4.173083,0.0,0.0,0.0
20406831861770,0.8135597,8.85823,4.168297,0.0,0.0,0.0
20406834240833,0.7513463,8.839087,4.1491547,0.0,0.0,0.0
20406836619947,0.6987042,8.800801,4.139583,0.0,0.0,0.0
20406838999010,0.6125626,8.805588,4.1204405,0.0,0.0,0.0
20406841378125,0.55513483,8.800801,4.1108694,0.0,0.0,0.0
20406843757187,0.5024927,8.810373,4.058227,0.0,0.0,0.0
20406846136250,0.44506502,8.810373,4.0438704,0.0,0.0,0.0
20406848515364,0.40677986,8.810373,4.0534415,0.0,0.0,0.0
20406850894427,0.37328035,8.829515,4.048656,0.0,0.0,0.0
20406853273489,0.3493521,8.843872,4.063013,0.0,0.0,0.0
20406855652604,0.3493521,8.872586,4.091727,0.0,0.0,0.0
20406858031666,0.39720857,8.906086,4.091727,0.0,0.0,0.0
20406860410781,0.4211368,8.9348,4.091727,0.0,0.0,0.0
20406862789843,0.4642076,9.001799,4.101298,0.0,0.0,0.0
20406865168906,0.5024927,9.020942,4.1204405,0.0,0.0,0.0
20406867548020,0.55034924,9.049655,4.15394,0.0,0.0,0.0
20406869927083,0.6125626,9.0544405,4.182654,0.0,0.0,0.0
20406872306197,0.66041905,9.078369,4.206582,0.0,0.0,0.0
20406874685260,0.7513463,9.107083,4.220939,0.0,0.0,0.0
20406877064375,0.8327023,9.111869,4.2448673,0.0,0.0,0.0
20406879443437,0.8662018,9.068798,4.2687955,0.0,0.0,0.0
20406881822500,0.91405827,9.068798,4.2831526,0.0,0.0,0.0
20406884201614,0.95712906,9.040084,4.302295,0.0,0.0,0.0
20406886580677,0.9954142,8.997013,4.302295,0.0,0.0,0.0
20406888959791,1.0241281,8.939586,4.287938,0.0,0.0,0.0
20406891338854,1.0241281,8.863015,4.2927237,0.0,0.0,0.0
20406893717916,1.0097711,8.800801,4.2831526,0.0,0.0,0.0
20406896097031,0.9810573,8.7673025,4.254439,0.0,0.0,0.0
20406898476093,0.95712906,8.729017,4.211368,0.0,0.0,0.0
20406900855208,0.90448695,8.662018,4.1635113,0.0,0.0,0.0
20406903234270,0.90448695,8.580662,4.0965123,0.0,0.0,0.0
20406905613385,0.8853444,8.504091,3.9481573,0.0,0.0,0.0
20406907992447,0.82313097,8.575876,3.8237305,0.0,0.0,0.0
20406910371510,0.8662018,8.623733,3.6801612,0.0,0.0,0.0
20406912750625,0.8327023,8.618947,3.6514473,0.0,0.0,0.0
20406915129687,0.94277215,8.623733,3.6849468,0.0,0.0,0.0
20406917508802,0.9667004,8.700303,3.6801612,0.0,0.0,0.0
20406919887864,1.052842,8.82473,3.6131623,0.0,0.0,0.0
20406922266927,1.0671989,8.949157,3.5653057,0.0,0.0,0.0
20406924646041,1.134198,9.064013,3.6849468,0.0,0.0,0.0
20406927025104,1.1581261,8.997013,3.8955152,0.0,0.0,0.0
20406929404218,1.1581261,9.035298,4.278367,0.0,0.0,0.0
20406931783281,1.1150553,9.346365,5.0392847,0.0,0.0,0.0
20406934162343,1.0959128,9.475577,5.3886366,0.0,0.0,0.0
20406936541458,0.8709874,9.489935,5.029713,0.0,0.0,0.0
20406938920520,0.72263247,9.609575,4.4171505,0.0,0.0,0.0
20406941299635,0.5982057,9.556933,4.1443686,0.0,0.0,0.0
20406943678697,0.4881358,9.30808,3.9864426,0.0,0.0,0.0
20406946057760,0.11485548,9.212367,3.9720855,0.0,0.0,0.0
20406948436875,-0.009571291,9.274581,4.005585,0.0,0.0,0.0
20406950815937,-0.17228323,9.23151,3.9338005,0.0,0.0,0.0
20406953195052,-0.44985065,9.193225,4.063013,0.0,0.0,0.0
20406955574114,-0.41635114,8.953942,4.125226,0.0,0.0,0.0
20406957953177,-0.44027936,8.891729,4.173083,0.0,0.0,0.0
20406960332291,-0.44985065,8.7673025,3.9864426,0.0,0.0,0.0
20406962711354,-0.3493521,8.690732,3.790231,0.0,0.0,0.0
20406965090468,-0.13399807,8.585447,3.6801612,0.0,0.0,0.0
20406967469531,0.0,8.551949,3.8811584,0.0,0.0,0.0
20406969848593,0.22971097,8.49452,4.2017965,0.0,0.0,0.0
20406972227708,0.4977071,8.46102,4.4985065,0.0,0.0,0.0
20406974606770,0.7322037,8.523234,4.642076,0.0,0.0,0.0
20406976985885,0.9810573,8.523234,4.5272202,0.0,0.0,0.0
20406979364947,1.1485549,8.609376,4.3405805,0.0,0.0,0.0
20406981744062,1.3112668,8.729017,4.26401,0.0,0.0,0.0
20406984123125,1.3782659,8.743374,4.2687955,0.0,0.0,0.0
20406986502187,1.4261223,8.719446,4.359723,0.0,0.0,0.0
20406988881302,1.4979069,8.709874,4.3740797,0.0,0.0,0.0
20406991260364,1.4213367,8.863015,4.26401,0.0,0.0,0.0
20406993639427,1.3447664,8.987442,4.1922255,0.0,0.0,0.0
20406996018541,1.2442678,9.035298,4.2975097,0.0,0.0,0.0
20406998397604,1.1964114,9.08794,4.493721,0.0,0.0,0.0
20407000776718,1.0671989,9.12144,4.6612186,0.0,0.0,0.0
20407003155781,0.9762716,9.083155,4.723432,0.0,0.0,0.0
20407005534895,0.94755775,9.016156,4.5415773,0.0,0.0,0.0
20407007913958,0.8327023,9.059227,4.206582,0.0,0.0,0.0
20407010293020,0.8279166,8.987442,3.8093736,0.0,0.0,0.0
20407012672135,0.7800602,8.939586,3.694518,0.0,0.0,0.0
20407015051197,0.8327023,8.9108715,3.8237305,0.0,0.0,0.0
20407017430312,0.80877405,8.882157,4.1108694,0.0,0.0,0.0
20407019809375,0.8853444,8.810373,4.287938,0.0,0.0,0.0
20407022188437,0.9762716,8.819944,4.211368,0.0,0.0,0.0
20407024567552,1.0241281,8.9108715,3.9481573,0.0,0.0,0.0
20407026946614,1.0815558,8.939586,3.656233,0.0,0.0,0.0
20407029325677,1.119841,9.001799,3.507878,0.0,0.0,0.0
20407031704791,1.1437693,9.059227,3.5605202,0.0,0.0,0.0
20407034083854,1.1389836,9.097511,3.7615173,0.0,0.0,0.0
20407036462968,1.134198,9.097511,3.8907297,0.0,0.0,0.0
20407038841979,1.0624132,9.169296,3.900301,0.0,0.0,0.0
20407041221145,0.9762716,9.226724,3.790231,0.0,0.0,0.0
20407043600208,0.8853444,9.226724,3.641876,0.0,0.0,0.0
20407045979270,0.7082755,9.255438,3.5892339,0.0,0.0,0.0
20407048358385,0.5312066,9.284152,3.6897326,0.0,0.0,0.0
20407050737447,0.36370903,9.241081,3.9050865,0.0,0.0,0.0
20407053116562,0.16271193,9.221938,4.0869412,0.0,0.0,0.0
20407055495625,-0.033499517,9.23151,4.220939,0.0,0.0,0.0
20407057874687,-0.16271193,9.212367,4.1874394,0.0,0.0,0.0
20407060253802,-0.26799613,9.19801,4.0534415,0.0,0.0,0.0
20407062632864,-0.3589234,9.19801,3.9290147,0.0,0.0,0.0
20407065011979,-0.36370903,9.145369,3.8668015,0.0,0.0,0.0
20407067391041,-0.33499518,9.030513,3.8476589,0.0,0.0,0.0
20407069770104,-0.25842485,9.049655,3.9290147,0.0,0.0,0.0
20407072149218,-0.17706887,9.15494,4.082155,0.0,0.0,0.0
20407074528281,-0.033499517,9.064013,4.082155,0.0,0.0,0.0
20407076907395,0.12921242,8.997013,3.9194436,0.0,0.0,0.0
20407079286458,0.22971097,9.145369,3.7471602,0.0,0.0,0.0
20407081665520,0.3589234,9.097511,3.6179478,0.0,0.0,0.0
20407084044635,0.4211368,8.992228,3.6993039,0.0,0.0,0.0
20407086423697,0.51206404,8.925228,3.8620157,0.0,0.0,0.0
20407088802812,0.51206404,8.877372,4.106084,0.0,0.0,0.0
20407091181875,0.6269195,8.71466,4.220939,0.0,0.0,0.0
20407093560989,0.6364908,8.657232,4.2017965,0.0,0.0,0.0
20407095940052,0.64606214,8.724232,4.0869412,0.0,0.0,0.0
20407098319062,0.66999036,8.743374,3.9960139,0.0,0.0,0.0
20407100698229,0.64606214,8.781659,4.0151563,0.0,0.0,0.0
20407103077291,0.59342,8.863015,4.1204405,0.0,0.0,0.0
20407105456354,0.5072784,8.925228,4.278367,0.0,0.0,0.0
20407107835468,0.4881358,9.001799,4.354937,0.0,0.0,0.0
20407110214531,0.44985065,9.092726,4.3357944,0.0,0.0,0.0
20407112593645,0.4354937,9.164511,4.2161536,0.0,0.0,0.0
20407114972708,0.4211368,9.212367,4.115655,0.0,0.0,0.0
20407117351770,0.51206404,9.226724,4.048656,0.0,0.0,0.0
20407119730885,0.5982057,9.250652,4.0773697,0.0,0.0,0.0
20407122109947,0.6843473,9.241081,4.1347976,0.0,0.0,0.0
20407124489062,0.8039884,9.212367,4.182654,0.0,0.0,0.0
20407126868072,0.91884387,9.226724,4.173083,0.0,0.0,0.0
20407129247187,1.0001999,9.19801,4.048656,0.0,0.0,0.0
20407131626302,1.0863415,9.212367,3.9433718,0.0,0.0,0.0
20407134005364,1.0863415,9.226724,3.818945,0.0,0.0,0.0
20407136384479,1.0049855,9.174082,3.7615173,0.0,0.0,0.0
20407138763541,0.7513463,9.174082,3.7806597,0.0,0.0,0.0
20407141142604,0.526421,9.221938,3.790231,0.0,0.0,0.0
20407143521718,0.27756742,9.3511505,3.8572302,0.0,0.0,0.0
20407145900781,-0.19621146,9.518648,3.7806597,0.0,0.0,0.0
20407148279895,-0.95712906,9.561719,3.7328033,0.0,0.0,0.0
20407150658958,-0.9284152,9.265009,3.6370904,0.0,0.0,0.0
20407153038020,-1.0671989,9.073584,3.7280176,0.0,0.0,0.0
20407155417135,-1.3591232,9.040084,3.6658044,0.0,0.0,0.0
20407157796197,-1.713261,8.987442,3.641876,0.0,0.0,0.0
20407160175312,-1.3974084,8.796016,3.6753755,0.0,0.0,0.0
20407162554375,-1.3734802,8.676374,3.6179478,0.0,0.0,0.0
20407164933437,-1.3830515,8.848659,3.6083765,0.0,0.0,0.0
20407167312552,-0.9667004,8.7577305,3.6370904,0.0,0.0,0.0
20407169691614,-0.4019942,8.633304,3.751946,0.0,0.0,0.0
20407172070729,-0.16749759,8.580662,3.7806597,0.0,0.0,0.0
20407174449791,0.086141616,8.815159,3.9481573,0.0,0.0,0.0
20407176828854,0.72263247,8.781659,3.9673,0.0,0.0,0.0
20407179207968,1.3064811,8.82473,3.9625144,0.0,0.0,0.0
20407181587031,1.5553347,8.953942,3.9338005,0.0,0.0,0.0
20407183966145,1.8041883,9.164511,4.0390844,0.0,0.0,0.0
20407186345208,2.2348964,9.0544405,4.034299,0.0,0.0,0.0
20407188724270,2.5411777,9.030513,4.1204405,0.0,0.0,0.0
20407191103385,2.5938199,9.097511,4.1635113,0.0,0.0,0.0
20407193482447,2.5268207,9.188439,4.130012,0.0,0.0,0.0
20407195861562,2.3976083,9.145369,4.024728,0.0,0.0,0.0
20407198240625,2.1296122,9.23151,3.991228,0.0,0.0,0.0
20407200619739,1.6510476,9.2793665,3.871587,0.0,0.0,0.0
20407202998802,1.1294123,9.317652,3.885944,0.0,0.0,0.0
20407205377864,0.6795616,9.269794,4.024728,0.0,0.0,0.0
20407207756979,0.2536392,9.303294,4.249653,0.0,0.0,0.0
20407210136041,-0.148355,9.288938,4.3405805,0.0,0.0,0.0
20407212515156,-0.37328035,9.2793665,4.3645086,0.0,0.0,0.0
20407214894218,-0.44027936,9.193225,4.254439,0.0,0.0,0.0
20407217273281,-0.5168497,9.2075815,4.1443686,0.0,0.0,0.0
20407219652395,-0.5168497,9.169296,4.0534415,0.0,0.0,0.0
20407222031458,-0.37806597,9.131011,4.115655,0.0,0.0,0.0
20407224410572,-0.11964113,9.049655,4.240082,0.0,0.0,0.0
20407226789635,0.14356937,8.992228,4.26401,0.0,0.0,0.0
20407229168697,0.4019942,8.997013,4.1922255,0.0,0.0,0.0
20407231547812,0.7465607,8.997013,4.091727,0.0,0.0,0.0
20407233926875,1.0815558,8.939586,3.9768713,0.0,0.0,0.0
20407236305937,1.3256238,8.877372,3.9098723,0.0,0.0,0.0
20407238685052,1.5314065,8.848659,3.9481573,0.0,0.0,0.0
20407241064114,1.7180467,8.786445,4.082155,0.0,0.0,0.0
20407243443229,1.8424734,8.743374,4.1778684,0.0,0.0,0.0
20407245822291,1.8711873,8.748159,4.2448673,0.0,0.0,0.0
20407248201406,1.8041883,8.729017,4.2161536,0.0,0.0,0.0
20407250580468,1.6366907,8.695518,4.101298,0.0,0.0,0.0
20407252959531,1.3734802,8.719446,4.019942,0.0,0.0,0.0
20407255338645,1.0863415,8.690732,4.048656,0.0,0.0,0.0
20407257717708,0.7322037,8.681161,4.182654,0.0,0.0,0.0
20407260096770,0.3684947,8.690732,4.2975097,0.0,0.0,0.0
20407262475885,0.0047856453,8.743374,4.421936,0.0,0.0,0.0
20407264854947,-0.2727818,8.7673025,4.469793,0.0,0.0,0.0
20407267234062,-0.5024927,8.819944,4.3501515,0.0,0.0,0.0
20407269613125,-0.64606214,8.839087,4.168297,0.0,0.0,0.0
20407271992187,-0.72263247,8.853444,4.091727,0.0,0.0,0.0
20407274371302,-0.7800602,8.877372,4.130012,0.0,0.0,0.0
20407276750364,-0.7513463,8.85823,4.287938,0.0,0.0,0.0
20407279129479,-0.6412765,8.829515,4.4554358,0.0,0.0,0.0
20407281508541,-0.52163535,8.772088,4.45065,0.0,0.0,0.0
20407283887604,-0.36370903,8.829515,4.3932223,0.0,0.0,0.0
20407286266718,-0.16749759,8.853444,4.2687955,0.0,0.0,0.0
20407288645781,0.07178468,8.781659,4.1635113,0.0,0.0,0.0
20407291024895,0.2105684,8.738588,4.211368,0.0,0.0,0.0
20407293403958,0.37328035,8.738588,4.412365,0.0,0.0,0.0
20407295783020,0.43070808,8.685946,4.651647,0.0,0.0,0.0
20407298162135,0.4354937,8.623733,4.7138605,0.0,0.0,0.0
20407300541197,0.37328035,8.623733,4.6325045,0.0,0.0,0.0
20407302920312,0.28235307,8.724232,4.5655055,0.0,0.0,0.0
20407305299375,0.16749759,8.676374,4.3405805,0.0,0.0,0.0
20407307678437,0.014356935,8.796016,4.369294,0.0,0.0,0.0
20407310057552,-0.05742774,8.834301,4.575077,0.0,0.0,0.0
20407312436614,-0.25842485,8.662018,4.7425747,0.0,0.0,0.0
20407314815729,-0.28235307,8.724232,4.8287163,0.0,0.0,0.0
20407317194791,-0.38763726,8.7673025,4.5655055,0.0,0.0,0.0
20407319573854,-0.57427746,8.939586,4.5894337,0.0,0.0,0.0
20407321952968,-0.4881358,8.877372,4.613362,0.0,0.0,0.0
20407324332031,-0.66041905,8.896515,4.5894337,0.0,0.0,0.0
20407326711145,-0.52163535,9.016156,4.45065,0.0,0.0,0.0
20407329090208,-0.42592242,9.049655,4.469793,0.0,0.0,0.0
20407331469270,-0.148355,8.949157,4.618148,0.0,0.0,0.0
20407333848385,-0.019142581,8.915657,4.8382874,0.0,0.0,0.0
20407336227447,0.29671,8.872586,4.871787,0.0,0.0,0.0
20407338606562,0.55034924,8.79123,4.8095737,0.0,0.0,0.0
20407340985625,0.7704889,8.700303,4.6707897,0.0,0.0,0.0
20407343364687,0.9810573,8.733803,4.6325045,0.0,0.0,0.0
20407345743802,1.0289137,8.647661,4.575077,0.0,0.0,0.0
20407348122864,1.0193424,8.595019,4.599005,0.0,0.0,0.0
20407350501979,0.91884387,8.52802,4.6612186,0.0,0.0,0.0
20407352881041,0.7704889,8.618947,4.7138605,0.0,0.0,0.0
20407355260104,0.55034924,8.609376,4.6229334,0.0,0.0,0.0
20407357639166,0.3493521,8.60459,4.5224347,0.0,0.0,0.0
20407360018281,0.12921242,8.676374,4.536792,0.0,0.0,0.0
20407362397343,0.019142581,8.719446,4.5894337,0.0,0.0,0.0
20407364776406,-0.05742774,8.690732,4.699504,0.0,0.0,0.0
20407367155520,0.023928227,8.705089,4.7712884,0.0,0.0,0.0
20407369534635,0.08135597,8.781659,4.8239303,0.0,0.0,0.0
20407371913697,0.3062813,8.729017,4.85743,0.0,0.0,0.0
20407374292812,0.6029913,8.729017,4.9340005,0.0,0.0,0.0
20407376671875,0.8662018,8.738588,4.938786,0.0,0.0,0.0
20407379050937,1.119841,8.690732,4.9579287,0.0,0.0,0.0
20407381430052,1.3734802,8.642876,4.910072,0.0,0.0,0.0
20407383809114,1.5266209,8.63809,4.85743,0.0,0.0,0.0
20407386188177,1.6175481,8.623733,4.843073,0.0,0.0,0.0
20407388567291,1.6893328,8.532805,4.733003,0.0,0.0,0.0
20407390946302,1.6654046,8.456235,4.4315076,0.0,0.0,0.0
20407393325468,1.4979069,8.46102,4.0295134,0.0,0.0,0.0
20407395704479,1.282553,8.441878,3.6275191,0.0,0.0,0.0
20407398083645,1.0193424,8.403593,3.5270207,0.0,0.0,0.0
20407400462708,0.74177504,8.374879,3.7471602,0.0,0.0,0.0
20407402841770,0.4833502,8.398808,4.0773697,0.0,0.0,0.0
20407405220885,0.23449662,8.422736,4.359723,0.0,0.0,0.0
20407407599947,0.24885355,8.3174515,4.26401,0.0,0.0,0.0
20407409979010,0.22013968,8.513663,4.287938,0.0,0.0,0.0
20407412358125,0.51206404,8.5423765,4.388437,0.0,0.0,0.0
20407414737187,0.93320084,8.566305,4.6755753,0.0,0.0,0.0
20407417116302,1.416551,8.671589,4.910072,0.0,0.0,0.0
20407419495364,1.8376877,8.872586,5.168497,0.0,0.0,0.0
20407421874427,2.2875385,8.973084,5.2929235,0.0,0.0,0.0
20407424253541,2.5555346,9.092726,5.3790655,0.0,0.0,0.0
20407426632604,2.6799614,9.327223,5.288138,0.0,0.0,0.0
20407429011718,2.684747,9.394221,4.8765726,0.0,0.0,0.0
20407431390781,2.4646072,9.446864,4.3405805,0.0,0.0,0.0
20407433769843,2.024328,9.461221,3.9864426,0.0,0.0,0.0
20407436148958,1.6606189,9.408579,3.9673,0.0,0.0,0.0
20407438528020,1.2107682,9.332008,4.139583,0.0,0.0,0.0
20407440907135,0.76570326,9.269794,4.273581,0.0,0.0,0.0
20407443286197,0.45942193,9.159725,4.2592244,0.0,0.0,0.0
20407445665260,0.28713873,9.083155,4.1204405,0.0,0.0,0.0
20407448044375,0.23928227,9.020942,3.9625144,0.0,0.0,0.0
20407450423437,0.29671,8.997013,3.9816568,0.0,0.0,0.0
20407452802552,0.38763726,8.762517,4.106084,0.0,0.0,0.0
20407455181614,0.6029913,8.537591,4.1922255,0.0,0.0,0.0
20407457560677,0.6795616,8.671589,4.45065,0.0,0.0,0.0
20407459939791,0.8135597,8.748159,4.56072,0.0,0.0,0.0
20407462318854,0.7848458,8.738588,4.5942197,0.0,0.0,0.0
20407464697916,0.8709874,8.82473,4.412365,0.0,0.0,0.0
20407467077031,0.79920274,9.030513,4.254439,0.0,0.0,0.0
20407469456093,0.7752745,9.020942,4.211368,0.0,0.0,0.0
20407471835208,0.7513463,8.920443,4.45065,0.0,0.0,0.0
20407474214270,0.7848458,8.915657,4.800002,0.0,0.0,0.0
20407476593385,0.8853444,8.863015,4.9770713,0.0,0.0,0.0
20407478972447,0.9906286,8.829515,4.9674997,0.0,0.0,0.0
20407481351510,1.2442678,8.772088,4.7569313,0.0,0.0,0.0
20407483730625,1.3830515,8.719446,4.546363,0.0,0.0,0.0
20407486109687,1.5122639,8.566305,4.426722,0.0,0.0,0.0
20407488488750,1.6127625,8.34138,4.3501515,0.0,0.0,0.0
20407490867864,1.4979069,8.240881,4.5798626,0.0,0.0,0.0
20407493246927,1.579263,8.106883,4.761717,0.0,0.0,0.0
20407495626041,1.1389836,8.087741,4.7425747,0.0,0.0,0.0
20407498005052,0.8709874,8.19781,4.570291,0.0,0.0,0.0
20407500384166,0.4642076,8.221739,4.3645086,0.0,0.0,0.0
20407502763281,-0.038285162,8.360522,4.3070807,0.0,0.0,0.0
20407505142343,-0.44985065,8.432307,4.4171505,0.0,0.0,0.0
20407507521458,-0.70348984,8.499306,4.766503,0.0,0.0,0.0
20407509900520,-0.90448695,8.49452,5.0440702,0.0,0.0,0.0
20407512279583,-1.1389836,8.60459,5.2259245,0.0,0.0,0.0
20407514658697,-0.9523434,8.623733,5.168497,0.0,0.0,0.0
20407517037760,-0.6652047,8.609376,5.0105705,0.0,0.0,0.0
20407519416822,-0.32063824,8.623733,4.766503,0.0,0.0,0.0
20407521795937,0.10049855,8.647661,4.618148,0.0,0.0,0.0
20407524175000,0.6987042,8.609376,4.599005,0.0,0.0,0.0
20407526554114,1.1820544,8.513663,4.6229334,0.0,0.0,0.0
20407528933177,1.5457634,8.52802,4.627719,0.0,0.0,0.0
20407531312239,1.8233309,8.513663,4.4841495,0.0,0.0,0.0
20407533691354,2.024328,8.465807,4.26401,0.0,0.0,0.0
20407536070416,2.009971,8.441878,4.034299,0.0,0.0,0.0
20407538449531,1.8281165,8.499306,3.9242291,0.0,0.0,0.0
20407540828593,1.5696917,8.523234,3.9050865,0.0,0.0,0.0
20407543207656,1.2203395,8.5423765,3.9768713,0.0,0.0,0.0
20407545586770,0.7752745,8.623733,4.058227,0.0,0.0,0.0
20407547965833,0.4019942,8.738588,4.1108694,0.0,0.0,0.0
20407550344947,0.06699903,8.85823,4.0965123,0.0,0.0,0.0
20407552724010,-0.18185452,8.939586,4.024728,0.0,0.0,0.0
20407555103072,-0.3684947,9.059227,4.0677986,0.0,0.0,0.0
20407557482187,-0.47856453,9.150154,4.15394,0.0,0.0,0.0
20407559861250,-0.4977071,9.226724,4.302295,0.0,0.0,0.0
20407562240312,-0.5072784,9.226724,4.45065,0.0,0.0,0.0
20407564619427,-0.4354937,9.2793665,4.5272202,0.0,0.0,0.0
20407566998489,-0.28235307,9.293723,4.4985065,0.0,0.0,0.0
20407569377604,-0.07178468,9.293723,4.4075794,0.0,0.0,0.0
20407571756666,0.17706887,9.265009,4.3118663,0.0,0.0,0.0
20407574135729,0.45942193,9.23151,4.278367,0.0,0.0,0.0
20407576514843,0.79441714,9.159725,4.2975097,0.0,0.0,0.0
20407578893906,1.1629118,9.068798,4.345366,0.0,0.0,0.0
20407581273020,1.4356936,8.997013,4.3788652,0.0,0.0,0.0
20407583652083,1.6654046,8.939586,4.359723,0.0,0.0,0.0
20407586031197,1.875973,8.9013,4.321438,0.0,0.0,0.0
20407588410260,1.9764715,8.877372,4.240082,0.0,0.0,0.0
20407590789322,1.9669002,8.891729,4.2161536,0.0,0.0,0.0
20407593168437,1.7898313,8.886943,4.2448673,0.0,0.0,0.0
20407595547447,1.5074782,8.882157,4.3357944,0.0,0.0,0.0
20407597926562,1.1533405,8.85823,4.3932223,0.0,0.0,0.0
20407600305677,0.74177504,8.863015,4.4410787,0.0,0.0,0.0
20407602684739,0.33020952,8.872586,4.45065,0.0,0.0,0.0
20407605063854,0.009571291,8.85823,4.4315076,0.0,0.0,0.0
20407607442916,-0.22971097,8.853444,4.436293,0.0,0.0,0.0
20407609821927,-0.3924229,8.834301,4.4602213,0.0,0.0,0.0
20407612201093,-0.47856453,8.829515,4.5128636,0.0,0.0,0.0
20407614580156,-0.4881358,8.800801,4.551149,0.0,0.0,0.0
20407616959270,-0.42592242,8.796016,4.546363,0.0,0.0,0.0
20407619338333,-0.2727818,8.786445,4.503292,0.0,0.0,0.0
20407621717395,-0.0526421,8.7577305,4.4554358,0.0,0.0,0.0
20407624096510,0.16271193,8.748159,4.421936,0.0,0.0,0.0
20407626475572,0.38763726,8.709874,4.412365,0.0,0.0,0.0
20407628854635,0.6029913,8.676374,4.436293,0.0,0.0,0.0
20407631233750,0.82313097,8.671589,4.436293,0.0,0.0,0.0
20407633612812,0.9954142,8.676374,4.426722,0.0,0.0,0.0
20407635991927,1.1150553,8.690732,4.436293,0.0,0.0,0.0
20407638370989,1.2251252,8.700303,4.436293,0.0,0.0,0.0
20407640750052,1.3064811,8.738588,4.479364,0.0,0.0,0.0
20407643129166,1.3112668,8.7577305,4.5224347,0.0,0.0,0.0
20407645508229,1.3256238,8.796016,4.5655055,0.0,0.0,0.0
20407647887343,1.2729816,8.815159,4.627719,0.0,0.0,0.0
20407650266406,1.1533405,8.829515,4.6564326,0.0,0.0,0.0
20407652645468,0.9762716,8.853444,4.6707897,0.0,0.0,0.0
20407655024583,0.8135597,8.85823,4.6564326,0.0,0.0,0.0
20407657403645,0.63170516,8.839087,4.6564326,0.0,0.0,0.0
20407659782760,0.4642076,8.839087,4.666004,0.0,0.0,0.0
20407662161822,0.29671,8.829515,4.6707897,0.0,0.0,0.0
20407664540885,0.2105684,8.810373,4.6755753,0.0,0.0,0.0
20407666920000,0.124426775,8.772088,4.651647,0.0,0.0,0.0
20407669299062,0.08135597,8.733803,4.618148,0.0,0.0,0.0
20407671678125,0.086141616,8.681161,4.613362,0.0,0.0,0.0
20407674057239,0.12921242,8.618947,4.599005,0.0,0.0,0.0
20407676436302,0.19142582,8.575876,4.613362,0.0,0.0,0.0
20407678815364,0.31585258,8.5423765,4.6037908,0.0,0.0,0.0
20407681194479,0.4354937,8.480164,4.5894337,0.0,0.0,0.0
20407683573541,0.526421,8.437093,4.5798626,0.0,0.0,0.0
20407685952656,0.55513483,8.422736,4.56072,0.0,0.0,0.0
20407688331718,0.55034924,8.389236,4.546363,0.0,0.0,0.0
20407690710833,0.5168497,8.346166,4.5415773,0.0,0.0,0.0
20407693089895,0.44027936,8.379665,4.5320063,0.0,0.0,0.0
20407695468958,0.3589234,8.427522,4.5128636,0.0,0.0,0.0
20407697848072,0.24885355,8.456235,4.4841495,0.0,0.0,0.0
20407700227135,0.124426775,8.499306,4.4841495,0.0,0.0,0.0
20407702606197,0.0,8.532805,4.5128636,0.0,0.0,0.0
20407704985312,-0.11485548,8.575876,4.5415773,0.0,0.0,0.0
20407707364375,-0.2105684,8.63809,4.5224347,0.0,0.0,0.0
20407709743489,-0.30149564,8.676374,4.503292,0.0,0.0,0.0
20407712122552,-0.37806597,8.748159,4.426722,0.0,0.0,0.0
20407714501614,-0.4211368,8.829515,4.388437,0.0,0.0,0.0
20407716880729,-0.4833502,8.877372,4.4171505,0.0,0.0,0.0
20407719259791,-0.51206404,8.925228,4.479364,0.0,0.0,0.0
20407721638854,-0.51206404,8.930014,4.5320063,0.0,0.0,0.0
20407724017968,-0.52163535,8.9826565,4.570291,0.0,0.0,0.0
20407726397031,-0.46899325,9.025727,4.5798626,0.0,0.0,0.0
20407728776145,-0.4019942,9.035298,4.546363,0.0,0.0,0.0
20407731155208,-0.31106696,9.020942,4.508078,0.0,0.0,0.0
20407733534322,-0.21535404,9.073584,4.503292,0.0,0.0,0.0
20407735913385,-0.07178468,9.150154,4.570291,0.0,0.0,0.0
20407738292447,0.08135597,9.140582,4.584648,0.0,0.0,0.0
20407740671562,0.21535404,9.145369,4.5320063,0.0,0.0,0.0
20407743050625,0.36370903,9.140582,4.426722,0.0,0.0,0.0
20407745429687,0.4833502,9.131011,4.316652,0.0,0.0,0.0
20407747808802,0.57427746,9.097511,4.2687955,0.0,0.0,0.0
20407750187864,0.6221339,9.073584,4.2687955,0.0,0.0,0.0
20407752566979,0.6795616,9.025727,4.2927237,0.0,0.0,0.0
20407754946041,0.66041905,8.953942,4.3070807,0.0,0.0,0.0
20407757325104,0.6269195,8.915657,4.316652,0.0,0.0,0.0
20407759704218,0.57906306,8.896515,4.316652,0.0,0.0,0.0
20407762083281,0.51206404,8.882157,4.316652,0.0,0.0,0.0
20407764462395,0.5024927,8.82473,4.345366,0.0,0.0,0.0
20407766841458,0.49292147,8.800801,4.4171505,0.0,0.0,0.0
20407769220520,0.526421,8.7673025,4.45065,0.0,0.0,0.0
20407771599635,0.59342,8.724232,4.4889355,0.0,0.0,0.0
20407773978697,0.66999036,8.719446,4.4841495,0.0,0.0,0.0
20407776357760,0.79441714,8.705089,4.45065,0.0,0.0,0.0
20407778736875,0.9284152,8.666803,4.3788652,0.0,0.0,0.0
20407781115937,1.0576276,8.652447,4.359723,0.0,0.0,0.0
20407783495052,1.2490535,8.523234,4.23051,0.0,0.0,0.0
20407785874114,1.3591232,8.537591,4.206582,0.0,0.0,0.0
20407788253177,1.3591232,8.465807,4.4410787,0.0,0.0,0.0
20407790632291,1.6223338,8.389236,4.503292,0.0,0.0,0.0
20407793011354,1.5026926,8.537591,4.412365,0.0,0.0,0.0
20407795390468,1.4596218,8.56152,4.2257247,0.0,0.0,0.0
20407797769531,1.4787644,8.523234,4.1108694,0.0,0.0,0.0
20407800148593,1.3495519,8.652447,4.0103707,0.0,0.0,0.0
20407802527708,1.0097711,8.752945,4.034299,0.0,0.0,0.0
20407804906770,0.9523434,8.738588,4.1587257,0.0,0.0,0.0
20407807285833,0.75613195,8.781659,4.254439,0.0,0.0,0.0
20407809664947,0.41156548,8.9348,4.345366,0.0,0.0,0.0
20407812044010,0.2536392,8.977871,4.316652,0.0,0.0,0.0
20407814423125,0.086141616,9.016156,4.211368,0.0,0.0,0.0
20407816802187,-0.16271193,9.107083,4.125226,0.0,0.0,0.0
20407819181250,-0.31106696,9.226724,4.182654,0.0,0.0,0.0
20407821560364,-0.34456646,9.298509,4.3836513,0.0,0.0,0.0
20407823939427,-0.42592242,9.322437,4.5272202,0.0,0.0,0.0
20407826318489,-0.3924229,9.408579,4.575077,0.0,0.0,0.0
20407828697604,-0.19621146,9.389436,4.412365,0.0,0.0,0.0
20407831076614,0.0047856453,9.399008,4.3118663,0.0,0.0,0.0
20407833455781,0.24885355,9.360723,4.278367,0.0,0.0,0.0
20407835834843,0.47377887,9.303294,4.3836513,0.0,0.0,0.0
20407838213958,0.7369894,9.193225,4.465007,0.0,0.0,0.0
20407840593020,0.8757731,9.135797,4.536792,0.0,0.0,0.0
20407842972083,1.0241281,9.0544405,4.4889355,0.0,0.0,0.0
20407845351197,1.0576276,8.963513,4.321438,0.0,0.0,0.0
20407847730260,1.0432707,8.953942,4.182654,0.0,0.0,0.0
20407850109322,0.971486,8.9348,4.115655,0.0,0.0,0.0
20407852488437,0.8470592,8.882157,4.072584,0.0,0.0,0.0
20407854867500,0.6412765,8.848659,4.091727,0.0,0.0,0.0
20407857246614,0.44027936,8.85823,4.101298,0.0,0.0,0.0
20407859625677,0.16271193,8.85823,4.091727,0.0,0.0,0.0
20407862004739,-0.124426775,8.848659,4.019942,0.0,0.0,0.0
20407864383854,-0.39720857,8.872586,4.019942,0.0,0.0,0.0
20407866762916,-0.61734825,8.920443,4.1108694,0.0,0.0,0.0
20407869141979,-0.80877405,8.915657,4.206582,0.0,0.0,0.0
20407871521093,-1.0241281,8.925228,4.287938,0.0,0.0,0.0
20407873900156,-1.1916257,8.949157,4.316652,0.0,0.0,0.0
20407876279270,-1.2969099,8.920443,4.3070807,0.0,0.0,0.0
20407878658333,-1.3591232,8.896515,4.302295,0.0,0.0,0.0
20407881037395,-1.4261223,8.896515,4.3788652,0.0,0.0,0.0
20407883416510,-1.3304094,8.853444,4.4745784,0.0,0.0,0.0
20407885795572,-1.2011969,8.800801,4.546363,0.0,0.0,0.0
20407888174635,-1.0289137,8.743374,4.551149,0.0,0.0,0.0
20407890553750,-0.81834537,8.695518,4.5128636,0.0,0.0,0.0
20407892932812,-0.4833502,8.551949,4.402794,0.0,0.0,0.0
20407895311927,-0.2105684,8.398808,4.345366,0.0,0.0,0.0
20407897690989,0.10049855,8.451449,4.4841495,0.0,0.0,0.0
20407900070052,0.45942193,8.676374,4.6899323,0.0,0.0,0.0
20407902449166,0.75613195,8.82473,4.6899323,0.0,0.0,0.0
20407904828229,0.8997013,8.815159,4.517649,0.0,0.0,0.0
20407907207343,1.2203395,8.939586,4.26401,0.0,0.0,0.0
20407909586406,1.3495519,9.073584,4.0534415,0.0,0.0,0.0
20407911965468,1.3782659,8.968299,4.048656,0.0,0.0,0.0
20407914344583,1.4452649,8.819944,4.26401,0.0,0.0,0.0
20407916723645,1.4452649,8.834301,4.551149,0.0,0.0,0.0
20407919102708,1.3016955,8.800801,4.7042894,0.0,0.0,0.0
20407921481822,1.2107682,8.695518,4.6325045,0.0,0.0,0.0
20407923860833,1.1150553,8.7577305,4.426722,0.0,0.0,0.0
20407926240000,0.8997013,8.829515,4.240082,0.0,0.0,0.0
20407928619062,0.71306115,8.7673025,4.2257247,0.0,0.0,0.0
20407930998125,0.5599205,8.700303,4.3788652,0.0,0.0,0.0
20407933377239,0.31106696,8.685946,4.503292,0.0,0.0,0.0
20407935756302,0.023928227,8.652447,4.575077,0.0,0.0,0.0
20407938135416,-0.18664017,8.647661,4.6325045,0.0,0.0,0.0
20407940514479,-0.35413775,8.681161,4.4554358,0.0,0.0,0.0
20407942893541,-0.49292147,8.738588,4.2017965,0.0,0.0,0.0
20407945272656,-0.55513483,8.748159,4.0677986,0.0,0.0,0.0
20407947651718,-0.5168497,8.743374,4.091727,0.0,0.0,0.0
20407950030781,-0.39720857,8.800801,4.2592244,0.0,0.0,0.0
20407952409895,-0.16749759,8.79123,4.402794,0.0,0.0,0.0
20407954788958,0.12921242,8.810373,4.3357944,0.0,0.0,0.0
20407957168072,0.4977071,8.886943,4.1347976,0.0,0.0,0.0
20407959547135,0.8709874,8.958728,3.9816568,0.0,0.0,0.0
20407961926197,1.2107682,8.977871,3.952943,0.0,0.0,0.0
20407964305312,1.4835501,8.9826565,4.072584,0.0,0.0,0.0
20407966684375,1.7084754,8.953942,4.287938,0.0,0.0,0.0
20407969063437,1.8185452,8.906086,4.479364,0.0,0.0,0.0
20407971442552,1.8185452,8.896515,4.536792,0.0,0.0,0.0
20407973821614,1.7419748,8.915657,4.465007,0.0,0.0,0.0
20407976200729,1.5601203,8.944371,4.302295,0.0,0.0,0.0
20407978579791,1.3112668,8.939586,4.15394,0.0,0.0,0.0
20407980958854,0.98584294,8.958728,4.125226,0.0,0.0,0.0
20407983337968,0.7082755,8.949157,4.2161536,0.0,0.0,0.0
20407985717031,0.40677986,8.9348,4.331009,0.0,0.0,0.0
20407988096145,0.11006984,8.9348,4.321438,0.0,0.0,0.0
20407990475208,-0.13878371,8.973084,4.2448673,0.0,0.0,0.0
20407992854270,-0.31106696,8.997013,4.106084,0.0,0.0,0.0
20407995233385,-0.4019942,9.001799,3.9098723,0.0,0.0,0.0
20407997612447,-0.47377887,9.035298,3.8333018,0.0,0.0,0.0
20407999991510,-0.5312066,8.992228,3.842873,0.0,0.0,0.0
20408002370625,-0.52163535,8.882157,3.9194436,0.0,0.0,0.0
20408004749687,-0.5072784,8.863015,4.0534415,0.0,0.0,0.0
20408007128802,-0.47856453,8.939586,4.2592244,0.0,0.0,0.0
20408009507864,-0.37328035,8.925228,4.1587257,0.0,0.0,0.0
20408011886927,-0.28713873,8.977871,3.885944,0.0,0.0,0.0
20408014266041,-0.17706887,8.992228,3.5988052,0.0,0.0,0.0
20408016645104,-0.043070808,8.968299,3.5126636,0.0,0.0,0.0
20408019024166,0.1052842,8.877372,3.5700915,0.0,0.0,0.0
20408021403281,0.2105684,8.882157,3.694518,0.0,0.0,0.0
20408023782343,0.30149564,8.853444,3.7950168,0.0,0.0,0.0
20408026161458,0.36370903,8.839087,3.7854455,0.0,0.0,0.0
20408028540520,0.41156548,8.886943,3.7136607,0.0,0.0,0.0
20408030919583,0.39720857,8.9826565,3.6658044,0.0,0.0,0.0
20408033298697,0.35413775,9.083155,3.6897326,0.0,0.0,0.0
20408035677760,0.24885355,9.178867,3.751946,0.0,0.0,0.0
20408038056822,0.11964113,9.23151,3.8380876,0.0,0.0,0.0
20408040435937,0.033499517,9.250652,3.8524444,0.0,0.0,0.0
20408042815000,-0.06699903,9.288938,3.8572302,0.0,0.0,0.0
20408045194114,-0.148355,9.370294,3.9625144,0.0,0.0,0.0
20408047573177,-0.22013968,9.394221,4.0869412,0.0,0.0,0.0
20408049952239,-0.2632105,9.413364,4.0773697,0.0,0.0,0.0
20408052331354,-0.29192436,9.518648,3.9625144,0.0,0.0,0.0
20408054710416,-0.21535404,9.556933,3.7758741,0.0,0.0,0.0
20408057089479,-0.11006984,9.547362,3.6897326,0.0,0.0,0.0
20408059468593,0.0,9.446864,3.6514473,0.0,0.0,0.0
20408061847656,0.148355,9.327223,3.7471602,0.0,0.0,0.0
20408064226770,0.2727818,9.188439,3.8763726,0.0,0.0,0.0
20408066605833,0.36370903,9.083155,3.9577286,0.0,0.0,0.0
20408068984895,0.43070808,9.01137,3.8093736,0.0,0.0,0.0
20408071364010,0.4211368,9.040084,3.5892339,0.0,0.0,0.0
20408073743072,0.41156548,9.078369,3.4600215,0.0,0.0,0.0
20408076122135,0.3493521,9.073584,3.493521,0.0,0.0,0.0
20408078501250,0.24885355,9.08794,3.7328033,0.0,0.0,0.0
20408080880312,0.076570325,9.116654,4.0295134,0.0,0.0,0.0
20408083259427,-0.043070808,9.092726,4.211368,0.0,0.0,0.0
20408085638489,-0.15314065,9.08794,4.1778684,0.0,0.0,0.0
20408088017552,-0.18664017,9.150154,3.9433718,0.0,0.0,0.0
20408090396666,-0.2536392,9.145369,3.67059,0.0,0.0,0.0
20408092775729,-0.2536392,9.126225,3.6083765,0.0,0.0,0.0
20408095154843,-0.26799613,9.12144,3.7471602,0.0,0.0,0.0
20408097533906,-0.26799613,9.078369,4.034299,0.0,0.0,0.0
20408099912968,-0.2727818,8.977871,4.273581,0.0,0.0,0.0
20408102292083,-0.2440679,8.973084,4.3405805,0.0,0.0,0.0
20408104671145,-0.20578274,8.939586,4.1922255,0.0,0.0,0.0
20408107050208,-0.11006984,8.930014,4.005585,0.0,0.0,0.0
20408109429322,0.033499517,8.920443,3.885944,0.0,0.0,0.0
20408111808385,0.15314065,8.9108715,3.9673,0.0,0.0,0.0
20408114187500,0.28713873,8.85823,4.1443686,0.0,0.0,0.0
20408116566562,0.40677986,8.848659,4.273581,0.0,0.0,0.0
20408118945625,0.526421,8.829515,4.345366,0.0,0.0,0.0
20408121324739,0.60777694,8.79123,4.2161536,0.0,0.0,0.0
20408123703802,0.57906306,8.882157,4.048656,0.0,0.0,0.0
20408126082864,0.55034924,8.9826565,3.9098723,0.0,0.0,0.0
20408128461979,0.47377887,8.992228,3.9050865,0.0,0.0,0.0
20408130841041,0.29192436,9.025727,4.082155,0.0,0.0,0.0
20408133220104,0.086141616,9.030513,4.402794,0.0,0.0,0.0
20408135599218,-0.05742774,8.987442,4.575077,0.0,0.0,0.0
20408137978229,-0.22971097,8.987442,4.4745784,0.0,0.0,0.0
20408140357395,-0.38763726,9.006584,4.1587257,0.0,0.0,0.0
20408142736458,-0.4881358,8.973084,3.885944,0.0,0.0,0.0
20408145115520,-0.55513483,8.920443,3.818945,0.0,0.0,0.0
20408147494635,-0.61734825,8.85823,3.9673,0.0,0.0,0.0
20408149873697,-0.63170516,8.819944,4.287938,0.0,0.0,0.0
20408152252760,-0.59342,8.786445,4.4985065,0.0,0.0,0.0
20408154631875,-0.5168497,8.781659,4.4554358,0.0,0.0,0.0
20408157010937,-0.41156548,8.85823,4.1778684,0.0,0.0,0.0
20408159390052,-0.25842485,8.920443,3.8333018,0.0,0.0,0.0
20408161769114,-0.11964113,8.963513,3.6897326,0.0,0.0,0.0
20408164148177,0.02871387,9.020942,3.8668015,0.0,0.0,0.0
20408166527291,0.19142582,8.977871,4.1874394,0.0,0.0,0.0
20408168906354,0.3589234,8.9826565,4.4171505,0.0,0.0,0.0
20408171285416,0.44506502,9.078369,4.421936,0.0,0.0,0.0
20408173664531,0.52163535,9.174082,4.1347976,0.0,0.0,0.0
20408176043593,0.55034924,9.212367,3.8093736,0.0,0.0,0.0
20408178422708,0.5168497,9.265009,3.7088752,0.0,0.0,0.0
20408180801770,0.4546363,9.284152,3.8572302,0.0,0.0,0.0
20408183180833,0.32542387,9.2075815,4.0965123,0.0,0.0,0.0
20408185559947,0.17228323,9.2075815,4.287938,0.0,0.0,0.0
20408187939010,-0.019142581,9.255438,4.354937,0.0,0.0,0.0
20408190318072,-0.09571291,9.274581,4.206582,0.0,0.0,0.0
20408192697187,-0.26799613,9.317652,3.9242291,0.0,0.0,0.0
20408195076250,-0.30149564,9.360723,3.6897326,0.0,0.0,0.0
20408197455364,-0.34456646,9.322437,3.6993039,0.0,0.0,0.0
20408199834427,-0.28713873,9.236296,3.9433718,0.0,0.0,0.0
20408202213489,-0.2440679,9.226724,4.240082,0.0,0.0,0.0
20408204592604,-0.11964113,9.188439,4.3357944,0.0,0.0,0.0
20408206971666,-0.0047856453,9.102298,4.139583,0.0,0.0,0.0
20408209350781,0.062213387,9.126225,3.885944,0.0,0.0,0.0
20408211729843,0.16271193,9.12144,3.694518,0.0,0.0,0.0
20408214108906,0.21535404,9.059227,3.6993039,0.0,0.0,0.0
20408216487968,0.2105684,9.025727,3.8620157,0.0,0.0,0.0
20408218867083,0.22492532,9.025727,4.034299,0.0,0.0,0.0
20408221246145,0.22971097,8.973084,4.1491547,0.0,0.0,0.0
20408223625260,0.21535404,8.9348,4.0773697,0.0,0.0,0.0
20408226004322,0.148355,8.987442,3.9242291,0.0,0.0,0.0
20408228383385,0.10049855,8.949157,3.7423747,0.0,0.0,0.0
20408230762500,0.047856454,8.953942,3.7806597,0.0,0.0,0.0
20408233141562,-0.02871387,8.906086,3.8524444,0.0,0.0,0.0
20408235520677,-0.13399807,9.006584,4.024728,0.0,0.0,0.0
20408237899739,-0.21535404,8.997013,3.991228,0.0,0.0,0.0
20408240278802,-0.30149564,9.020942,3.7950168,0.0,0.0,0.0
20408242657916,-0.41156548,9.083155,3.6658044,0.0,0.0,0.0
20408245036979,-0.45942193,9.049655,3.7136607,0.0,0.0,0.0
20408247416041,-0.526421,9.020942,3.8763726,0.0,0.0,0.0
20408249795156,-0.55513483,9.01137,4.0103707,0.0,0.0,0.0
20408252174218,-0.5982057,9.044869,4.034299,0.0,0.0,0.0
20408254553333,-0.526421,9.025727,3.900301,0.0,0.0,0.0
20408256932395,-0.46899325,9.049655,3.7998023,0.0,0.0,0.0
20408259311458,-0.3397808,9.126225,3.8285162,0.0,0.0,0.0
20408261690572,-0.19621146,9.102298,3.8237305,0.0,0.0,0.0
20408264069635,-0.11485548,9.116654,3.8524444,0.0,0.0,0.0
20408266448697,0.0526421,9.150154,3.8620157,0.0,0.0,0.0
20408268827812,0.18185452,9.12144,3.8333018,0.0,0.0,0.0
20408271206875,0.2727818,9.145369,3.8285162,0.0,0.0,0.0
20408273585937,0.37328035,9.178867,3.7758741,0.0,0.0,0.0
20408275965052,0.44985065,9.193225,3.6849468,0.0,0.0,0.0
20408278344114,0.44985065,9.212367,3.6275191,0.0,0.0,0.0
20408280723229,0.43070808,9.19801,3.6610186,0.0,0.0,0.0
20408283102291,0.40677986,9.193225,3.7663028,0.0,0.0,0.0
20408285481354,0.33499518,9.150154,3.8572302,0.0,0.0,0.0
20408287860468,0.22013968,9.111869,3.9050865,0.0,0.0,0.0
20408290239531,0.124426775,9.111869,3.8668015,0.0,0.0,0.0
20408292618593,0.0047856453,9.116654,3.7471602,0.0,0.0,0.0
20408294997708,-0.16749759,9.08794,3.6897326,0.0,0.0,0.0
20408297376770,-0.2727818,9.145369,3.6897326,0.0,0.0,0.0
20408299755885,-0.41156548,9.183653,3.7950168,0.0,0.0,0.0
20408302134947,-0.4977071,9.078369,3.8572302,0.0,0.0,0.0
20408304514010,-0.5982057,9.059227,3.8476589,0.0,0.0,0.0
20408306893125,-0.65084773,9.107083,3.8955152,0.0,0.0,0.0
20408309272187,-0.6269195,9.006584,3.8763726,0.0,0.0,0.0
20408311651250,-0.6364908,8.963513,3.885944,0.0,0.0,0.0
20408314030364,-0.55513483,9.040084,3.7806597,0.0,0.0,0.0
20408316409427,-0.4642076,9.083155,3.804588,0.0,0.0,0.0
20408318788541,-0.36370903,8.997013,3.7950168,0.0,0.0,0.0
20408321167604,-0.2727818,9.030513,3.8668015,0.0,0.0,0.0
20408323546666,-0.124426775,9.083155,3.9625144,0.0,0.0,0.0
20408325925781,-0.023928227,9.040084,3.9768713,0.0,0.0,0.0
20408328304843,0.086141616,9.064013,3.9290147,0.0,0.0,0.0
20408330683906,0.148355,9.083155,3.8763726,0.0,0.0,0.0
20408333063020,0.22013968,9.0544405,3.9050865,0.0,0.0,0.0
20408335442083,0.24885355,8.987442,3.9960139,0.0,0.0,0.0
20408337821197,0.2105684,8.958728,4.1635113,0.0,0.0,0.0
20408340200260,0.16749759,8.9013,4.26401,0.0,0.0,0.0
20408342579322,0.09092726,8.867801,4.249653,0.0,0.0,0.0
20408344958437,0.033499517,8.882157,4.125226,0.0,0.0,0.0
20408347337500,-0.05742774,8.9348,4.024728,0.0,0.0,0.0
20408349716562,-0.13399807,8.939586,4.048656,0.0,0.0,0.0
20408352095677,-0.22971097,8.906086,4.1635113,0.0,0.0,0.0
20408354474739,-0.33499518,8.9108715,4.316652,0.0,0.0,0.0
20408356853854,-0.42592242,8.915657,4.421936,0.0,0.0,0.0
20408359232916,-0.4833502,8.872586,4.3836513,0.0,0.0,0.0
20408361611979,-0.5072784,8.906086,4.23051,0.0,0.0,0.0
20408363991093,-0.53599226,8.987442,4.0869412,0.0,0.0,0.0
20408366370156,-0.5312066,8.977871,4.063013,0.0,0.0,0.0
20408368749218,-0.47856453,8.939586,4.1778684,0.0,0.0,0.0
20408371128333,-0.4019942,8.973084,4.369294,0.0,0.0,0.0
20408373507395,-0.26799613,8.920443,4.4841495,0.0,0.0,0.0
20408375886458,-0.11485548,8.891729,4.465007,0.0,0.0,0.0
20408378265572,0.0047856453,8.925228,4.321438,0.0,0.0,0.0
20408380644635,0.11485548,8.949157,4.1635113,0.0,0.0,0.0
20408383023750,0.2440679,8.925228,4.0965123,0.0,0.0,0.0
20408385402812,0.34456646,8.930014,4.1778684,0.0,0.0,0.0
20408387781875,0.3684947,8.920443,4.302295,0.0,0.0,0.0
20408390160989,0.41635114,8.891729,4.398008,0.0,0.0,0.0
20408392540052,0.4019942,8.886943,4.3405805,0.0,0.0,0.0
20408394919114,0.32542387,8.915657,4.1443686,0.0,0.0,0.0
20408397298229,0.2440679,8.968299,3.9816568,0.0,0.0,0.0
20408399677291,0.17706887,8.963513,3.9146578,0.0,0.0,0.0
20408402056354,0.05742774,8.997013,3.9816568,0.0,0.0,0.0
20408404435468,-0.062213387,8.958728,4.1347976,0.0,0.0,0.0
20408406814531,-0.17228323,8.953942,4.2592244,0.0,0.0,0.0
20408409193645,-0.22013968,8.958728,4.249653,0.0,0.0,0.0
20408411572708,-0.2440679,8.992228,4.1491547,0.0,0.0,0.0
20408413951770,-0.28713873,9.006584,4.024728,0.0,0.0,0.0
20408416330885,-0.28235307,8.997013,4.019942,0.0,0.0,0.0
20408418709947,-0.27756742,8.958728,4.139583,0.0,0.0,0.0
20408421089010,-0.24885355,8.939586,4.321438,0.0,0.0,0.0
20408423468125,-0.21535404,8.896515,4.426722,0.0,0.0,0.0
20408425847187,-0.15314065,8.9108715,4.388437,0.0,0.0,0.0
20408428226250,-0.11485548,8.949157,4.2257247,0.0,0.0,0.0
20408430605364,-0.08135597,8.968299,4.0773697,0.0,0.0,0.0
20408432984427,-0.05742774,8.944371,4.005585,0.0,0.0,0.0
20408435363541,-0.043070808,8.977871,4.0773697,0.0,0.0,0.0
20408437742604,-0.038285162,8.958728,4.197011,0.0,0.0,0.0
20408440121666,-0.009571291,8.930014,4.2687955,0.0,0.0,0.0
20408442500781,0.009571291,8.958728,4.273581,0.0,0.0,0.0
20408444879843,0.014356935,8.973084,4.211368,0.0,0.0,0.0
20408447258906,0.033499517,8.949157,4.125226,0.0,0.0,0.0
20408449638020,0.06699903,8.963513,4.072584,0.0,0.0,0.0
20408452017083,0.05742774,8.963513,4.0869412,0.0,0.0,0.0
20408454396197,0.09092726,8.958728,4.1874394,0.0,0.0,0.0
20408456775208,0.11485548,8.939586,4.26401,0.0,0.0,0.0
20408459154322,0.09571291,8.925228,4.273581,0.0,0.0,0.0
20408461533437,0.11964113,8.915657,4.240082,0.0,0.0,0.0
20408463912500,0.09092726,8.906086,4.1778684,0.0,0.0,0.0
20408466291562,0.05742774,8.9108715,4.1204405,0.0,0.0,0.0
20408468670677,0.0,8.906086,4.125226,0.0,0.0,0.0
20408471049739,-0.019142581,8.9108715,4.168297,0.0,0.0,0.0
20408473428802,-0.07178468,8.920443,4.23051,0.0,0.0,0.0
20408475807916,-0.11006984,8.930014,4.249653,0.0,0.0,0.0
20408478186875,-0.15314065,8.953942,4.23051,0.0,0.0,0.0
20408480566041,-0.22013968,9.016156,4.1922255,0.0,0.0,0.0
20408482945156,-0.23928227,9.049655,4.173083,0.0,0.0,0.0
20408485324218,-0.23449662,9.0544405,4.211368,0.0,0.0,0.0
20408487703333,-0.25842485,9.092726,4.249653,0.0,0.0,0.0
20408490082395,-0.28713873,9.107083,4.321438,0.0,0.0,0.0
20408492461458,-0.2536392,9.107083,4.3405805,0.0,0.0,0.0
20408494840572,-0.2536392,9.08794,4.3405805,0.0,0.0,0.0
20408497219635,-0.23928227,9.078369,4.2927237,0.0,0.0,0.0
20408499598697,-0.23928227,9.0544405,4.26401,0.0,0.0,0.0
20408501977812,-0.2536392,8.997013,4.220939,0.0,0.0,0.0
20408504356875,-0.23449662,8.968299,4.211368,0.0,0.0,0.0
20408506735937,-0.2727818,8.944371,4.220939,0.0,0.0,0.0
20408509115052,-0.29192436,8.9108715,4.2687955,0.0,0.0,0.0
20408511494114,-0.33499518,8.891729,4.26401,0.0,0.0,0.0
20408513873177,-0.35413775,8.891729,4.254439,0.0,0.0,0.0
20408516252291,-0.4211368,8.891729,4.2592244,0.0,0.0,0.0
20408518631354,-0.47856453,8.872586,4.2352962,0.0,0.0,0.0
20408521010468,-0.5455636,8.863015,4.2687955,0.0,0.0,0.0
20408523389531,-0.6364908,8.877372,4.359723,0.0,0.0,0.0
20408525768593,-0.6652047,8.891729,4.4458647,0.0,0.0,0.0
20408528147708,-0.72263247,8.920443,4.412365,0.0,0.0,0.0
20408530526770,-0.7704889,8.968299,4.273581,0.0,0.0,0.0
20408532905885,-0.7704889,8.992228,4.1347976,0.0,0.0,0.0
20408535284947,-0.76570326,9.016156,4.0677986,0.0,0.0,0.0
20408537664010,-0.72263247,9.035298,4.091727,0.0,0.0,0.0
20408540043125,-0.65084773,9.030513,4.1635113,0.0,0.0,0.0
20408542422187,-0.59342,9.001799,4.1922255,0.0,0.0,0.0
20408544801250,-0.5168497,8.997013,4.139583,0.0,0.0,0.0
20408547180364,-0.41156548,8.9826565,4.0534415,0.0,0.0,0.0
20408549559427,-0.30149564,8.949157,3.9673,0.0,0.0,0.0
20408551938489,-0.19621146,8.939586,3.9242291,0.0,0.0,0.0
20408554317604,-0.09092726,8.939586,3.9720855,0.0,0.0,0.0
20408556696666,-0.038285162,8.886943,4.058227,0.0,0.0,0.0
20408559075781,0.009571291,8.872586,4.125226,0.0,0.0,0.0
20408561454843,0.009571291,8.882157,4.130012,0.0,0.0,0.0
20408563833906,0.02871387,8.877372,4.106084,0.0,0.0,0.0
20408566213020,-0.014356935,8.891729,4.048656,0.0,0.0,0.0
20408568592083,-0.086141616,8.915657,4.0390844,0.0,0.0,0.0
20408570971145,-0.17228323,8.930014,4.091727,0.0,0.0,0.0
20408573350260,-0.2440679,8.939586,4.168297,0.0,0.0,0.0
20408575729322,-0.3493521,8.939586,4.240082,0.0,0.0,0.0
20408578108385,-0.44027936,8.925228,4.2352962,0.0,0.0,0.0
20408580487500,-0.5024927,8.925228,4.206582,0.0,0.0,0.0
20408582866562,-0.5455636,8.915657,4.173083,0.0,0.0,0.0
20408585245625,-0.5599205,8.896515,4.139583,0.0,0.0,0.0
20408587624739,-0.55513483,8.896515,4.1635113,0.0,0.0,0.0
20408590003802,-0.5312066,8.882157,4.249653,0.0,0.0,0.0
20408592382864,-0.5168497,8.867801,4.3070807,0.0,0.0,0.0
20408594761979,-0.44027936,8.867801,4.316652,0.0,0.0,0.0
20408597141041,-0.38285163,8.872586,4.3262234,0.0,0.0,0.0
20408599520156,-0.32063824,8.877372,4.302295,0.0,0.0,0.0
20408601899218,-0.23449662,8.872586,4.287938,0.0,0.0,0.0
20408604278281,-0.148355,8.85823,4.287938,0.0,0.0,0.0
20408606657395,-0.0526421,8.85823,4.3262234,0.0,0.0,0.0
20408609036458,0.0047856453,8.853444,4.369294,0.0,0.0,0.0
20408611415520,0.047856454,8.843872,4.3645086,0.0,0.0,0.0
20408613794635,0.06699903,8.867801,4.345366,0.0,0.0,0.0
20408616173697,0.06699903,8.886943,4.2975097,0.0,0.0,0.0
20408618552812,0.019142581,8.915657,4.2592244,0.0,0.0,0.0
20408620931875,-0.02871387,8.930014,4.240082,0.0,0.0,0.0
20408623310937,-0.076570325,8.944371,4.2257247,0.0,0.0,0.0
20408625690052,-0.14356937,8.953942,4.240082,0.0,0.0,0.0
20408628069114,-0.2105684,8.939586,4.2352962,0.0,0.0,0.0
20408630448177,-0.30149564,8.953942,4.220939,0.0,0.0,0.0
20408632827291,-0.38285163,8.958728,4.182654,0.0,0.0,0.0
20408635206354,-0.45942193,8.944371,4.1587257,0.0,0.0,0.0
20408637585416,-0.52163535,8.953942,4.139583,0.0,0.0,0.0
20408639964531,-0.5694918,8.925228,4.1491547,0.0,0.0,0.0
20408642343593,-0.61734825,8.930014,4.168297,0.0,0.0,0.0
20408644722656,-0.6029913,8.9013,4.1922255,0.0,0.0,0.0
20408647101770,-0.6125626,8.886943,4.1874394,0.0,0.0,0.0
20408649480833,-0.61734825,8.886943,4.1778684,0.0,0.0,0.0
20408651859947,-0.6125626,8.882157,4.130012,0.0,0.0,0.0
20408654239010,-0.61734825,8.872586,4.1108694,0.0,0.0,0.0
20408656618072,-0.6125626,8.891729,4.125226,0.0,0.0,0.0
20408658997187,-0.61734825,8.896515,4.15394,0.0,0.0,0.0
20408661376250,-0.61734825,8.896515,4.168297,0.0,0.0,0.0
20408663755312,-0.6364908,8.920443,4.173083,0.0,0.0,0.0
20408666134427,-0.67477596,8.920443,4.1443686,0.0,0.0,0.0
20408668513489,-0.6843473,8.939586,4.1491547,0.0,0.0,0.0
20408670892552,-0.6939186,8.939586,4.139583,0.0,0.0,0.0
20408673271666,-0.7178468,8.958728,4.173083,0.0,0.0,0.0
20408675650729,-0.7322037,8.973084,4.2017965,0.0,0.0,0.0
20408678029791,-0.74177504,8.958728,4.2352962,0.0,0.0,0.0
20408680408906,-0.7896315,8.9826565,4.23051,0.0,0.0,0.0
20408682787968,-0.82313097,9.001799,4.206582,0.0,0.0,0.0
20408685167083,-0.80877405,8.977871,4.1778684,0.0,0.0,0.0
20408687546145,-0.80877405,8.949157,4.182654,0.0,0.0,0.0
20408689925208,-0.80877405,8.944371,4.211368,0.0,0.0,0.0
20408692304322,-0.7609176,8.953942,4.2352962,0.0,0.0,0.0
20408694683385,-0.74177504,8.920443,4.2592244,0.0,0.0,0.0
20408697062447,-0.6939186,8.886943,4.278367,0.0,0.0,0.0
20408699441562,-0.6364908,8.882157,4.2448673,0.0,0.0,0.0
20408701820625,-0.59342,8.886943,4.2017965,0.0,0.0,0.0
20408704199687,-0.5168497,8.886943,4.182654,0.0,0.0,0.0
20408706578802,-0.4833502,8.867801,4.168297,0.0,0.0,0.0
20408708957864,-0.4354937,8.872586,4.173083,0.0,0.0,0.0
20408711336979,-0.41635114,8.872586,4.1778684,0.0,0.0,0.0
20408713716041,-0.44027936,8.872586,4.1587257,0.0,0.0,0.0
20408716095104,-0.41635114,8.872586,4.1491547,0.0,0.0,0.0
20408718474166,-0.44027936,8.896515,4.125226,0.0,0.0,0.0
20408720853281,-0.4642076,8.925228,4.1108694,0.0,0.0,0.0
20408723232343,-0.4881358,8.925228,4.1108694,0.0,0.0,0.0
20408725611458,-0.51206404,8.925228,4.1108694,0.0,0.0,0.0
20408727990520,-0.56470615,8.9348,4.115655,0.0,0.0,0.0
20408730369583,-0.59342,8.973084,4.1108694,0.0,0.0,0.0
20408732748697,-0.5982057,8.973084,4.0773697,0.0,0.0,0.0
20408735127708,-0.59342,8.973084,4.058227,0.0,0.0,0.0
20408737506822,-0.5982057,8.968299,4.0390844,0.0,0.0,0.0
20408739885937,-0.6029913,8.973084,4.0438704,0.0,0.0,0.0
20408742265000,-0.5694918,8.968299,4.0534415,0.0,0.0,0.0
20408744644062,-0.5312066,8.953942,4.0677986,0.0,0.0,0.0
20408747023177,-0.5072784,8.963513,4.1108694,0.0,0.0,0.0
20408749402239,-0.4546363,8.958728,4.130012,0.0,0.0,0.0
20408751781354,-0.4211368,8.944371,4.125226,0.0,0.0,0.0
20408754160416,-0.38285163,8.958728,4.139583,0.0,0.0,0.0
20408756539479,-0.37328035,8.939586,4.15394,0.0,0.0,0.0
20408758918593,-0.3589234,8.953942,4.173083,0.0,0.0,0.0
20408761297656,-0.36370903,8.953942,4.1922255,0.0,0.0,0.0
20408763676666,-0.4211368,8.968299,4.2257247,0.0,0.0,0.0
20408766055833,-0.44985065,8.992228,4.2352962,0.0,0.0,0.0
20408768434895,-0.5072784,8.977871,4.23051,0.0,0.0,0.0
20408770813958,-0.55034924,8.987442,4.240082,0.0,0.0,0.0
20408773193072,-0.5838487,8.997013,4.254439,0.0,0.0,0.0
20408775572135,-0.6269195,8.977871,4.2831526,0.0,0.0,0.0
20408777951250,-0.6652047,8.973084,4.278367,0.0,0.0,0.0
20408780330312,-0.6795616,8.963513,4.3070807,0.0,0.0,0.0
20408782709375,-0.6939186,8.944371,4.3118663,0.0,0.0,0.0
20408785088489,-0.71306115,8.930014,4.3118663,0.0,0.0,0.0
20408787467552,-0.7513463,8.939586,4.2975097,0.0,0.0,0.0
20408789846562,-0.7704889,8.939586,4.2831526,0.0,0.0,0.0
20408792225729,-0.7609176,8.949157,4.2352962,0.0,0.0,0.0
20408794604791,-0.75613195,8.949157,4.211368,0.0,0.0,0.0
20408796983854,-0.7609176,8.915657,4.182654,0.0,0.0,0.0
20408799362968,-0.7752745,8.925228,4.1922255,0.0,0.0,0.0
20408801742031,-0.7704889,8.9013,4.182654,0.0,0.0,0.0
20408804121093,-0.79920274,8.906086,4.1778684,0.0,0.0,0.0
20408806500208,-0.79920274,8.915657,4.1443686,0.0,0.0,0.0
20408808879270,-0.80877405,8.920443,4.0965123,0.0,0.0,0.0
20408811258333,-0.83748794,8.939586,4.063013,0.0,0.0,0.0
20408813637447,-0.8566305,8.968299,4.063013,0.0,0.0,0.0
20408816016510,-0.8566305,8.963513,4.072584,0.0,0.0,0.0
20408818395572,-0.90448695,8.968299,4.0965123,0.0,0.0,0.0
20408820774687,-0.9379865,8.973084,4.106084,0.0,0.0,0.0
20408823153750,-0.9667004,8.977871,4.0869412,0.0,0.0,0.0
20408825532864,-1.0001999,8.992228,4.0677986,0.0,0.0,0.0
20408827911927,-1.0049855,8.949157,4.063013,0.0,0.0,0.0
20408830290989,-1.0049855,8.9108715,4.0677986,0.0,0.0,0.0
20408832670104,-1.0145568,8.896515,4.1108694,0.0,0.0,0.0
20408835049166,-1.0193424,8.886943,4.1347976,0.0,0.0,0.0
20408837428229,-1.0049855,8.867801,4.1443686,0.0,0.0,0.0
20408839807343,-0.94277215,8.843872,4.139583,0.0,0.0,0.0
20408842186406,-0.93320084,8.834301,4.1204405,0.0,0.0,0.0
20408844565468,-0.91884387,8.810373,4.1347976,0.0,0.0,0.0
20408846944583,-0.8805587,8.800801,4.15394,0.0,0.0,0.0
20408849323645,-0.81834537,8.834301,4.1778684,0.0,0.0,0.0
20408851702708,-0.7704889,8.834301,4.211368,0.0,0.0,0.0
20408854081822,-0.72263247,8.834301,4.249653,0.0,0.0,0.0
20408856460885,-0.6939186,8.853444,4.249653,0.0,0.0,0.0
20408858839947,-0.6652047,8.85823,4.2352962,0.0,0.0,0.0
20408861219062,-0.63170516,8.891729,4.211368,0.0,0.0,0.0
20408863598125,-0.6029913,8.882157,4.2448673,0.0,0.0,0.0
20408865977187,-0.56470615,8.891729,4.249653,0.0,0.0,0.0
20408868356302,-0.55513483,8.9013,4.278367,0.0,0.0,0.0
20408870735364,-0.5694918,8.9013,4.2831526,0.0,0.0,0.0
20408873114479,-0.5838487,8.915657,4.254439,0.0,0.0,0.0
20408875493541,-0.6269195,8.9013,4.2257247,0.0,0.0,0.0
20408877872604,-0.6652047,8.886943,4.2352962,0.0,0.0,0.0
20408880251718,-0.6891329,8.85823,4.240082,0.0,0.0,0.0
20408882630781,-0.7178468,8.819944,4.26401,0.0,0.0,0.0
20408885009843,-0.7322037,8.79123,4.321438,0.0,0.0,0.0
20408887388958,-0.72741807,8.748159,4.331009,0.0,0.0,0.0
20408889768020,-0.7369894,8.709874,4.3357944,0.0,0.0,0.0
20408892147083,-0.72741807,8.733803,4.321438,0.0,0.0,0.0
20408894526197,-0.72741807,8.738588,4.2927237,0.0,0.0,0.0
20408896905260,-0.6987042,8.733803,4.2831526,0.0,0.0,0.0
20408899284322,-0.6939186,8.748159,4.316652,0.0,0.0,0.0
20408901663437,-0.6987042,8.752945,4.345366,0.0,0.0,0.0
20408904042447,-0.71306115,8.786445,4.3501515,0.0,0.0,0.0
20408906421614,-0.7369894,8.819944,4.3357944,0.0,0.0,0.0
20408908800677,-0.7369894,8.839087,4.302295,0.0,0.0,0.0
20408911179739,-0.7704889,8.886943,4.278367,0.0,0.0,0.0
20408913558854,-0.81834537,8.930014,4.2448673,0.0,0.0,0.0
20408915937916,-0.8470592,8.9348,4.2257247,0.0,0.0,0.0
20408918316979,-0.89013004,8.949157,4.2257247,0.0,0.0,0.0
20408920696093,-0.95712906,8.968299,4.211368,0.0,0.0,0.0
20408923075156,-1.0097711,8.968299,4.2017965,0.0,0.0,0.0
20408925454218,-1.0480564,8.987442,4.182654,0.0,0.0,0.0
20408927833333,-1.0911272,9.016156,4.1347976,0.0,0.0,0.0
20408930212395,-1.1533405,9.030513,4.0869412,0.0,0.0,0.0
20408932591458,-1.1724831,9.068798,4.0869412,0.0,0.0,0.0
20408934970572,-1.1820544,9.035298,4.101298,0.0,0.0,0.0
20408937349635,-1.1676974,9.025727,4.1587257,0.0,0.0,0.0
20408939728697,-1.1629118,9.020942,4.2017965,0.0,0.0,0.0
20408942107812,-1.1437693,8.992228,4.211368,0.0,0.0,0.0
20408944486875,-1.1294123,8.977871,4.1635113,0.0,0.0,0.0
20408946865989,-1.1006985,8.939586,4.125226,0.0,0.0,0.0
20408949245052,-1.0576276,8.949157,4.0869412,0.0,0.0,0.0
20408951624114,-1.0241281,8.925228,4.072584,0.0,0.0,0.0
20408954003229,-1.0001999,8.930014,4.101298,0.0,0.0,0.0
20408956382291,-0.9667004,8.925228,4.115655,0.0,0.0,0.0
20408958761354,-0.971486,8.9013,4.139583,0.0,0.0,0.0
20408961140468,-0.93320084,8.896515,4.1204405,0.0,0.0,0.0
20408963519531,-0.9236295,8.891729,4.115655,0.0,0.0,0.0
20408965898593,-0.94755775,8.886943,4.1108694,0.0,0.0,0.0
20408968277708,-1.0097711,8.886943,4.130012,0.0,0.0,0.0
20408970656770,-1.038485,8.853444,4.1635113,0.0,0.0,0.0
20408973035833,-1.0624132,8.853444,4.197011,0.0,0.0,0.0
20408975414947,-1.119841,8.877372,4.206582,0.0,0.0,0.0
20408977794010,-1.1581261,8.85823,4.23051,0.0,0.0,0.0
20408980173072,-1.1964114,8.920443,4.2687955,0.0,0.0,0.0
20408982552187,-1.2299109,8.877372,4.211368,0.0,0.0,0.0
20408984931250,-1.2442678,8.877372,4.1874394,0.0,0.0,0.0
20408987310312,-1.2394822,8.915657,4.206582,0.0,0.0,0.0
20408989689427,-1.2203395,8.939586,4.278367,0.0,0.0,0.0
20408992068489,-1.18684,8.891729,4.321438,0.0,0.0,0.0
20408994447552,-1.134198,8.925228,4.3501515,0.0,0.0,0.0
20408996826666,-1.0767702,8.925228,4.3118663,0.0,0.0,0.0
20408999205729,-1.0241281,8.939586,4.2592244,0.0,0.0,0.0
20409001584843,-0.94755775,8.9348,4.211368,0.0,0.0,0.0
20409003963906,-0.8757731,8.958728,4.2017965,0.0,0.0,0.0
20409006342968,-0.81834537,8.915657,4.240082,0.0,0.0,0.0
20409008722083,-0.7800602,8.877372,4.3070807,0.0,0.0,0.0
20409011101145,-0.7513463,8.915657,4.359723,0.0,0.0,0.0
20409013480208,-0.7609176,8.915657,4.331009,0.0,0.0,0.0
20409015859322,-0.7752745,8.9013,4.2831526,0.0,0.0,0.0
20409018238385,-0.80877405,8.896515,4.2448673,0.0,0.0,0.0
20409020617447,-0.8422736,8.930014,4.240082,0.0,0.0,0.0
20409022996562,-0.8709874,8.9108715,4.26401,0.0,0.0,0.0
20409025375625,-0.9236295,8.896515,4.2975097,0.0,0.0,0.0
20409027754687,-0.98584294,8.9108715,4.3262234,0.0,0.0,0.0
20409030133802,-1.038485,8.9108715,4.302295,0.0,0.0,0.0
20409032512864,-1.0815558,8.920443,4.2352962,0.0,0.0,0.0
20409034891927,-1.1389836,8.9348,4.168297,0.0,0.0,0.0
20409037271041,-1.1676974,8.953942,4.115655,0.0,0.0,0.0
20409039650104,-1.2155539,8.958728,4.0773697,0.0,0.0,0.0
20409042029166,-1.2203395,8.958728,4.115655,0.0,0.0,0.0
20409044408281,-1.2442678,8.958728,4.125226,0.0,0.0,0.0
20409046787343,-1.253839,8.973084,4.1204405,0.0,0.0,0.0
20409049166406,-1.2634103,8.949157,4.106084,0.0,0.0,0.0
20409051545520,-1.2490535,8.977871,4.106084,0.0,0.0,0.0
20409053924583,-1.2346965,8.963513,4.1108694,0.0,0.0,0.0
20409056303697,-1.2299109,8.958728,4.130012,0.0,0.0,0.0
20409058682760,-1.2155539,8.968299,4.15394,0.0,0.0,0.0
20409061061822,-1.1916257,8.963513,4.206582,0.0,0.0,0.0
20409063440937,-1.134198,8.949157,4.220939,0.0,0.0,0.0
20409065820000,-1.0815558,8.953942,4.23051,0.0,0.0,0.0
20409068199062,-1.0336994,8.958728,4.2017965,0.0,0.0,0.0
20409070578177,-0.9810573,8.963513,4.1874394,0.0,0.0,0.0
20409072957239,-0.9284152,8.920443,4.2017965,0.0,0.0,0.0
20409075336302,-0.8805587,8.872586,4.2448673,0.0,0.0,0.0
20409077715416,-0.8279166,8.863015,4.2687955,0.0,0.0,0.0
20409080094479,-0.79920274,8.891729,4.3118663,0.0,0.0,0.0
20409082473541,-0.79441714,8.853444,4.2687955,0.0,0.0,0.0
20409084852656,-0.75613195,8.85823,4.211368,0.0,0.0,0.0
20409087231718,-0.7465607,8.848659,4.197011,0.0,0.0,0.0
20409089610781,-0.7513463,8.85823,4.249653,0.0,0.0,0.0
20409091989895,-0.79441714,8.819944,4.3070807,0.0,0.0,0.0
20409094368958,-0.79920274,8.815159,4.402794,0.0,0.0,0.0
20409096748020,-0.79920274,8.829515,4.4075794,0.0,0.0,0.0
20409099127135,-0.79920274,8.815159,4.369294,0.0,0.0,0.0
20409101506197,-0.79441714,8.829515,4.3118663,0.0,0.0,0.0
20409103885260,-0.8039884,8.848659,4.2831526,0.0,0.0,0.0
20409106264375,-0.7800602,8.853444,4.2927237,0.0,0.0,0.0
20409108643437,-0.7609176,8.853444,4.3118663,0.0,0.0,0.0
20409111022552,-0.7465607,8.85823,4.3740797,0.0,0.0,0.0
20409113401614,-0.7322037,8.867801,4.359723,0.0,0.0,0.0
20409115780677,-0.7082755,8.9013,4.302295,0.0,0.0,0.0
20409118159739,-0.6987042,8.896515,4.2257247,0.0,0.0,0.0
20409120538854,-0.6843473,8.915657,4.182654,0.0,0.0,0.0
20409122917916,-0.6843473,8.9108715,4.182654,0.0,0.0,0.0
20409125297031,-0.6843473,8.877372,4.220939,0.0,0.0,0.0
20409127676093,-0.6987042,8.882157,4.249653,0.0,0.0,0.0
20409130055156,-0.7178468,8.863015,4.2448673,0.0,0.0,0.0
20409132434270,-0.6987042,8.85823,4.2161536,0.0,0.0,0.0
20409134813333,-0.6843473,8.877372,4.1778684,0.0,0.0,0.0
20409137192395,-0.6795616,8.891729,4.1204405,0.0,0.0,0.0
20409139571510,-0.6843473,8.9013,4.091727,0.0,0.0,0.0
20409141950572,-0.6987042,8.906086,4.1347976,0.0,0.0,0.0
20409144329635,-0.72263247,8.906086,4.1347976,0.0,0.0,0.0
20409146708697,-0.7178468,8.9108715,4.1347976,0.0,0.0,0.0
20409149087812,-0.72741807,8.930014,4.106084,0.0,0.0,0.0
20409151466875,-0.7465607,8.968299,4.0534415,0.0,0.0,0.0
20409153845989,-0.74177504,8.997013,4.0295134,0.0,0.0,0.0
20409156225052,-0.7465607,9.025727,4.0438704,0.0,0.0,0.0
20409158604114,-0.72263247,9.016156,4.058227,0.0,0.0,0.0
20409160983229,-0.7369894,9.01137,4.091727,0.0,0.0,0.0
20409163362291,-0.7178468,8.9826565,4.115655,0.0,0.0,0.0
20409165741354,-0.7178468,8.973084,4.1347976,0.0,0.0,0.0
20409168120468,-0.6891329,8.963513,4.125226,0.0,0.0,0.0
20409170499531,-0.6652047,8.939586,4.125226,0.0,0.0,0.0
20409172878593,-0.66041905,8.9013,4.130012,0.0,0.0,0.0
20409175257708,-0.65084773,8.915657,4.1635113,0.0,0.0,0.0
20409177636770,-0.65084773,8.9108715,4.206582,0.0,0.0,0.0
20409180015833,-0.6269195,8.9013,4.220939,0.0,0.0,0.0
20409182394947,-0.6269195,8.891729,4.2592244,0.0,0.0,0.0
20409184774010,-0.5982057,8.882157,4.273581,0.0,0.0,0.0
20409187153072,-0.5982057,8.886943,4.278367,0.0,0.0,0.0
20409189532187,-0.5838487,8.882157,4.2687955,0.0,0.0,0.0
20409191911250,-0.5838487,8.896515,4.2687955,0.0,0.0,0.0
20409194290364,-0.5982057,8.882157,4.3070807,0.0,0.0,0.0
20409196669427,-0.5886344,8.886943,4.321438,0.0,0.0,0.0
20409199048489,-0.5599205,8.877372,4.316652,0.0,0.0,0.0
20409201427604,-0.56470615,8.863015,4.331009,0.0,0.0,0.0
20409203806666,-0.5407779,8.863015,4.3118663,0.0,0.0,0.0
20409206185729,-0.51206404,8.85823,4.3118663,0.0,0.0,0.0
20409208564843,-0.4833502,8.843872,4.3262234,0.0,0.0,0.0
20409210943906,-0.45942193,8.848659,4.3357944,0.0,0.0,0.0
20409213322968,-0.46899325,8.839087,4.3262234,0.0,0.0,0.0
20409215702083,-0.45942193,8.839087,4.3405805,0.0,0.0,0.0
20409218081145,-0.4642076,8.834301,4.331009,0.0,0.0,0.0
20409220460208,-0.4642076,8.800801,4.331009,0.0,0.0,0.0
20409222839322,-0.44027936,8.82473,4.321438,0.0,0.0,0.0
20409225218385,-0.44506502,8.848659,4.302295,0.0,0.0,0.0
20409227597447,-0.4642076,8.839087,4.287938,0.0,0.0,0.0
20409229976562,-0.47377887,8.843872,4.287938,0.0,0.0,0.0
20409232355625,-0.4833502,8.867801,4.2927237,0.0,0.0,0.0
20409234734687,-0.5312066,8.877372,4.2687955,0.0,0.0,0.0
20409237113802,-0.5599205,8.85823,4.254439,0.0,0.0,0.0
20409239492812,-0.5886344,8.891729,4.2352962,0.0,0.0,0.0
20409241871927,-0.57427746,8.9108715,4.197011,0.0,0.0,0.0
20409244251041,-0.5886344,8.9108715,4.182654,0.0,0.0,0.0
20409246630104,-0.59342,8.930014,4.168297,0.0,0.0,0.0
20409249009166,-0.57906306,8.939586,4.168297,0.0,0.0,0.0
20409251388281,-0.57427746,8.915657,4.173083,0.0,0.0,0.0
20409253767343,-0.5599205,8.920443,4.1874394,0.0,0.0,0.0
20409256146406,-0.52163535,8.9108715,4.168297,0.0,0.0,0.0
20409258525520,-0.47856453,8.906086,4.1347976,0.0,0.0,0.0
20409260904583,-0.47856453,8.920443,4.101298,0.0,0.0,0.0
20409263283645,-0.43070808,8.896515,4.0869412,0.0,0.0,0.0
20409265662760,-0.43070808,8.896515,4.0965123,0.0,0.0,0.0
20409268041822,-0.43070808,8.925228,4.115655,0.0,0.0,0.0
20409270420885,-0.38285163,8.9348,4.091727,0.0,0.0,0.0
20409272800000,-0.37328035,8.963513,4.063013,0.0,0.0,0.0
20409275179062,-0.39720857,8.958728,4.058227,0.0,0.0,0.0
20409277558125,-0.40677986,8.9348,4.063013,0.0,0.0,0.0
20409279937239,-0.4211368,8.944371,4.0677986,0.0,0.0,0.0
20409282316302,-0.44506502,8.915657,4.091727,0.0,0.0,0.0
20409284695416,-0.43070808,8.920443,4.0869412,0.0,0.0,0.0
20409287074479,-0.44027936,8.939586,4.0965123,0.0,0.0,0.0
20409289453541,-0.4546363,8.925228,4.0965123,0.0,0.0,0.0
20409291832656,-0.47377887,8.886943,4.0869412,0.0,0.0,0.0
20409294211718,-0.47377887,8.896515,4.106084,0.0,0.0,0.0
20409296590781,-0.46899325,8.867801,4.139583,0.0,0.0,0.0
20409298969895,-0.4642076,8.867801,4.1922255,0.0,0.0,0.0
20409301348958,-0.45942193,8.853444,4.2352962,0.0,0.0,0.0
20409303728020,-0.43070808,8.853444,4.2448673,0.0,0.0,0.0
20409306107083,-0.39720857,8.848659,4.26401,0.0,0.0,0.0
20409308486197,-0.3924229,8.85823,4.26401,0.0,0.0,0.0
20409310865260,-0.3589234,8.906086,4.26401,0.0,0.0,0.0
20409313244322,-0.31585258,8.9013,4.2975097,0.0,0.0,0.0
20409315623437,-0.29192436,8.896515,4.316652,0.0,0.0,0.0
20409318002500,-0.26799613,8.9348,4.3501515,0.0,0.0,0.0
20409320381614,-0.22971097,8.944371,4.359723,0.0,0.0,0.0
20409322760677,-0.19621146,8.944371,4.3501515,0.0,0.0,0.0
20409325139739,-0.19621146,8.944371,4.3262234,0.0,0.0,0.0
20409327518854,-0.2105684,8.958728,4.3118663,0.0,0.0,0.0
20409329897916,-0.22492532,8.953942,4.3070807,0.0,0.0,0.0
20409332276979,-0.24885355,8.925228,4.2831526,0.0,0.0,0.0
20409334656093,-0.28713873,8.944371,4.2927237,0.0,0.0,0.0
20409337035156,-0.33020952,8.920443,4.321438,0.0,0.0,0.0
20409339414218,-0.37806597,8.906086,4.316652,0.0,0.0,0.0
20409341793333,-0.4546363,8.896515,4.321438,0.0,0.0,0.0
20409344172395,-0.5168497,8.891729,4.2831526,0.0,0.0,0.0
20409346551458,-0.57906306,8.872586,4.2831526,0.0,0.0,0.0
20409348930572,-0.64606214,8.891729,4.2592244,0.0,0.0,0.0
20409351309583,-0.6891329,8.891729,4.2257247,0.0,0.0,0.0
20409353688697,-0.6987042,8.920443,4.211368,0.0,0.0,0.0
20409356067812,-0.6987042,8.944371,4.1922255,0.0,0.0,0.0
20409358446875,-0.70348984,8.944371,4.2257247,0.0,0.0,0.0
20409360825937,-0.6843473,8.896515,4.2352962,0.0,0.0,0.0
20409363205052,-0.66041905,8.886943,4.254439,0.0,0.0,0.0
20409365584062,-0.60777694,8.896515,4.240082,0.0,0.0,0.0
20409367963177,-0.59342,8.896515,4.197011,0.0,0.0,0.0
20409370342291,-0.59342,8.891729,4.139583,0.0,0.0,0.0
20409372721354,-0.57906306,8.877372,4.115655,0.0,0.0,0.0
20409375100416,-0.56470615,8.882157,4.106084,0.0,0.0,0.0
20409377479531,-0.55034924,8.85823,4.1204405,0.0,0.0,0.0
20409379858593,-0.5312066,8.848659,4.1587257,0.0,0.0,0.0
20409382237656,-0.5455636,8.853444,4.1587257,0.0,0.0,0.0
20409384616770,-0.5599205,8.843872,4.139583,0.0,0.0,0.0
20409386995833,-0.5455636,8.863015,4.0965123,0.0,0.0,0.0
20409389374895,-0.57906306,8.906086,4.0773697,0.0,0.0,0.0
20409391754010,-0.6221339,8.863015,4.091727,0.0,0.0,0.0
20409394133072,-0.6412765,8.896515,4.1108694,0.0,0.0,0.0
20409396512135,-0.6891329,8.9108715,4.1491547,0.0,0.0,0.0
20409398891250,-0.71306115,8.896515,4.15394,0.0,0.0,0.0
20409401270312,-0.7609176,8.930014,4.1587257,0.0,0.0,0.0
20409403649375,-0.79441714,8.925228,4.139583,0.0,0.0,0.0
20409406028489,-0.80877405,8.944371,4.125226,0.0,0.0,0.0
20409408407552,-0.8279166,8.939586,4.1443686,0.0,0.0,0.0
20409410786614,-0.8279166,8.953942,4.1587257,0.0,0.0,0.0
20409413165729,-0.82313097,8.944371,4.182654,0.0,0.0,0.0
20409415544791,-0.82313097,8.939586,4.2017965,0.0,0.0,0.0
20409417923854,-0.79920274,8.915657,4.23051,0.0,0.0,0.0
20409420302916,-0.7609176,8.886943,4.240082,0.0,0.0,0.0
20409422682031,-0.7322037,8.891729,4.2161536,0.0,0.0,0.0
20409425061093,-0.7609176,8.7673025,4.240082,0.0,0.0,0.0
20409427440208,-0.70348984,8.71466,4.220939,0.0,0.0,0.0
20409429819270,-0.5694918,8.719446,3.9577286,0.0,0.0,0.0
20409432198333,-0.6221339,8.843872,3.952943,0.0,0.0,0.0
20409434577447,-0.29671,9.016156,4.517649,0.0,0.0,0.0
20409436956510,-0.29192436,8.724232,4.6612186,0.0,0.0,0.0
20409439335572,-0.6221339,8.7577305,4.7138605,0.0,0.0,0.0
20409441714687,-0.7896315,9.169296,4.843073,0.0,0.0,0.0
20409444093750,-0.39720857,8.863015,4.211368,0.0,0.0,0.0
20409446472812,-0.53599226,8.839087,3.818945,0.0,0.0,0.0
20409448851927,-1.052842,9.178867,3.952943,0.0,0.0,0.0
20409451230989,-0.9762716,9.020942,3.9864426,0.0,0.0,0.0
20409453610104,-0.6939186,8.796016,4.2257247,0.0,0.0,0.0
20409455989166,-0.93320084,8.877372,4.584648,0.0,0.0,0.0
20409458368229,-1.038485,8.939586,4.5272202,0.0,0.0,0.0
20409460747239,-0.8662018,8.877372,4.2161536,0.0,0.0,0.0
20409463126406,-0.70348984,8.896515,4.019942,0.0,0.0,0.0
20409465505468,-0.7704889,8.953942,3.9146578,0.0,0.0,0.0
20409467884531,-0.72263247,8.963513,3.9098723,0.0,0.0,0.0
20409470263645,-0.66041905,8.944371,4.1874394,0.0,0.0,0.0
20409472642708,-0.6125626,8.886943,4.354937,0.0,0.0,0.0
20409475021770,-0.5838487,8.9108715,4.354937,0.0,0.0,0.0
20409477400885,-0.6029913,8.963513,4.220939,0.0,0.0,0.0
20409479779947,-0.56470615,8.915657,4.019942,0.0,0.0,0.0
20409482159010,-0.6029913,8.9108715,3.8333018,0.0,0.0,0.0
20409484538125,-0.7465607,9.006584,3.8620157,0.0,0.0,0.0
20409486917187,-0.7800602,9.01137,3.9960139,0.0,0.0,0.0
20409489296250,-0.7322037,8.886943,4.15394,0.0,0.0,0.0
20409491675364,-0.8662018,8.9013,4.2352962,0.0,0.0,0.0
20409494054427,-1.038485,8.930014,4.197011,0.0,0.0,0.0
20409496433541,-1.1006985,8.939586,4.0438704,0.0,0.0,0.0
20409498812604,-1.0959128,8.920443,3.9577286,0.0,0.0,0.0
20409501191666,-1.2203395,8.920443,3.9577286,0.0,0.0,0.0
20409503570729,-1.3495519,8.944371,4.0438704,0.0,0.0,0.0
20409505949843,-1.3064811,8.906086,4.168297,0.0,0.0,0.0
20409508328854,-1.3112668,8.85823,4.26401,0.0,0.0,0.0
20409510707968,-1.3782659,8.867801,4.2975097,0.0,0.0,0.0
20409513087083,-1.6654046,8.518449,4.2161536,0.0,0.0,0.0
20409515466145,-1.1437693,8.01117,3.871587,0.0,0.0,0.0
20409517845260,-1.0767702,9.4229355,4.5272202,0.0,0.0,0.0
20409520224322,-1.5984055,9.5760765,4.019942,0.0,0.0,0.0
20409522603385,-0.5168497,8.772088,4.034299,0.0,0.0,0.0
20409524982447,-0.8997013,8.953942,4.924429,0.0,0.0,0.0
20409527361562,-1.0815558,8.609376,4.3262234,0.0,0.0,0.0
20409529740625,-1.5074782,9.379865,5.144569,0.0,0.0,0.0
20409532119687,-0.8422736,8.724232,4.6229334,0.0,0.0,0.0
20409534498802,-0.95712906,9.025727,4.2257247,0.0,0.0,0.0
20409536877864,-1.2107682,9.183653,4.0295134,0.0,0.0,0.0
20409539256979,-1.0480564,8.839087,4.0295134,0.0,0.0,0.0
20409541636041,-1.1150553,8.9826565,4.197011,0.0,0.0,0.0
20409544015052,-1.0097711,9.025727,4.3788652,0.0,0.0,0.0
20409546394166,-0.8135597,8.676374,4.503292,0.0,0.0,0.0
20409548773281,-0.6412765,8.71466,4.4745784,0.0,0.0,0.0
20409551152343,-1.0241281,8.958728,4.1491547,0.0,0.0,0.0
20409553531406,-0.91405827,9.01137,3.9816568,0.0,0.0,0.0
20409555910520,-0.63170516,8.915657,4.048656,0.0,0.0,0.0
20409558289583,-0.7704889,8.882157,4.168297,0.0,0.0,0.0
20409560668645,-1.0049855,9.030513,4.412365,0.0,0.0,0.0
20409563047760,-1.0241281,8.939586,4.5128636,0.0,0.0,0.0
20409565426822,-0.80877405,8.800801,4.2687955,0.0,0.0,0.0
20409567805885,-0.8757731,9.140582,3.9673,0.0,0.0,0.0
20409570185000,-1.2921243,9.466006,3.7663028,0.0,0.0,0.0
20409572564062,-0.7082755,9.193225,3.7710886,0.0,0.0,0.0
20409574943125,-0.55034924,8.877372,4.1778684,0.0,0.0,0.0
20409577322239,-1.1246266,9.140582,4.6085763,0.0,0.0,0.0
20409579701302,-1.2011969,9.226724,4.6468616,0.0,0.0,0.0
20409582080364,-0.7513463,8.819944,4.359723,0.0,0.0,0.0
20409584459479,-0.81834537,8.992228,3.900301,0.0,0.0,0.0
20409586838541,-1.282553,9.346365,3.5030923,0.0,0.0,0.0
20409589217604,-0.83748794,8.9348,3.4695928,0.0,0.0,0.0
20409591596718,-0.81834537,8.690732,3.8620157,0.0,0.0,0.0
20409593975781,-1.3208381,8.729017,4.2448673,0.0,0.0,0.0
20409596354843,-1.0289137,8.484949,4.5224347,0.0,0.0,0.0
20409598733958,-0.66041905,8.781659,4.6899323,0.0,0.0,0.0
20409601113020,-1.1006985,9.217153,4.101298,0.0,0.0,0.0
20409603492083,-0.7513463,8.953942,3.522235,0.0,0.0,0.0
20409605871197,-0.30149564,8.743374,3.8524444,0.0,0.0,0.0
20409608250260,-0.8327023,8.532805,3.938586,0.0,0.0,0.0
20409610629322,-1.1102697,9.040084,4.575077,0.0,0.0,0.0
20409613008437,-0.526421,8.623733,4.6037908,0.0,0.0,0.0
20409615387500,-0.5599205,8.303095,4.2257247,0.0,0.0,0.0
20409617766562,-1.0289137,8.56152,4.0007997,0.0,0.0,0.0
20409620145677,-0.76570326,8.9826565,3.9577286,0.0,0.0,0.0
20409622524739,-0.71306115,8.853444,3.6323047,0.0,0.0,0.0
20409624903802,-0.57906306,8.551949,3.67059,0.0,0.0,0.0
20409627282916,-0.57906306,8.886943,4.508078,0.0,0.0,0.0
20409629661979,-0.37328035,8.863015,4.388437,0.0,0.0,0.0
20409632041041,-0.8039884,9.059227,4.302295,0.0,0.0,0.0
20409634420156,-0.4546363,8.843872,4.0773697,0.0,0.0,0.0
20409636799218,-0.43070808,9.025727,4.254439,0.0,0.0,0.0
20409639178281,-0.79441714,9.288938,4.388437,0.0,0.0,0.0
20409641557395,-0.89013004,9.025727,4.426722,0.0,0.0,0.0
20409643936458,-0.8039884,9.040084,4.8239303,0.0,0.0,0.0
20409646315520,-0.8135597,9.059227,4.8765726,0.0,0.0,0.0
20409648694635,-1.253839,9.183653,4.8861437,0.0,0.0,0.0
20409651073697,-0.9379865,8.85823,4.5320063,0.0,0.0,0.0
20409653452708,-0.8805587,8.9348,4.398008,0.0,0.0,0.0
20409655831875,-0.9810573,8.958728,4.101298,0.0,0.0,0.0
20409658210937,-0.89491564,8.82473,4.048656,0.0,0.0,0.0
20409660590000,-0.7465607,8.829515,4.2687955,0.0,0.0,0.0
20409662969114,-0.7800602,8.7673025,4.3118663,0.0,0.0,0.0
20409665348177,-0.74177504,8.709874,4.273581,0.0,0.0,0.0
20409667727239,-0.51206404,8.647661,4.1922255,0.0,0.0,0.0
20409670106250,-0.43070808,8.681161,4.0390844,0.0,0.0,0.0
20409672485416,-0.3684947,8.695518,3.8907297,0.0,0.0,0.0
20409674864479,-0.22971097,8.676374,3.9673,0.0,0.0,0.0
20409677243593,-0.17228323,8.729017,4.1922255,0.0,0.0,0.0
20409679622656,-0.17228323,8.733803,4.3118663,0.0,0.0,0.0
20409682001718,-0.15314065,8.786445,4.369294,0.0,0.0,0.0
20409684380833,-0.1052842,8.877372,4.321438,0.0,0.0,0.0
20409686759895,-0.16271193,8.953942,4.1443686,0.0,0.0,0.0
20409689138958,-0.19621146,9.016156,4.024728,0.0,0.0,0.0
20409691518072,-0.17228323,9.016156,4.0534415,0.0,0.0,0.0
20409693897135,-0.27756742,9.035298,4.168297,0.0,0.0,0.0
20409696276197,-0.4019942,9.040084,4.2975097,0.0,0.0,0.0
20409698655312,-0.41156548,9.059227,4.345366,0.0,0.0,0.0
20409701034375,-0.42592242,9.020942,4.278367,0.0,0.0,0.0
20409703413437,-0.5072784,9.044869,4.1778684,0.0,0.0,0.0
20409705792552,-0.5168497,9.073584,4.106084,0.0,0.0,0.0
20409708171614,-0.49292147,9.020942,4.063013,0.0,0.0,0.0
20409710550677,-0.5168497,8.977871,4.0965123,0.0,0.0,0.0
20409712929739,-0.51206404,8.9348,4.139583,0.0,0.0,0.0
20409715308854,-0.5072784,8.906086,4.1874394,0.0,0.0,0.0
20409717687916,-0.4546363,8.829515,4.168297,0.0,0.0,0.0
20409720067031,-0.41635114,8.796016,4.1204405,0.0,0.0,0.0
20409722446093,-0.4019942,8.805588,4.048656,0.0,0.0,0.0
20409724825156,-0.37328035,8.819944,4.005585,0.0,0.0,0.0
20409727204218,-0.32542387,8.800801,4.0295134,0.0,0.0,0.0
20409729583333,-0.28235307,8.776874,4.1347976,0.0,0.0,0.0
20409731962395,-0.28235307,8.772088,4.240082,0.0,0.0,0.0
20409734341510,-0.30149564,8.748159,4.2687955,0.0,0.0,0.0
20409736720572,-0.3493521,8.762517,4.254439,0.0,0.0,0.0
20409739099635,-0.4211368,8.796016,4.2017965,0.0,0.0,0.0
20409741478750,-0.51206404,8.819944,4.1922255,0.0,0.0,0.0
20409743857812,-0.66041905,8.963513,4.331009,0.0,0.0,0.0
20409746236875,-0.75613195,8.85823,4.2927237,0.0,0.0,0.0
20409748615937,-0.86141616,8.853444,4.3070807,0.0,0.0,0.0
20409750995052,-0.971486,8.915657,4.3070807,0.0,0.0,0.0
20409753374114,-1.052842,8.915657,4.3645086,0.0,0.0,0.0
20409755753177,-1.1294123,8.886943,4.421936,0.0,0.0,0.0
20409758132291,-1.1437693,8.848659,4.426722,0.0,0.0,0.0
20409760511354,-1.1964114,8.848659,4.465007,0.0,0.0,0.0
20409762890416,-1.1772687,8.82473,4.4602213,0.0,0.0,0.0
20409765269531,-1.134198,8.886943,4.465007,0.0,0.0,0.0
20409767648593,-1.0336994,8.853444,4.4075794,0.0,0.0,0.0
20409770027656,-1.0049855,8.796016,4.3788652,0.0,0.0,0.0
20409772406770,-0.9236295,8.7673025,4.398008,0.0,0.0,0.0
20409774785833,-0.8566305,8.834301,4.4602213,0.0,0.0,0.0
20409777164895,-0.7178468,8.815159,4.3740797,0.0,0.0,0.0
20409779544010,-0.64606214,8.848659,4.3501515,0.0,0.0,0.0
20409781923072,-0.5168497,8.877372,4.240082,0.0,0.0,0.0
20409784302135,-0.39720857,8.953942,4.130012,0.0,0.0,0.0
20409786681250,-0.3062813,8.987442,4.1108694,0.0,0.0,0.0
20409789060312,-0.23928227,8.953942,4.1108694,0.0,0.0,0.0
20409791439375,-0.2009971,8.953942,4.1204405,0.0,0.0,0.0
20409793818489,-0.19621146,8.968299,4.130012,0.0,0.0,0.0
20409796197552,-0.18664017,8.997013,4.1108694,0.0,0.0,0.0
20409798576614,-0.22492532,9.044869,4.063013,0.0,0.0,0.0
20409800955729,-0.3493521,9.073584,4.019942,0.0,0.0,0.0
20409803334791,-0.42592242,9.0544405,3.9816568,0.0,0.0,0.0
20409805713854,-0.5312066,9.059227,3.9960139,0.0,0.0,0.0
20409808092968,-0.6556334,9.097511,4.0390844,0.0,0.0,0.0
20409810472031,-0.7752745,9.083155,4.0677986,0.0,0.0,0.0
20409812851093,-0.8470592,9.044869,4.091727,0.0,0.0,0.0
20409815230208,-0.8853444,9.016156,4.0773697,0.0,0.0,0.0
20409817609270,-0.9523434,9.020942,4.048656,0.0,0.0,0.0
20409819988333,-0.971486,8.977871,4.0438704,0.0,0.0,0.0
20409822367447,-1.0097711,8.949157,4.072584,0.0,0.0,0.0
20409824746458,-1.0001999,8.886943,4.1108694,0.0,0.0,0.0
20409827125572,-0.9619147,8.863015,4.1922255,0.0,0.0,0.0
20409829504687,-0.90448695,8.843872,4.220939,0.0,0.0,0.0
20409831883697,-0.83748794,8.82473,4.2352962,0.0,0.0,0.0
20409834262812,-0.72741807,8.815159,4.220939,0.0,0.0,0.0
20409836641927,-0.61734825,8.829515,4.197011,0.0,0.0,0.0
20409839020989,-0.53599226,8.815159,4.220939,0.0,0.0,0.0
20409841400052,-0.44985065,8.815159,4.273581,0.0,0.0,0.0
20409843779114,-0.33020952,8.819944,4.3262234,0.0,0.0,0.0
20409846158229,-0.2440679,8.786445,4.359723,0.0,0.0,0.0
20409848537291,-0.17228323,8.819944,4.3645086,0.0,0.0,0.0
20409850916406,-0.148355,8.819944,4.369294,0.0,0.0,0.0
20409853295468,-0.13399807,8.810373,4.3645086,0.0,0.0,0.0
20409855674531,-0.19621146,8.839087,4.359723,0.0,0.0,0.0
20409858053593,-0.2440679,8.834301,4.3788652,0.0,0.0,0.0
20409860432708,-0.31585258,8.834301,4.388437,0.0,0.0,0.0
20409862811770,-0.39720857,8.848659,4.4075794,0.0,0.0,0.0
20409865190833,-0.44985065,8.886943,4.369294,0.0,0.0,0.0
20409867569947,-0.53599226,8.886943,4.3118663,0.0,0.0,0.0
20409869948958,-0.61734825,8.872586,4.26401,0.0,0.0,0.0
20409872328072,-0.6652047,8.882157,4.240082,0.0,0.0,0.0
20409874707187,-0.72741807,8.877372,4.2352962,0.0,0.0,0.0
20409877086250,-0.7322037,8.877372,4.2687955,0.0,0.0,0.0
20409879465312,-0.7369894,8.867801,4.273581,0.0,0.0,0.0
20409881844427,-0.74177504,8.839087,4.254439,0.0,0.0,0.0
20409884223489,-0.6987042,8.853444,4.206582,0.0,0.0,0.0
20409886602552,-0.6556334,8.863015,4.1635113,0.0,0.0,0.0
20409888981666,-0.60777694,8.853444,4.130012,0.0,0.0,0.0
20409891360729,-0.5407779,8.867801,4.1491547,0.0,0.0,0.0
20409893739791,-0.44506502,8.896515,4.1587257,0.0,0.0,0.0
20409896118906,-0.37806597,8.891729,4.1874394,0.0,0.0,0.0
20409898497968,-0.33020952,8.920443,4.1874394,0.0,0.0,0.0
20409900877031,-0.31585258,8.9108715,4.130012,0.0,0.0,0.0
20409903256145,-0.28713873,8.968299,4.106084,0.0,0.0,0.0
20409905635208,-0.33020952,8.958728,4.0869412,0.0,0.0,0.0
20409908014270,-0.37806597,8.958728,4.0965123,0.0,0.0,0.0
20409910393385,-0.46899325,8.949157,4.106084,0.0,0.0,0.0
20409912772447,-0.56470615,8.949157,4.1443686,0.0,0.0,0.0
20409915151510,-0.66041905,8.925228,4.1587257,0.0,0.0,0.0
20409917530625,-0.7465607,8.9108715,4.1347976,0.0,0.0,0.0
20409919909687,-0.8422736,8.925228,4.1108694,0.0,0.0,0.0
20409922288750,-0.9092726,8.915657,4.082155,0.0,0.0,0.0
20409924667812,-0.95712906,8.9108715,4.101298,0.0,0.0,0.0
20409927046927,-0.9954142,8.920443,4.1108694,0.0,0.0,0.0
20409929425989,-1.0241281,8.930014,4.15394,0.0,0.0,0.0
20409931805052,-1.0336994,8.9013,4.197011,0.0,0.0,0.0
20409934184114,-1.0241281,8.891729,4.206582,0.0,0.0,0.0
20409936563229,-0.98584294,8.882157,4.1874394,0.0,0.0,0.0
20409938942239,-0.9523434,8.877372,4.1874394,0.0,0.0,0.0
20409941321406,-0.90448695,8.867801,4.1874394,0.0,0.0,0.0
20409943700468,-0.8422736,8.863015,4.240082,0.0,0.0,0.0
20409946079531,-0.7704889,8.853444,4.2687955,0.0,0.0,0.0
20409948458645,-0.72263247,8.829515,4.278367,0.0,0.0,0.0
20409950837708,-0.66041905,8.882157,4.2831526,0.0,0.0,0.0
20409953216770,-0.5982057,8.877372,4.2592244,0.0,0.0,0.0
20409955595885,-0.5886344,8.891729,4.220939,0.0,0.0,0.0
20409957974947,-0.5599205,8.9013,4.2161536,0.0,0.0,0.0
20409960354010,-0.5599205,8.930014,4.23051,0.0,0.0,0.0
20409962733125,-0.6029913,8.949157,4.2687955,0.0,0.0,0.0
20409965112187,-0.6556334,8.977871,4.3357944,0.0,0.0,0.0
20409967491250,-0.6795616,8.9826565,4.302295,0.0,0.0,0.0
20409969870364,-0.7082755,8.963513,4.278367,0.0,0.0,0.0
20409972249427,-0.7848458,8.977871,4.254439,0.0,0.0,0.0
20409974628489,-0.80877405,9.020942,4.2352962,0.0,0.0,0.0
20409977007604,-0.79441714,9.016156,4.1922255,0.0,0.0,0.0
20409979386666,-0.8470592,9.035298,4.197011,0.0,0.0,0.0
20409981765729,-0.85184485,9.059227,4.220939,0.0,0.0,0.0
20409984144843,-0.81834537,9.040084,4.2352962,0.0,0.0,0.0
20409986523854,-0.7752745,9.01137,4.2448673,0.0,0.0,0.0
20409988902968,-0.7322037,9.01137,4.220939,0.0,0.0,0.0
20409991282083,-0.66999036,9.020942,4.1922255,0.0,0.0,0.0
20409993661145,-0.56470615,9.016156,4.15394,0.0,0.0,0.0
20409996040208,-0.47377887,9.01137,4.1443686,0.0,0.0,0.0
20409998419270,-0.3924229,9.001799,4.168297,0.0,0.0,0.0
20410000798385,-0.32063824,8.997013,4.220939,0.0,0.0,0.0
20410003177447,-0.26799613,9.001799,4.206582,0.0,0.0,0.0
20410005556510,-0.21535404,9.016156,4.182654,0.0,0.0,0.0
20410007935625,-0.19142582,8.987442,4.1347976,0.0,0.0,0.0
20410010314687,-0.18664017,8.977871,4.1108694,0.0,0.0,0.0
20410012693750,-0.22492532,8.987442,4.106084,0.0,0.0,0.0
20410015072864,-0.27756742,8.987442,4.139583,0.0,0.0,0.0
20410017451927,-0.33020952,8.958728,4.15394,0.0,0.0,0.0
20410019830989,-0.41635114,8.963513,4.173083,0.0,0.0,0.0
20410022210052,-0.52163535,8.944371,4.182654,0.0,0.0,0.0
20410024589166,-0.61734825,8.963513,4.168297,0.0,0.0,0.0
20410026968229,-0.6556334,8.963513,4.139583,0.0,0.0,0.0
20410029347343,-0.7322037,8.987442,4.1347976,0.0,0.0,0.0
20410031726406,-0.7752745,8.973084,4.139583,0.0,0.0,0.0
20410034105468,-0.81834537,8.958728,4.182654,0.0,0.0,0.0
20410036484583,-0.80877405,8.939586,4.2017965,0.0,0.0,0.0
20410038863645,-0.8039884,8.953942,4.2161536,0.0,0.0,0.0
20410041242708,-0.7704889,8.992228,4.2017965,0.0,0.0,0.0
20410043621718,-0.72263247,9.040084,4.1874394,0.0,0.0,0.0
20410046000885,-0.61734825,8.925228,4.1347976,0.0,0.0,0.0
20410048379947,-0.6221339,8.772088,4.1108694,0.0,0.0,0.0
20410050758958,-0.5024927,8.815159,4.168297,0.0,0.0,0.0
20410053138125,-0.55513483,8.815159,4.2161536,0.0,0.0,0.0
20410055517187,-0.44985065,8.695518,4.249653,0.0,0.0,0.0
20410057896302,-0.526421,8.82473,4.3645086,0.0,0.0,0.0
20410060275364,-0.5168497,8.944371,4.331009,0.0,0.0,0.0
20410062654427,-0.5599205,9.020942,4.302295,0.0,0.0,0.0
20410065033489,-0.55513483,8.997013,4.2592244,0.0,0.0,0.0
20410067412604,-0.55513483,9.092726,4.206582,0.0,0.0,0.0
20410069791666,-0.5407779,9.111869,4.182654,0.0,0.0,0.0
20410072170729,-0.5168497,9.006584,4.173083,0.0,0.0,0.0
20410074549843,-0.56470615,8.958728,4.1874394,0.0,0.0,0.0
20410076928906,-0.6125626,8.973084,4.211368,0.0,0.0,0.0
20410079307916,-0.6891329,8.896515,4.2017965,0.0,0.0,0.0
20410081687083,-0.71306115,8.839087,4.1922255,0.0,0.0,0.0
20410084066145,-0.70348984,8.800801,4.1635113,0.0,0.0,0.0
20410086445208,-0.72263247,8.762517,4.2257247,0.0,0.0,0.0
20410088824322,-0.7513463,8.762517,4.3070807,0.0,0.0,0.0
20410091203385,-0.6891329,8.85823,4.3740797,0.0,0.0,0.0
20410093582447,-0.64606214,8.925228,4.3501515,0.0,0.0,0.0
20410095961562,-0.57906306,8.939586,4.2831526,0.0,0.0,0.0
20410098340625,-0.46899325,9.020942,4.182654,0.0,0.0,0.0
20410100719687,-0.38285163,9.049655,4.106084,0.0,0.0,0.0
20410103098802,-0.29671,8.973084,4.115655,0.0,0.0,0.0
20410105477864,-0.25842485,8.949157,4.115655,0.0,0.0,0.0
20410107856927,-0.25842485,8.930014,4.206582,0.0,0.0,0.0
20410110236041,-0.27756742,8.786445,4.220939,0.0,0.0,0.0
20410112615104,-0.37328035,8.810373,4.249653,0.0,0.0,0.0
20410114994166,-0.4211368,8.848659,4.2017965,0.0,0.0,0.0
20410117373229,-0.4833502,8.872586,4.206582,0.0,0.0,0.0
20410119752343,-0.5694918,8.815159,4.1443686,0.0,0.0,0.0
20410122131406,-0.65084773,8.896515,4.1874394,0.0,0.0,0.0
20410124510468,-0.6843473,8.872586,4.1635113,0.0,0.0,0.0
20410126889583,-0.7513463,8.882157,4.240082,0.0,0.0,0.0
20410129268645,-0.7178468,8.925228,4.220939,0.0,0.0,0.0
20410131647708,-0.7752745,8.963513,4.2161536,0.0,0.0,0.0
20410134026822,-0.7609176,8.9108715,4.1874394,0.0,0.0,0.0
20410136405885,-0.7513463,8.9108715,4.1443686,0.0,0.0,0.0
20410138784947,-0.7800602,9.059227,4.2161536,0.0,0.0,0.0
20410141164062,-0.7322037,8.920443,4.1587257,0.0,0.0,0.0
20410143543125,-0.74177504,9.01137,4.254439,0.0,0.0,0.0
20410145922187,-0.66999036,8.930014,4.23051,0.0,0.0,0.0
20410148301302,-0.6221339,8.977871,4.2975097,0.0,0.0,0.0
20410150680364,-0.56470615,8.863015,4.2017965,0.0,0.0,0.0
20410153059427,-0.4833502,8.925228,4.240082,0.0,0.0,0.0
20410155438489,-0.42592242,8.829515,4.1491547,0.0,0.0,0.0
20410157817604,-0.44985065,8.843872,4.2161536,0.0,0.0,0.0
20410160196666,-0.3589234,8.82473,4.220939,0.0,0.0,0.0
20410162575729,-0.36370903,8.843872,4.2831526,0.0,0.0,0.0
20410164954843,-0.32063824,8.920443,4.3070807,0.0,0.0,0.0
20410167333854,-0.3493521,8.796016,4.168297,0.0,0.0,0.0
20410169712968,-0.37328035,8.915657,4.249653,0.0,0.0,0.0
20410172092083,-0.42592242,8.848659,4.1347976,0.0,0.0,0.0
20410174471145,-0.44027936,8.915657,4.1443686,0.0,0.0,0.0
20410176850208,-0.526421,8.810373,4.15394,0.0,0.0,0.0
20410179229322,-0.5455636,8.930014,4.2448673,0.0,0.0,0.0
20410181608385,-0.5982057,8.891729,4.2161536,0.0,0.0,0.0
20410183987447,-0.59342,8.968299,4.2687955,0.0,0.0,0.0
20410186366562,-0.63170516,8.973084,4.1491547,0.0,0.0,0.0
20410188745625,-0.5599205,9.044869,4.101298,0.0,0.0,0.0
20410191124687,-0.57427746,8.9108715,4.0869412,0.0,0.0,0.0
20410193503802,-0.51206404,9.006584,4.173083,0.0,0.0,0.0
20410195882864,-0.44027936,8.949157,4.130012,0.0,0.0,0.0
20410198261875,-0.38763726,8.958728,4.2017965,0.0,0.0,0.0
20410200641041,-0.44027936,8.9013,4.168297,0.0,0.0,0.0
20410203020104,-0.37328035,8.987442,4.1635113,0.0,0.0,0.0
20410205399166,-0.33020952,8.944371,4.1347976,0.0,0.0,0.0
20410207778229,-0.2727818,8.853444,4.1347976,0.0,0.0,0.0
20410210157343,-0.26799613,8.848659,4.130012,0.0,0.0,0.0
20410212536406,-0.28235307,8.872586,4.206582,0.0,0.0,0.0
20410214915520,-0.2536392,8.7577305,4.2592244,0.0,0.0,0.0
20410217294583,-0.29671,8.762517,4.26401,0.0,0.0,0.0
20410219673645,-0.4019942,8.819944,4.273581,0.0,0.0,0.0
20410222052708,-0.44985065,8.815159,4.2687955,0.0,0.0,0.0
20410224431822,-0.55034924,8.786445,4.2927237,0.0,0.0,0.0
20410226810885,-0.4977071,8.867801,4.316652,0.0,0.0,0.0
20410229189947,-0.5982057,8.882157,4.287938,0.0,0.0,0.0
20410231569062,-0.63170516,8.9348,4.3070807,0.0,0.0,0.0
20410233948125,-0.72741807,8.891729,4.2161536,0.0,0.0,0.0
20410236327187,-0.7609176,8.953942,4.2687955,0.0,0.0,0.0
20410238706302,-0.7752745,8.9348,4.2352962,0.0,0.0,0.0
20410241085364,-0.81834537,8.930014,4.1635113,0.0,0.0,0.0
20410243464427,-0.8327023,8.925228,4.197011,0.0,0.0,0.0
20410245843489,-0.8853444,8.891729,4.2161536,0.0,0.0,0.0
20410248222604,-0.8757731,8.9826565,4.2257247,0.0,0.0,0.0
20410250601666,-0.8566305,8.973084,4.211368,0.0,0.0,0.0
20410252980729,-0.82313097,8.867801,4.1778684,0.0,0.0,0.0
20410255359843,-0.80877405,8.944371,4.1491547,0.0,0.0,0.0
20410257738906,-0.75613195,8.9348,4.0534415,0.0,0.0,0.0
20410260117968,-0.72741807,8.853444,4.1443686,0.0,0.0,0.0
20410262497083,-0.5886344,8.872586,4.1587257,0.0,0.0,0.0
20410264876145,-0.61734825,8.992228,4.1922255,0.0,0.0,0.0
20410267255208,-0.5838487,8.953942,4.1587257,0.0,0.0,0.0
20410269634322,-0.57427746,8.9013,4.106084,0.0,0.0,0.0
20410272013385,-0.55513483,9.030513,4.082155,0.0,0.0,0.0
20410274392447,-0.6125626,9.016156,4.019942,0.0,0.0,0.0
20410276771562,-0.61734825,8.949157,4.101298,0.0,0.0,0.0
20410279150625,-0.6412765,8.973084,4.1204405,0.0,0.0,0.0
20410281529687,-0.72263247,9.064013,4.168297,0.0,0.0,0.0
20410283908802,-0.7848458,8.9348,4.2257247,0.0,0.0,0.0
20410286287864,-0.76570326,8.949157,4.273581,0.0,0.0,0.0
20410288666927,-0.7752745,9.01137,4.1922255,0.0,0.0,0.0
20410291045989,-0.82313097,8.968299,4.2352962,0.0,0.0,0.0
20410293425104,-0.74177504,8.882157,4.173083,0.0,0.0,0.0
20410295804166,-0.7704889,8.925228,4.2257247,0.0,0.0,0.0
20410298183229,-0.75613195,8.930014,4.2592244,0.0,0.0,0.0
20410300562343,-0.76570326,8.843872,4.26401,0.0,0.0,0.0
20410302941354,-0.6412765,8.877372,4.316652,0.0,0.0,0.0
20410305320468,-0.6269195,8.834301,4.26401,0.0,0.0,0.0
20410307699583,-0.5312066,8.85823,4.287938,0.0,0.0,0.0
20410310078645,-0.4833502,8.800801,4.2592244,0.0,0.0,0.0
20410312457708,-0.46899325,8.896515,4.321438,0.0,0.0,0.0
20410314836822,-0.44985065,8.843872,4.3118663,0.0,0.0,0.0
20410317215885,-0.45942193,8.834301,4.3405805,0.0,0.0,0.0
20410319594947,-0.47856453,8.752945,4.3405805,0.0,0.0,0.0
20410321974062,-0.47377887,8.805588,4.369294,0.0,0.0,0.0
20410324353125,-0.47856453,8.944371,4.398008,0.0,0.0,0.0
20410326732187,-0.57906306,8.953942,4.369294,0.0,0.0,0.0
20410329111250,-0.5982057,8.886943,4.2831526,0.0,0.0,0.0
20410331490364,-0.7082755,9.131011,4.273581,0.0,0.0,0.0
20410333869427,-0.7465607,9.131011,4.125226,0.0,0.0,0.0
20410336248489,-0.7752745,8.949157,4.106084,0.0,0.0,0.0
20410338627604,-0.8805587,9.01137,4.1778684,0.0,0.0,0.0
20410341006666,-0.971486,9.08794,4.2687955,0.0,0.0,0.0
20410343385729,-1.038485,9.116654,4.3836513,0.0,0.0,0.0
20410345764843,-0.95712906,8.906086,4.2352962,0.0,0.0,0.0
20410348143906,-1.0432707,9.059227,4.2017965,0.0,0.0,0.0
20410350522968,-1.038485,8.977871,4.048656,0.0,0.0,0.0
20410352902083,-0.93320084,8.992228,4.1108694,0.0,0.0,0.0
20410355281145,-0.8662018,8.968299,4.0677986,0.0,0.0,0.0
20410357660156,-0.8805587,9.068798,4.15394,0.0,0.0,0.0
20410360039322,-0.7609176,8.958728,4.2017965,0.0,0.0,0.0
20410362418385,-0.6652047,8.930014,4.182654,0.0,0.0,0.0
20410364797447,-0.6221339,8.973084,4.101298,0.0,0.0,0.0
20410367176510,-0.60777694,8.944371,4.0869412,0.0,0.0,0.0
20410369555625,-0.45942193,8.877372,4.058227,0.0,0.0,0.0
20410371934687,-0.43070808,8.987442,4.091727,0.0,0.0,0.0
20410374313750,-0.42592242,8.906086,4.125226,0.0,0.0,0.0
20410376692864,-0.4019942,8.82473,4.168297,0.0,0.0,0.0
20410379071927,-0.4211368,8.949157,4.23051,0.0,0.0,0.0
20410381450989,-0.40677986,8.9108715,4.240082,0.0,0.0,0.0
20410383830104,-0.3684947,8.71466,4.1922255,0.0,0.0,0.0
20410386209166,-0.4019942,8.796016,4.2017965,0.0,0.0,0.0
20410388588229,-0.4546363,8.906086,4.2257247,0.0,0.0,0.0
20410390967343,-0.4881358,8.676374,4.1874394,0.0,0.0,0.0
20410393346406,-0.526421,8.63809,4.287938,0.0,0.0,0.0
20410395725468,-0.5694918,8.652447,4.359723,0.0,0.0,0.0
20410398104583,-0.39720857,8.700303,4.479364,0.0,0.0,0.0
20410400483645,-0.22492532,8.709874,4.4171505,0.0,0.0,0.0
20410402862708,-0.23928227,8.925228,4.3501515,0.0,0.0,0.0
20410405241822,-0.16749759,8.834301,4.139583,0.0,0.0,0.0
20410407620885,-0.023928227,8.915657,4.106084,0.0,0.0,0.0
20410409999947,0.1052842,9.020942,4.101298,0.0,0.0,0.0
20410412379010,0.033499517,8.992228,4.1874394,0.0,0.0,0.0
20410414758072,0.043070808,8.867801,4.345366,0.0,0.0,0.0
20410417137187,0.11485548,8.886943,4.436293,0.0,0.0,0.0
20410419516250,0.06699903,8.987442,4.4171505,0.0,0.0,0.0
20410421895364,0.023928227,8.853444,4.2831526,0.0,0.0,0.0
20410424274427,0.014356935,8.872586,4.2161536,0.0,0.0,0.0
20410426653489,-0.038285162,8.925228,4.1347976,0.0,0.0,0.0
20410429032604,-0.086141616,8.949157,4.1874394,0.0,0.0,0.0
20410431411666,-0.08135597,8.829515,4.173083,0.0,0.0,0.0
20410433790729,-0.09571291,8.9348,4.254439,0.0,0.0,0.0
20410436169791,-0.22013968,8.939586,4.220939,0.0,0.0,0.0
20410438548906,-0.33020952,8.9013,4.2017965,0.0,0.0,0.0
20410440927968,-0.3589234,8.9013,4.125226,0.0,0.0,0.0
20410443307031,-0.42592242,9.044869,4.125226,0.0,0.0,0.0
20410445686145,-0.53599226,8.944371,4.101298,0.0,0.0,0.0
20410448065208,-0.5407779,8.882157,4.197011,0.0,0.0,0.0
20410450444270,-0.6029913,8.915657,4.278367,0.0,0.0,0.0
20410452823385,-0.5982057,8.949157,4.316652,0.0,0.0,0.0
20410455202447,-0.6125626,8.882157,4.2352962,0.0,0.0,0.0
20410457581510,-0.5886344,8.9826565,4.211368,0.0,0.0,0.0
20410459960625,-0.53599226,8.987442,4.0869412,0.0,0.0,0.0
20410462339687,-0.51206404,9.001799,4.0869412,0.0,0.0,0.0
20410464718750,-0.3924229,9.030513,4.15394,0.0,0.0,0.0
20410467097864,-0.38763726,8.9013,4.15394,0.0,0.0,0.0
20410469476927,-0.39720857,8.9108715,4.23051,0.0,0.0,0.0
20410471855989,-0.4211368,8.800801,4.168297,0.0,0.0,0.0
20410474235052,-0.36370903,8.867801,4.2161536,0.0,0.0,0.0
20410476614166,-0.32542387,8.839087,4.125226,0.0,0.0,0.0
20410478993229,-0.40677986,8.85823,4.1635113,0.0,0.0,0.0
20410481372291,-0.37328035,8.886943,4.173083,0.0,0.0,0.0
20410483751354,-0.37328035,8.9013,4.1922255,0.0,0.0,0.0
20410486130468,-0.37806597,8.85823,4.2017965,0.0,0.0,0.0
20410488509531,-0.3493521,8.958728,4.220939,0.0,0.0,0.0
20410490888645,-0.33499518,9.020942,4.1874394,0.0,0.0,0.0
20410493267708,-0.38763726,8.925228,4.1635113,0.0,0.0,0.0
20410495646770,-0.3684947,8.9108715,4.125226,0.0,0.0,0.0
20410498025885,-0.42592242,9.044869,4.1635113,0.0,0.0,0.0
20410500404947,-0.45942193,9.01137,4.168297,0.0,0.0,0.0
20410502784010,-0.4546363,8.939586,4.2352962,0.0,0.0,0.0
20410505163072,-0.47856453,8.997013,4.249653,0.0,0.0,0.0
20410507542187,-0.45942193,9.064013,4.206582,0.0,0.0,0.0
20410509921250,-0.5312066,8.915657,4.1443686,0.0,0.0,0.0
20410512300312,-0.4546363,8.939586,4.1778684,0.0,0.0,0.0
20410514679427,-0.4211368,9.040084,4.1922255,0.0,0.0,0.0
20410517058489,-0.4211368,9.044869,4.206582,0.0,0.0,0.0
20410519437552,-0.37806597,8.9013,4.1922255,0.0,0.0,0.0
20410521816666,-0.36370903,9.025727,4.273581,0.0,0.0,0.0
20410524195729,-0.3589234,9.020942,4.23051,0.0,0.0,0.0
20410526574791,-0.37328035,8.944371,4.2352962,0.0,0.0,0.0
20410528953906,-0.3924229,8.944371,4.254439,0.0,0.0,0.0
20410531332968,-0.44506502,9.068798,4.3070807,0.0,0.0,0.0
20410533712031,-0.4881358,9.016156,4.249653,0.0,0.0,0.0
20410536091093,-0.49292147,8.968299,4.2927237,0.0,0.0,0.0
20410538470208,-0.47856453,8.9013,4.23051,0.0,0.0,0.0
20410540849270,-0.5599205,8.944371,4.26401,0.0,0.0,0.0
20410543228333,-0.5838487,8.930014,4.3118663,0.0,0.0,0.0
20410545607447,-0.5982057,8.877372,4.254439,0.0,0.0,0.0
20410547986510,-0.6412765,8.963513,4.321438,0.0,0.0,0.0
20410550365572,-0.6125626,8.867801,4.2448673,0.0,0.0,0.0
20410552744687,-0.67477596,8.891729,4.302295,0.0,0.0,0.0
20410555123750,-0.6221339,8.829515,4.2257247,0.0,0.0,0.0
20410557502812,-0.6412765,8.953942,4.2927237,0.0,0.0,0.0
20410559881927,-0.6939186,8.973084,4.2448673,0.0,0.0,0.0
20410562260989,-0.6795616,8.848659,4.115655,0.0,0.0,0.0
20410564640052,-0.70348984,8.882157,4.1108694,0.0,0.0,0.0
20410567019166,-0.64606214,8.944371,4.101298,0.0,0.0,0.0
20410569398229,-0.6795616,8.949157,4.1635113,0.0,0.0,0.0
20410571777291,-0.6412765,8.776874,4.173083,0.0,0.0,0.0
20410574156354,-0.6269195,8.839087,4.249653,0.0,0.0,0.0
20410576535468,-0.59342,8.819944,4.197011,0.0,0.0,0.0
20410578914531,-0.59342,8.843872,4.2352962,0.0,0.0,0.0
20410581293593,-0.526421,8.776874,4.1922255,0.0,0.0,0.0
20410583672708,-0.5168497,8.843872,4.206582,0.0,0.0,0.0
20410586051770,-0.526421,8.853444,4.2257247,0.0,0.0,0.0
20410588430833,-0.4546363,8.7577305,4.168297,0.0,0.0,0.0
20410590809947,-0.41635114,8.891729,4.2257247,0.0,0.0,0.0
20410593189010,-0.37806597,8.992228,4.1874394,0.0,0.0,0.0
20410595568072,-0.38763726,8.886943,4.0869412,0.0,0.0,0.0
20410597947135,-0.30149564,8.915657,4.1108694,0.0,0.0,0.0
20410600326250,-0.2440679,9.040084,4.125226,0.0,0.0,0.0
20410602705312,-0.17228323,9.044869,4.1491547,0.0,0.0,0.0
20410605084375,-0.16749759,8.963513,4.1874394,0.0,0.0,0.0
20410607463489,-0.17706887,8.9826565,4.2352962,0.0,0.0,0.0
20410609842552,-0.19621146,9.01137,4.206582,0.0,0.0,0.0
20410612221614,-0.20578274,8.930014,4.130012,0.0,0.0,0.0
20410614600729,-0.28235307,8.877372,4.091727,0.0,0.0,0.0
20410616979791,-0.32063824,8.896515,4.0677986,0.0,0.0,0.0
20410619358854,-0.36370903,8.85823,4.1491547,0.0,0.0,0.0
20410621737968,-0.41156548,8.748159,4.1874394,0.0,0.0,0.0
20410624117031,-0.4833502,8.839087,4.254439,0.0,0.0,0.0
20410626496093,-0.52163535,8.796016,4.2352962,0.0,0.0,0.0
20410628875208,-0.53599226,8.729017,4.23051,0.0,0.0,0.0
20410631254270,-0.5407779,8.853444,4.1778684,0.0,0.0,0.0
20410633633333,-0.4977071,8.85823,4.139583,0.0,0.0,0.0
20410636012395,-0.45942193,8.834301,4.182654,0.0,0.0,0.0
20410638391510,-0.45942193,8.877372,4.23051,0.0,0.0,0.0
20410640770572,-0.41635114,8.997013,4.2831526,0.0,0.0,0.0
20410643149635,-0.37806597,8.882157,4.2687955,0.0,0.0,0.0
20410645528750,-0.31585258,8.968299,4.273581,0.0,0.0,0.0
20410647907812,-0.28713873,9.08794,4.220939,0.0,0.0,0.0
20410650286875,-0.22013968,9.064013,4.240082,0.0,0.0,0.0
20410652665989,-0.2105684,8.977871,4.197011,0.0,0.0,0.0
20410655045052,-0.16271193,9.131011,4.23051,0.0,0.0,0.0
20410657424114,-0.19142582,9.135797,4.2448673,0.0,0.0,0.0
20410659803177,-0.11964113,8.958728,4.211368,0.0,0.0,0.0
20410662182291,-0.15314065,8.992228,4.182654,0.0,0.0,0.0
20410664561354,-0.22013968,9.140582,4.220939,0.0,0.0,0.0
20410666940468,-0.26799613,8.963513,4.1491547,0.0,0.0,0.0
20410669319531,-0.31585258,8.944371,4.1922255,0.0,0.0,0.0
20410671698593,-0.4211368,9.035298,4.182654,0.0,0.0,0.0
20410674077656,-0.53599226,9.035298,4.206582,0.0,0.0,0.0
20410676456770,-0.59342,8.877372,4.173083,0.0,0.0,0.0
20410678835833,-0.6987042,8.949157,4.182654,0.0,0.0,0.0
20410681214895,-0.7322037,9.016156,4.168297,0.0,0.0,0.0
20410683594010,-0.8039884,8.906086,4.15394,0.0,0.0,0.0
20410685973020,-0.80877405,8.848659,4.1347976,0.0,0.0,0.0
20410688352135,-0.8470592,8.944371,4.168297,0.0,0.0,0.0
20410690731197,-0.8470592,8.973084,4.2017965,0.0,0.0,0.0
20410693110312,-0.8662018,8.882157,4.1922255,0.0,0.0,0.0
20410695489375,-0.8470592,8.958728,4.211368,0.0,0.0,0.0
20410697868437,-0.8566305,9.001799,4.2161536,0.0,0.0,0.0
20410700247552,-0.82313097,8.973084,4.182654,0.0,0.0,0.0
20410702626614,-0.8039884,8.963513,4.15394,0.0,0.0,0.0
20410705005677,-0.7752745,8.997013,4.173083,0.0,0.0,0.0
20410707384791,-0.7513463,9.001799,4.1778684,0.0,0.0,0.0
20410709763854,-0.6891329,8.963513,4.173083,0.0,0.0,0.0
20410712142916,-0.6269195,8.925228,4.173083,0.0,0.0,0.0
20410714521979,-0.6029913,8.958728,4.1922255,0.0,0.0,0.0
20410716901093,-0.57906306,8.9348,4.173083,0.0,0.0,0.0
20410719280156,-0.53599226,8.867801,4.15394,0.0,0.0,0.0
20410721659218,-0.5312066,8.642876,4.125226,0.0,0.0,0.0
20410724038333,-0.42592242,8.183454,4.063013,0.0,0.0,0.0
20410726417395,-0.6652047,8.303095,4.1778684,0.0,0.0,0.0
20410728796458,-0.75613195,8.810373,4.2352962,0.0,0.0,0.0
20410731175572,-0.72741807,8.834301,4.2257247,0.0,0.0,0.0
20410733554635,-0.7082755,8.56152,4.249653,0.0,0.0,0.0
20410735933697,-0.66999036,9.020942,4.369294,0.0,0.0,0.0
20410738312760,-0.6029913,9.509077,4.4745784,0.0,0.0,0.0
20410740691875,-0.56470615,9.145369,4.469793,0.0,0.0,0.0
20410743070937,-0.5024927,9.092726,4.4458647,0.0,0.0,0.0
20410745450052,-0.4211368,9.609575,4.4602213,0.0,0.0,0.0
20410747829114,-0.3589234,9.432507,4.3645086,0.0,0.0,0.0
20410750208177,-0.2727818,8.843872,4.1922255,0.0,0.0,0.0
20410752587239,-0.23928227,9.059227,4.2257247,0.0,0.0,0.0
20410754966354,-0.25842485,9.19801,4.249653,0.0,0.0,0.0
20410757345416,-0.2536392,8.6141615,4.125226,0.0,0.0,0.0
20410759724479,-0.15792629,8.556734,4.1108694,0.0,0.0,0.0
20410762103541,-0.13878371,8.9826565,4.125226,0.0,0.0,0.0
20410764482656,-0.124426775,8.729017,4.0151563,0.0,0.0,0.0
20410766861718,-0.023928227,8.4705925,4.0438704,0.0,0.0,0.0
20410769240833,0.038285162,8.762517,4.101298,0.0,0.0,0.0
20410771619895,0.0,8.953942,4.182654,0.0,0.0,0.0
20410773998958,-0.043070808,8.671589,4.1778684,0.0,0.0,0.0
20410776378020,-0.009571291,8.724232,4.1922255,0.0,0.0,0.0
20410778757135,-0.13878371,9.044869,4.23051,0.0,0.0,0.0
20410781136197,-0.22492532,8.930014,4.130012,0.0,0.0,0.0
20410783515260,-0.33499518,8.829515,4.173083,0.0,0.0,0.0
20410785894375,-0.41635114,9.044869,4.2017965,0.0,0.0,0.0
20410788273437,-0.56470615,9.064013,4.220939,0.0,0.0,0.0
20410790652500,-0.6221339,8.906086,4.23051,0.0,0.0,0.0
20410793031614,-0.61734825,8.944371,4.1922255,0.0,0.0,0.0
20410795410677,-0.65084773,9.107083,4.168297,0.0,0.0,0.0
20410797789739,-0.66999036,9.020942,4.0965123,0.0,0.0,0.0
20410800168802,-0.6029913,8.958728,4.115655,0.0,0.0,0.0
20410802547916,-0.6029913,8.997013,4.1204405,0.0,0.0,0.0
20410804926979,-0.526421,9.001799,4.1778684,0.0,0.0,0.0
20410807306041,-0.46899325,8.920443,4.182654,0.0,0.0,0.0
20410809685156,-0.30149564,8.877372,4.1922255,0.0,0.0,0.0
20410812064218,-0.22492532,8.896515,4.2017965,0.0,0.0,0.0
20410814443281,-0.06699903,8.915657,4.206582,0.0,0.0,0.0
20410816822395,0.0,8.834301,4.2352962,0.0,0.0,0.0
20410819201458,0.10049855,8.800801,4.26401,0.0,0.0,0.0
20410821580520,0.16749759,8.82473,4.273581,0.0,0.0,0.0
20410823959583,0.2440679,8.863015,4.273581,0.0,0.0,0.0
20410826338697,0.29671,8.829515,4.220939,0.0,0.0,0.0
20410828717760,0.31585258,8.815159,4.23051,0.0,0.0,0.0
20410831096770,0.2632105,8.877372,4.240082,0.0,0.0,0.0
20410833475937,0.17706887,8.872586,4.2352962,0.0,0.0,0.0
20410835855000,0.043070808,8.748159,4.211368,0.0,0.0,0.0
20410838234062,-0.09092726,8.743374,4.2161536,0.0,0.0,0.0
20410840613177,-0.22492532,8.867801,4.249653,0.0,0.0,0.0
20410842992239,-0.3493521,8.7577305,4.197011,0.0,0.0,0.0
20410845371302,-0.4833502,8.776874,4.197011,0.0,0.0,0.0
20410847750364,-0.5599205,8.958728,4.23051,0.0,0.0,0.0
20410850129479,-0.6556334,8.944371,4.23051,0.0,0.0,0.0
20410852508541,-0.6891329,8.886943,4.2257247,0.0,0.0,0.0
20410854887604,-0.6795616,9.006584,4.23051,0.0,0.0,0.0
20410857266718,-0.6221339,9.08794,4.254439,0.0,0.0,0.0
20410859645781,-0.57427746,8.949157,4.240082,0.0,0.0,0.0
20410862024843,-0.46899325,8.944371,4.2352962,0.0,0.0,0.0
20410864403958,-0.3924229,9.083155,4.287938,0.0,0.0,0.0
20410866783020,-0.3062813,9.01137,4.278367,0.0,0.0,0.0
20410869162083,-0.18664017,8.930014,4.2687955,0.0,0.0,0.0
20410871541197,-0.086141616,9.001799,4.2352962,0.0,0.0,0.0
20410873920260,-0.009571291,9.049655,4.23051,0.0,0.0,0.0
20410876299322,0.10049855,8.877372,4.173083,0.0,0.0,0.0
20410878678385,0.14356937,8.882157,4.182654,0.0,0.0,0.0
20410881057500,0.15792629,8.987442,4.1778684,0.0,0.0,0.0
20410883436562,0.124426775,8.872586,4.1635113,0.0,0.0,0.0
20410885815625,0.10049855,8.829515,4.1587257,0.0,0.0,0.0
20410888194739,0.009571291,8.886943,4.1347976,0.0,0.0,0.0
20410890573802,-0.08135597,8.896515,4.139583,0.0,0.0,0.0
20410892952864,-0.19621146,8.772088,4.115655,0.0,0.0,0.0
20410895331927,-0.32542387,8.85823,4.15394,0.0,0.0,0.0
20410897711041,-0.47377887,8.9013,4.1922255,0.0,0.0,0.0
20410900090104,-0.53599226,8.819944,4.1922255,0.0,0.0,0.0
20410902469166,-0.6269195,8.815159,4.2017965,0.0,0.0,0.0
20410904848281,-0.6939186,8.930014,4.211368,0.0,0.0,0.0
20410907227343,-0.64606214,8.925228,4.2257247,0.0,0.0,0.0
20410909606406,-0.6269195,8.834301,4.168297,0.0,0.0,0.0
20410911985520,-0.55513483,8.930014,4.173083,0.0,0.0,0.0
20410914364583,-0.46899325,8.949157,4.1635113,0.0,0.0,0.0
20410916743645,-0.35413775,8.9108715,4.206582,0.0,0.0,0.0
20410919122760,-0.2440679,8.920443,4.2161536,0.0,0.0,0.0
20410921501822,-0.15792629,9.016156,4.254439,0.0,0.0,0.0
20410923880885,-0.038285162,8.973084,4.249653,0.0,0.0,0.0
20410926259947,0.076570325,8.958728,4.2592244,0.0,0.0,0.0
20410928639062,0.13878371,8.992228,4.2687955,0.0,0.0,0.0
20410931018125,0.23449662,8.997013,4.2831526,0.0,0.0,0.0
20410933397187,0.31106696,8.953942,4.26401,0.0,0.0,0.0
20410935776302,0.28713873,8.953942,4.249653,0.0,0.0,0.0
20410938155364,0.3062813,8.963513,4.273581,0.0,0.0,0.0
20410940534427,0.3062813,8.920443,4.2927237,0.0,0.0,0.0
20410942913541,0.2009971,8.9108715,4.2975097,0.0,0.0,0.0
20410945292604,0.08135597,8.9013,4.2831526,0.0,0.0,0.0
20410947671666,-0.014356935,8.9108715,4.287938,0.0,0.0,0.0
20410950050781,-0.09092726,8.886943,4.2687955,0.0,0.0,0.0
20410952429843,-0.25842485,8.85823,4.2448673,0.0,0.0,0.0
20410954808906,-0.3397808,8.915657,4.26401,0.0,0.0,0.0
20410957187968,-0.4019942,8.968299,4.316652,0.0,0.0,0.0
20410959567083,-0.47856453,8.920443,4.302295,0.0,0.0,0.0
20410961946145,-0.5407779,8.848659,4.2257247,0.0,0.0,0.0
20410964325208,-0.53599226,8.939586,4.2161536,0.0,0.0,0.0
20410966704270,-0.38763726,8.963513,4.1874394,0.0,0.0,0.0
