t_ns,ax,ay,az,accuracy
28040792617821,-1.5984055,5.723632,8.250452,3
28040794994539,-1.6271194,5.757131,8.188239,3
28040797373550,-1.6414764,5.7667027,8.135597,3
28040799752560,-1.6223338,5.790631,8.082955,3
28040802130789,-1.5888343,5.7810597,8.030313,3
28040804510529,-1.5314065,5.7810597,7.9968133,3
28040806889591,-1.5026926,5.8097734,7.987242,3
28040809268602,-1.4835501,5.800202,7.9537425,3
28040811647612,-1.430908,5.790631,7.948957,3
28040814026623,-1.4117653,5.800202,7.9393854,3
28040816405633,-1.3639089,5.8241305,7.9346,3
28040818784643,-1.3447664,5.8241305,7.9298143,3
28040821163654,-1.3351951,5.838487,7.9633136,3
28040823542248,-1.3160524,5.852844,8.030313,3
28040825921675,-1.282553,5.8624153,8.082955,3
28040828300633,-1.2634103,5.8672013,8.154739,3
28040830679696,-1.2203395,5.852844,8.250452,3
28040833058706,-1.1820544,5.852844,8.3174515,3
28040835437716,-1.1150553,5.8432727,8.403593,3
28040837816727,-1.0719845,5.828916,8.484949,3
28040840195737,-1.0145568,5.8193445,8.537591,3
28040842574748,-0.98584294,5.7810597,8.599805,3
28040844953758,-0.9092726,5.709275,8.652447,3
28040847332768,-0.8470592,5.680561,8.700303,3
28040849711779,-0.79920274,5.6374903,8.743374,3
28040852090789,-0.72741807,5.6039906,8.7577305,3
28040854469800,-0.6795616,5.56092,8.7673025,3
28040856848810,-0.6364908,5.5274205,8.743374,3
28040859227821,-0.60777694,5.4987063,8.748159,3
28040861606831,-0.57906306,5.474778,8.724232,3
28040863985841,-0.57427746,5.4460645,8.685946,3
28040866364852,-0.55034924,5.4412785,8.618947,3
28040868743862,-0.55513483,5.4221363,8.547162,3
28040871122873,-0.59342,5.45085,8.4705925,3
28040873501883,-0.60777694,5.4891353,8.413164,3
28040875880893,-0.66041905,5.4699926,8.327023,3
28040878259904,-0.6987042,5.508278,8.240881,3
28040880638914,-0.7465607,5.556134,8.16431,3
28040883017925,-0.7848458,5.575277,8.073383,3
28040885396935,-0.8470592,5.6183476,7.972885,3
28040887775946,-0.9092726,5.6374903,7.891529,3
28040890154956,-0.95712906,5.656633,7.8149586,3
28040892533966,-1.0001999,5.6853466,7.752745,3
28040894912977,-1.0576276,5.7188463,7.704889,3
28040897291987,-1.0959128,5.7379885,7.6666036,3
28040899670998,-1.1533405,5.761917,7.63789,3
28040902050008,-1.18684,5.7762737,7.594819,3
28040904429018,-1.2059826,5.7954164,7.580462,3
28040906808029,-1.2346965,5.7762737,7.52782,3
28040909187039,-1.2729816,5.7954164,7.5086775,3
28040911566050,-1.268196,5.790631,7.503892,3
28040913945060,-1.268196,5.790631,7.5230346,3
28040916324071,-1.2586247,5.7427745,7.537391,3
28040918703081,-1.2442678,5.74756,7.5613194,3
28040921082091,-1.2251252,5.6853466,7.5613194,3
28040923461102,-1.1964114,5.642276,7.6331043,3
28040925840112,-1.1772687,5.623133,7.661818,3
28040928219123,-1.1581261,5.5657053,7.7096744,3
28040930598133,-1.119841,5.532206,7.7623167,3
28040932977143,-1.119841,5.4891353,7.810173,3
28040935356154,-1.119841,5.460421,7.8628154,3
28040937735164,-1.0959128,5.4221363,7.9298143,3
28040940114175,-1.0671989,5.407779,7.9680996,3
28040942493185,-1.0719845,5.3647084,8.015956,3
28040944872196,-1.052842,5.3312087,8.035098,3
28040947251206,-1.038485,5.2929235,8.063812,3
28040949630216,-1.0289137,5.2977095,8.097312,3
28040952009175,-1.0097711,5.2929235,8.140383,3
28040954388237,-0.9762716,5.2689953,8.159525,3
28040956767248,-0.971486,5.2546387,8.183454,3
28040959146258,-0.9810573,5.259424,8.212168,3
28040961525268,-0.971486,5.2833524,8.240881,3
28040963904279,-0.9810573,5.2977095,8.279166,3
28040966283289,-0.9954142,5.302495,8.303095,3
28040968662300,-1.0145568,5.316852,8.346166,3
28040971041310,-1.0289137,5.345566,8.370093,3
28040973420321,-1.0336994,5.3742795,8.394022,3
28040975799331,-1.0336994,5.3790655,8.432307,3
28040978178341,-1.0432707,5.393422,8.465807,3
28040980557352,-1.052842,5.4125648,8.4705925,3
28040982936362,-1.1006985,5.436493,8.484949,3
28040985315373,-1.0959128,5.4221363,8.489735,3
28040987694383,-1.0863415,5.4125648,8.465807,3
28040990073393,-1.0719845,5.407779,8.465807,3
28040992452404,-1.0432707,5.4173503,8.46102,3
28040994831414,-1.0241281,5.4173503,8.446664,3
28040997210425,-1.0145568,5.3790655,8.446664,3
28040999589435,-0.9810573,5.3503513,8.446664,3
28041001968446,-0.971486,5.3407803,8.427522,3
28041004347456,-0.971486,5.345566,8.41795,3
28041006726466,-0.94755775,5.3503513,8.408379,3
28041009105477,-0.9236295,5.326423,8.394022,3
28041011484487,-0.93320084,5.312066,8.379665,3
28041013863498,-0.94277215,5.3216376,8.336594,3
28041016242508,-0.9236295,5.3072805,8.336594,3
28041018621518,-0.9236295,5.302495,8.327023,3
28041021000529,-0.9092726,5.312066,8.331808,3
28041023379539,-0.9284152,5.316852,8.34138,3
28041025758550,-0.9379865,5.316852,8.331808,3
28041028137560,-0.94755775,5.326423,8.346166,3
28041030516571,-0.9667004,5.312066,8.350951,3
28041032895581,-0.971486,5.3216376,8.370093,3
28041035274591,-1.0145568,5.3407803,8.374879,3
28041037653602,-1.038485,5.345566,8.374879,3
28041040032612,-1.0289137,5.312066,8.389236,3
28041042411623,-1.038485,5.316852,8.384451,3
28041044790633,-1.052842,5.359923,8.394022,3
28041047169643,-1.0624132,5.359923,8.394022,3
28041049548654,-1.0911272,5.3216376,8.403593,3
28041051927664,-1.1102697,5.302495,8.408379,3
28041054306623,-1.105484,5.288138,8.408379,3
28041056685685,-1.0815558,5.2737813,8.413164,3
28041059064696,-1.1102697,5.288138,8.408379,3
28041061443706,-1.1150553,5.2689953,8.413164,3
28041063822664,-1.1102697,5.2546387,8.422736,3
28041066201727,-1.1006985,5.2546387,8.446664,3
28041068580737,-1.0959128,5.2498527,8.4705925,3
28041070959748,-1.105484,5.259424,8.504091,3
28041073338758,-1.134198,5.2546387,8.513663,3
28041075717768,-1.119841,5.2163534,8.523234,3
28041078096779,-1.0815558,5.221139,8.518449,3
28041080475789,-1.0911272,5.197211,8.513663,3
28041082854800,-1.0719845,5.2019963,8.489735,3
28041085233810,-1.0624132,5.2019963,8.480164,3
28041087612821,-1.038485,5.206782,8.4705925,3
28041089991831,-1.0336994,5.1924253,8.446664,3
28041092370841,-1.0097711,5.163711,8.413164,3
28041094749852,-0.9906286,5.144569,8.379665,3
28041097128862,-0.971486,5.1589255,8.365308,3
28041099507873,-0.971486,5.1349974,8.336594,3
28041101886883,-0.9619147,5.1158547,8.312666,3
28041104265893,-0.9762716,5.1349974,8.312666,3
28041106644904,-0.9906286,5.144569,8.303095,3
28041109023914,-1.0145568,5.130212,8.269595,3
28041111402925,-1.038485,5.130212,8.2456665,3
28041113781935,-1.0480564,5.1349974,8.226524,3
28041116160946,-1.0767702,5.139783,8.202596,3
28041118539956,-1.1102697,5.144569,8.183454,3
28041120918966,-1.1294123,5.1206403,8.140383,3
28041123297977,-1.1389836,5.1062837,8.111669,3
28041125676987,-1.1724831,5.096712,8.068598,3
28041128055998,-1.1916257,5.1014977,8.063812,3
28041130435008,-1.2107682,5.1158547,8.04467,3
28041132814018,-1.2155539,5.1349974,8.049456,3
28041135193029,-1.2107682,5.1206403,8.04467,3
28041137572039,-1.2203395,5.1062837,8.039884,3
28041139951050,-1.2346965,5.087141,8.039884,3
28041142330060,-1.2155539,5.1014977,8.035098,3
28041144709018,-1.2203395,5.1349974,8.020741,3
28041147088081,-1.2107682,5.1062837,8.006385,3
28041149467091,-1.2011969,5.087141,8.006385,3
28041151846102,-1.2346965,5.1158547,8.001599,3
28041154225112,-1.2346965,5.1014977,8.015956,3
28041156604071,-1.2299109,5.096712,8.015956,3
28041158983133,-1.2346965,5.1158547,8.015956,3
28041161362143,-1.2442678,5.1349974,8.030313,3
28041163741154,-1.253839,5.130212,8.04467,3
28041166120164,-1.253839,5.1493545,8.063812,3
28041168499175,-1.2634103,5.139783,8.106883,3
28041170878185,-1.2442678,5.1589255,8.092526,3
28041173257196,-1.2155539,5.1828537,8.092526,3
28041175636206,-1.2251252,5.1828537,8.106883,3
28041178015216,-1.2299109,5.197211,8.097312,3
28041180394227,-1.2107682,5.1828537,8.116454,3
28041182773237,-1.1820544,5.178068,8.12124,3
28041185152300,-1.1820544,5.168497,8.126026,3
28041187531258,-1.1916257,5.1828537,8.116454,3
28041189910321,-1.18684,5.1732826,8.12124,3
28041192289331,-1.1629118,5.1493545,8.111669,3
28041194668341,-1.1102697,5.1589255,8.097312,3
28041197047300,-1.0959128,5.1589255,8.097312,3
28041199426362,-1.0815558,5.144569,8.073383,3
28041201805373,-1.0863415,5.15414,8.082955,3
28041204184383,-1.0959128,5.1589255,8.078169,3
28041206563341,-1.0911272,5.139783,8.078169,3
28041208942352,-1.1006985,5.163711,8.087741,3
28041211321414,-1.1102697,5.1924253,8.068598,3
28041213700425,-1.1485549,5.206782,8.063812,3
28041216079435,-1.1485549,5.221139,8.097312,3
28041218458446,-1.1533405,5.2259245,8.106883,3
28041220837456,-1.1389836,5.259424,8.116454,3
28041223216466,-1.1772687,5.2546387,8.116454,3
28041225595477,-1.2155539,5.278567,8.111669,3
28041227974487,-1.1916257,5.2929235,8.092526,3
28041230353498,-1.1772687,5.302495,8.082955,3
28041232732508,-1.1676974,5.302495,8.059027,3
28041235111518,-1.1485549,5.2977095,8.030313,3
28041237490529,-1.1389836,5.2833524,7.9968133,3
28041239869539,-1.134198,5.302495,7.972885,3
28041242248550,-1.1102697,5.302495,7.9106717,3
28041244627560,-1.0911272,5.2833524,7.867601,3
28041247006571,-1.1006985,5.2977095,7.8484583,3
28041249385581,-1.0911272,5.3072805,7.810173,3
28041251764591,-1.0767702,5.2833524,7.771888,3
28041254143602,-1.0767702,5.278567,7.7671022,3
28041256522612,-1.0863415,5.312066,7.757531,3
28041258901623,-1.0863415,5.326423,7.7479596,3
28041261280633,-1.1150553,5.345566,7.7383885,3
28041263659643,-1.1437693,5.3503513,7.7623167,3
28041266038654,-1.1676974,5.4029937,7.7910304,3
28041268417664,-1.1724831,5.3886366,7.810173,3
28041270796675,-1.1964114,5.3982077,7.8293157,3
28041273175685,-1.2011969,5.4173503,7.8436728,3
28041275554696,-1.2107682,5.4221363,7.853244,3
28041277933706,-1.2251252,5.426922,7.8628154,3
28041280312716,-1.2346965,5.4317074,7.8628154,3
28041282691727,-1.2155539,5.4173503,7.8484583,3
28041285070737,-1.2107682,5.3982077,7.8628154,3
28041287449748,-1.1772687,5.383851,7.838887,3
28041289828758,-1.1964114,5.3647084,7.82453,3
28041292207768,-1.1916257,5.3503513,7.8053875,3
28041294586779,-1.1629118,5.3359947,7.800602,3
28041296965789,-1.1629118,5.312066,7.82453,3
28041299344800,-1.1581261,5.278567,7.8197446,3
28041301723810,-1.1533405,5.2833524,7.8053875,3
28041304102821,-1.1437693,5.288138,7.8149586,3
28041306481831,-1.1246266,5.278567,7.8197446,3
28041308860841,-1.119841,5.2929235,7.8149586,3
28041311239852,-1.119841,5.2929235,7.8149586,3
28041313618862,-1.1006985,5.288138,7.795816,3
28041315997873,-1.0959128,5.3072805,7.795816,3
28041318376883,-1.0863415,5.302495,7.7814593,3
28041320755893,-1.1006985,5.326423,7.800602,3
28041323134904,-1.0767702,5.355137,7.8053875,3
28041325513914,-1.0480564,5.3790655,7.7910304,3
28041327892925,-1.0193424,5.3886366,7.8197446,3
28041330271935,-1.0336994,5.393422,7.853244,3
28041332650946,-1.0336994,5.407779,7.8963146,3
28041335029904,-1.0624132,5.4173503,7.944171,3
28041337408966,-1.0576276,5.4460645,7.9968133,3
28041339788029,-1.052842,5.4556355,8.039884,3
28041342166987,-1.0480564,5.4460645,8.087741,3
28041344545998,-1.0719845,5.436493,8.145168,3
28041346925008,-1.0624132,5.4173503,8.183454,3
28041349304071,-1.052842,5.4029937,8.240881,3
28041351683029,-1.0336994,5.3886366,8.274381,3
28041354062091,-1.0241281,5.359923,8.303095,3
28041356441050,-1.0145568,5.3407803,8.360522,3
28041358820112,-1.0193424,5.278567,8.379665,3
28041361199123,-1.0289137,5.2689953,8.398808,3
28041363578133,-1.0289137,5.235496,8.456235,3
28041365957143,-1.0241281,5.197211,8.508878,3
28041368336154,-1.0001999,5.163711,8.532805,3
28041370715164,-1.0049855,5.163711,8.556734,3
28041373094175,-1.0241281,5.130212,8.580662,3
28041375473133,-1.038485,5.111069,8.609376,3
28041377852196,-1.0241281,5.1014977,8.609376,3
28041380231206,-1.0719845,5.0775695,8.618947,3
28041382610216,-1.0959128,5.072784,8.623733,3
28041384989227,-1.1006985,5.0392847,8.595019,3
28041387368237,-1.1246266,5.0344987,8.571091,3
28041389747248,-1.1724831,5.0344987,8.537591,3
28041392126258,-1.1964114,5.0679984,8.508878,3
28041394505268,-1.2394822,5.0823555,8.451449,3
28041396884279,-1.253839,5.087141,8.41795,3
28041399263289,-1.2729816,5.0823555,8.355737,3
28041401642300,-1.3112668,5.1014977,8.327023,3
28041404021310,-1.3399807,5.1062837,8.26481,3
28041406400321,-1.3639089,5.1254263,8.226524,3
28041408779331,-1.402194,5.1254263,8.193025,3
28041411158341,-1.4356936,5.15414,8.145168,3
28041413537352,-1.4596218,5.197211,8.106883,3
28041415916362,-1.4548361,5.2307105,8.059027,3
28041418295373,-1.4931214,5.221139,8.015956,3
28041420674383,-1.5122639,5.2259245,7.9776707,3
28041423053393,-1.5122639,5.2163534,7.9346,3
28041425432404,-1.5122639,5.259424,7.905886,3
28041427811414,-1.5218352,5.2546387,7.8723865,3
28041430190425,-1.4883357,5.2689953,7.8628154,3
28041432569435,-1.5074782,5.2642097,7.853244,3
28041434948446,-1.4739788,5.2498527,7.8628154,3
28041437327456,-1.4596218,5.235496,7.8484583,3
28041439706466,-1.430908,5.245067,7.838887,3
28041442085477,-1.4213367,5.2402816,7.838887,3
28041444464487,-1.3926228,5.2546387,7.853244,3
28041446843498,-1.3734802,5.2689953,7.8628154,3
28041449222508,-1.3351951,5.278567,7.8628154,3
28041451601518,-1.3304094,5.2689953,7.881958,3
28041453980529,-1.3208381,5.2689953,7.9154572,3
28041456359539,-1.3208381,5.259424,7.9154572,3
28041458738550,-1.3064811,5.2546387,7.905886,3
28041461117560,-1.268196,5.2259245,7.8963146,3
28041463496571,-1.2442678,5.2498527,7.920243,3
28041465875633,-1.2346965,5.259424,7.9106717,3
28041468254591,-1.2203395,5.2498527,7.9393854,3
28041470633602,-1.2203395,5.2498527,7.9298143,3
28041473012664,-1.2346965,5.278567,7.9537425,3
28041475391675,-1.2394822,5.2689953,7.9920278,3
28041477770633,-1.2203395,5.2737813,7.987242,3
28041480149696,-1.2107682,5.3072805,7.987242,3
28041482528706,-1.2203395,5.312066,7.9968133,3
28041484907716,-1.2155539,5.312066,8.01117,3
28041487286727,-1.2442678,5.312066,8.030313,3
28041489665737,-1.2442678,5.316852,8.030313,3
28041492044748,-1.2634103,5.326423,8.020741,3
28041494423758,-1.2442678,5.3312087,8.015956,3
28041496802768,-1.253839,5.3359947,8.020741,3
28041499181779,-1.2394822,5.3407803,8.001599,3
28041501560789,-1.2203395,5.355137,8.025527,3
28041503939800,-1.2299109,5.345566,8.04467,3
28041506318810,-1.2251252,5.3359947,8.030313,3
28041508697821,-1.2299109,5.355137,8.025527,3
28041511076831,-1.2107682,5.355137,8.035098,3
28041513455841,-1.2011969,5.3647084,8.01117,3
28041515834852,-1.2251252,5.359923,7.9968133,3
28041518213862,-1.2107682,5.345566,7.9920278,3
28041520592873,-1.1916257,5.3407803,8.001599,3
28041522971883,-1.2107682,5.3407803,8.01117,3
28041525350893,-1.2059826,5.345566,8.006385,3
28041527729904,-1.18684,5.3312087,8.01117,3
28041530108914,-1.1820544,5.312066,8.025527,3
28041532487925,-1.1676974,5.3072805,8.049456,3
28041534866935,-1.1485549,5.3216376,8.063812,3
28041537245946,-1.1629118,5.3312087,8.087741,3
28041539624956,-1.1533405,5.3216376,8.106883,3
28041542003966,-1.1389836,5.3216376,8.135597,3
28041544382977,-1.134198,5.326423,8.159525,3
28041546761987,-1.1389836,5.3503513,8.183454,3
28041549140998,-1.1676974,5.3407803,8.188239,3
28041551520008,-1.1676974,5.326423,8.188239,3
28041553899018,-1.1389836,5.312066,8.193025,3
28041556278029,-1.1485549,5.302495,8.193025,3
28041558657039,-1.1533405,5.2977095,8.207381,3
28041561036050,-1.1389836,5.278567,8.236095,3
28041563415060,-1.1581261,5.2833524,8.236095,3
28041565794071,-1.1916257,5.2977095,8.255239,3
28041568173081,-1.1724831,5.288138,8.279166,3
28041570552039,-1.1820544,5.302495,8.288737,3
28041572931102,-1.1772687,5.312066,8.298309,3
28041575310164,-1.1964114,5.312066,8.327023,3
28041577689123,-1.2107682,5.316852,8.312666,3
28041580068185,-1.2011969,5.3359947,8.293523,3
28041582447196,-1.1916257,5.3359947,8.293523,3
28041584826206,-1.1629118,5.312066,8.283952,3
28041587205216,-1.1724831,5.312066,8.26481,3
28041589584227,-1.1820544,5.316852,8.240881,3
28041591963237,-1.1676974,5.3216376,8.221739,3
28041594342248,-1.134198,5.345566,8.19781,3
28041596721258,-1.1246266,5.3216376,8.169097,3
28041599100268,-1.119841,5.326423,8.154739,3
28041601479279,-1.0815558,5.326423,8.116454,3
28041603858289,-1.0576276,5.3407803,8.106883,3
28041606237300,-1.0432707,5.3407803,8.092526,3
28041608616310,-1.052842,5.3503513,8.073383,3
28041610995321,-1.0336994,5.4029937,8.039884,3
28041613374331,-1.0289137,5.426922,8.020741,3
28041615753341,-1.038485,5.4460645,7.987242,3
28041618132352,-1.0289137,5.4460645,7.982456,3
28041620511362,-1.0241281,5.460421,7.9680996,3
28041622890373,-1.0289137,5.4699926,7.9537425,3
28041625269383,-1.0289137,5.503492,7.948957,3
28041627648393,-1.0049855,5.517849,7.9346,3
28041630027404,-1.0049855,5.5274205,7.9298143,3
28041632406414,-1.0432707,5.5226345,7.9154572,3
28041634785425,-1.0480564,5.517849,7.9106717,3
28041637164435,-1.0432707,5.541777,7.905886,3
28041639543446,-1.052842,5.532206,7.905886,3
28041641922456,-1.0767702,5.556134,7.9298143,3
28041644301466,-1.0767702,5.503492,7.9393854,3
28041646680477,-1.0576276,5.508278,7.948957,3
28041649059487,-1.0815558,5.517849,7.9154572,3
28041651438498,-1.1294123,5.4987063,7.925029,3
28041653817508,-1.1533405,5.465207,7.9106717,3
28041656196518,-1.1437693,5.4795637,7.9106717,3
28041658575529,-1.1246266,5.465207,7.905886,3
28041660954539,-1.119841,5.4556355,7.9011,3
28041663333550,-1.1294123,5.4460645,7.905886,3
28041665712560,-1.1150553,5.4460645,7.9106717,3
28041668091623,-1.0815558,5.45085,7.920243,3
28041670470581,-1.0719845,5.436493,7.9298143,3
28041672849591,-1.0480564,5.4460645,7.9346,3
28041675228654,-1.0193424,5.4556355,7.958528,3
28041677607664,-0.9954142,5.4412785,7.987242,3
28041679986675,-0.971486,5.474778,7.987242,3
28041682365685,-0.94755775,5.4699926,7.987242,3
28041684744696,-0.9236295,5.460421,8.006385,3
28041687123706,-0.8805587,5.493921,8.006385,3
28041689502716,-0.8709874,5.493921,8.001599,3
28041691881727,-0.8566305,5.493921,7.9920278,3
28041694260737,-0.8566305,5.5274205,7.9920278,3
28041696639748,-0.8757731,5.56092,8.001599,3
28041699018758,-0.8997013,5.56092,8.035098,3
28041701397768,-0.90448695,5.5704913,8.039884,3
28041703776779,-0.9092726,5.5800624,8.04467,3
28041706155789,-0.91405827,5.5657053,8.063812,3
28041708534800,-0.91884387,5.5800624,8.073383,3
28041710913758,-0.91884387,5.5704913,8.097312,3
28041713292821,-0.9284152,5.556134,8.1020975,3
28041715671831,-0.9284152,5.5704913,8.073383,3
28041718050841,-0.9236295,5.5465627,8.063812,3
28041720429852,-0.8997013,5.517849,8.04467,3
28041722808862,-0.91405827,5.4987063,8.035098,3
28041725187873,-0.95712906,5.4795637,8.039884,3
28041727566883,-0.9954142,5.493921,8.01117,3
28041729945893,-1.0145568,5.493921,7.9776707,3
28041732324904,-1.0097711,5.460421,7.987242,3
28041734703914,-1.0241281,5.4460645,7.9633136,3
28041737082925,-1.0815558,5.4412785,7.920243,3
28041739461935,-1.105484,5.45085,7.9154572,3
28041741840946,-1.119841,5.4412785,7.920243,3
28041744219956,-1.1629118,5.436493,7.9154572,3
28041746598966,-1.1724831,5.45085,7.905886,3
28041748977977,-1.2011969,5.4556355,7.891529,3
28041751357039,-1.2107682,5.45085,7.867601,3
28041753736050,-1.2442678,5.474778,7.8436728,3
28041756115060,-1.2729816,5.465207,7.8149586,3
28041758494071,-1.2969099,5.460421,7.834101,3
28041760873081,-1.2921243,5.45085,7.8149586,3
28041763252091,-1.2969099,5.460421,7.800602,3
28041765631102,-1.3112668,5.4317074,7.7623167,3
28041768010112,-1.3256238,5.4125648,7.728817,3
28041770389123,-1.2969099,5.45085,7.704889,3
28041772768133,-1.2729816,5.460421,7.685746,3
28041775147143,-1.2634103,5.4460645,7.685746,3
28041777526154,-1.2490535,5.465207,7.685746,3
28041779905164,-1.2346965,5.4699926,7.685746,3
28041782284175,-1.2203395,5.4699926,7.6953177,3
28041784663185,-1.2251252,5.460421,7.685746,3
28041787042196,-1.2299109,5.45085,7.6809607,3
28041789421206,-1.2155539,5.45085,7.6809607,3
28041791800216,-1.2155539,5.4412785,7.661818,3
28041794179227,-1.1916257,5.4173503,7.661818,3
28041796558237,-1.1581261,5.4125648,7.647461,3
28041798937248,-1.1676974,5.436493,7.652247,3
28041801316258,-1.1581261,5.4173503,7.6426754,3
28041803695268,-1.1533405,5.407779,7.623533,3
28041806074279,-1.1102697,5.4029937,7.609176,3
28041808453289,-1.1006985,5.4173503,7.609176,3
28041810832300,-1.0911272,5.4173503,7.5996046,3
28041813211310,-1.0815558,5.407779,7.628319,3
28041815590321,-1.0576276,5.4317074,7.628319,3
28041817969331,-1.0624132,5.4412785,7.60439,3
28041820348393,-1.0671989,5.4173503,7.594819,3
28041822727352,-1.0576276,5.3790655,7.5900335,3
28041825106362,-1.0480564,5.3790655,7.60439,3
28041827485425,-1.038485,5.393422,7.6139617,3
28041829864435,-1.038485,5.4317074,7.6139617,3
28041832243446,-1.0576276,5.4221363,7.63789,3
28041834622456,-1.0576276,5.45085,7.652247,3
28041837001466,-1.0624132,5.465207,7.6570325,3
28041839380477,-1.0815558,5.4843497,7.676175,3
28041841759487,-1.1006985,5.503492,7.6713896,3
28041844138498,-1.1150553,5.5274205,7.7001033,3
28041846517508,-1.134198,5.5130634,7.752745,3
28041848896518,-1.119841,5.5130634,7.757531,3
28041851275529,-1.134198,5.5130634,7.776674,3
28041853654539,-1.1294123,5.517849,7.7814593,3
28041856033550,-1.134198,5.493921,7.7910304,3
28041858412560,-1.1581261,5.4795637,7.795816,3
28041860791571,-1.1485549,5.465207,7.7910304,3
28041863170581,-1.1437693,5.465207,7.7910304,3
28041865549591,-1.1294123,5.45085,7.800602,3
28041867928602,-1.1102697,5.4317074,7.8053875,3
28041870307612,-1.134198,5.426922,7.810173,3
28041872686623,-1.1389836,5.4029937,7.82453,3
28041875065633,-1.1724831,5.3790655,7.8293157,3
28041877444643,-1.1916257,5.3790655,7.82453,3
28041879823654,-1.2011969,5.3790655,7.838887,3
28041882202664,-1.2155539,5.369494,7.838887,3
28041884581675,-1.2299109,5.369494,7.8628154,3
28041886960685,-1.253839,5.355137,7.8867435,3
28041889339696,-1.282553,5.3790655,7.9011,3
28041891718706,-1.3064811,5.383851,7.920243,3
28041894097716,-1.3208381,5.3503513,7.9154572,3
28041896476779,-1.3304094,5.345566,7.9298143,3
28041898855789,-1.3639089,5.3503513,7.920243,3
28041901234800,-1.3686945,5.316852,7.9393854,3
28041903613810,-1.3782659,5.302495,7.948957,3
28041905992821,-1.416551,5.278567,7.944171,3
28041908371831,-1.4213367,5.2833524,7.9680996,3
28041910750841,-1.430908,5.259424,7.9776707,3
28041913129852,-1.4500505,5.235496,7.982456,3
28041915508862,-1.4883357,5.235496,8.01117,3
28041917887873,-1.5122639,5.221139,8.035098,3
28041920266883,-1.5409778,5.221139,8.04467,3
28041922645893,-1.5409778,5.2163534,8.049456,3
28041925024904,-1.5696917,5.206782,8.097312,3
28041927403914,-1.5744773,5.2019963,8.145168,3
28041929782925,-1.6223338,5.2019963,8.207381,3
28041932161935,-1.6414764,5.2019963,8.255239,3
28041934540946,-1.6366907,5.206782,8.293523,3
28041936919956,-1.6223338,5.1876397,8.327023,3
28041939298966,-1.5888343,5.206782,8.355737,3
28041941677977,-1.5696917,5.2019963,8.408379,3
28041944056987,-1.5936198,5.1828537,8.437093,3
28041946435998,-1.5840486,5.178068,8.465807,3
28041948815008,-1.5840486,5.144569,8.465807,3
28041951194018,-1.5553347,5.139783,8.49452,3
28041953573029,-1.5314065,5.1349974,8.508878,3
28041955952039,-1.4835501,5.1493545,8.523234,3
28041958331102,-1.4883357,5.1254263,8.551949,3
28041960710112,-1.4691931,5.1254263,8.547162,3
28041963089123,-1.4069797,5.111069,8.566305,3
28041965468133,-1.4261223,5.1158547,8.571091,3
28041967847143,-1.4500505,5.1158547,8.56152,3
28041970226154,-1.4452649,5.1254263,8.56152,3
28041972605164,-1.430908,5.1062837,8.547162,3
28041974984175,-1.430908,5.130212,8.504091,3
28041977363185,-1.4548361,5.1493545,8.475378,3
28041979742196,-1.4787644,5.1828537,8.4705925,3
28041982121206,-1.4883357,5.197211,8.437093,3
28041984500216,-1.5074782,5.2019963,8.408379,3
28041986879227,-1.5026926,5.2259245,8.422736,3
28041989258133,-1.5122639,5.206782,8.394022,3
28041991637248,-1.5553347,5.2546387,8.374879,3
28041994016258,-1.5696917,5.2642097,8.360522,3
28041996395268,-1.579263,5.2498527,8.331808,3
28041998774279,-1.5696917,5.259424,8.30788,3
28042001153289,-1.5744773,5.2498527,8.283952,3
28042003532300,-1.5984055,5.2689953,8.260024,3
28042005911310,-1.5936198,5.2546387,8.221739,3
28042008290321,-1.5744773,5.2737813,8.188239,3
28042010669279,-1.5601203,5.2833524,8.149954,3
28042013048341,-1.5314065,5.259424,8.126026,3
28042015427352,-1.5266209,5.2737813,8.126026,3
28042017806362,-1.5170496,5.302495,8.1020975,3
28042020185373,-1.5026926,5.316852,8.097312,3
28042022564383,-1.4739788,5.359923,8.087741,3
28042024943446,-1.4883357,5.383851,8.087741,3
28042027322456,-1.4787644,5.436493,8.082955,3
28042029701466,-1.4691931,5.4795637,8.092526,3
28042032080477,-1.4787644,5.508278,8.054241,3
28042034459487,-1.4739788,5.5369916,8.025527,3
28042036838498,-1.4548361,5.556134,8.020741,3
28042039217508,-1.4452649,5.5657053,8.006385,3
28042041596518,-1.4261223,5.56092,7.987242,3
28042043975529,-1.4117653,5.5513487,7.958528,3
28042046354539,-1.4261223,5.5704913,7.920243,3
28042048733550,-1.402194,5.5465627,7.8867435,3
28042051112560,-1.3734802,5.532206,7.8484583,3
28042053491571,-1.3734802,5.5465627,7.7910304,3
28042055870581,-1.3686945,5.541777,7.771888,3
28042058249591,-1.3878372,5.541777,7.7383885,3
28042060628602,-1.3926228,5.56092,7.719246,3
28042063007612,-1.3830515,5.5513487,7.6953177,3
28042065386623,-1.4261223,5.5896335,7.661818,3
28042067765633,-1.4691931,5.613562,7.628319,3
28042070144643,-1.4691931,5.6327047,7.60439,3
28042072523654,-1.4835501,5.6614184,7.5900335,3
28042074902716,-1.4787644,5.6757755,7.580462,3
28042077281727,-1.564906,5.680561,7.5756764,3
28042079660737,-1.5601203,5.709275,7.5756764,3
28042082039748,-1.579263,5.7188463,7.5613194,3
28042084418758,-1.5744773,5.723632,7.5900335,3
28042086797768,-1.5601203,5.757131,7.618747,3
28042089176779,-1.550549,5.7667027,7.6331043,3
28042091555789,-1.550549,5.7762737,7.647461,3
28042093934800,-1.5409778,5.790631,7.6809607,3
28042096313810,-1.550549,5.7954164,7.719246,3
28042098692821,-1.5218352,5.8097734,7.7479596,3
28042101071831,-1.5361922,5.7858453,7.7671022,3
28042103450841,-1.5361922,5.800202,7.771888,3
28042105829852,-1.550549,5.8241305,7.795816,3
28042108208862,-1.5553347,5.8193445,7.8053875,3
28042110587873,-1.550549,5.7954164,7.834101,3
28042112966883,-1.5601203,5.7858453,7.853244,3
28042115345893,-1.5601203,5.7810597,7.881958,3
28042117724904,-1.5601203,5.7667027,7.881958,3
28042120103914,-1.564906,5.7427745,7.920243,3
28042122482925,-1.6031911,5.74756,7.948957,3
28042124861935,-1.6223338,5.7810597,7.9633136,3
28042127240946,-1.6175481,5.7523456,7.9680996,3
28042129620008,-1.6127625,5.757131,7.9776707,3
28042131998966,-1.6127625,5.7427745,7.982456,3
28042134378029,-1.5936198,5.7379885,7.9968133,3
28042136757039,-1.6079768,5.7379885,8.030313,3
28042139136050,-1.6510476,5.7188463,8.04467,3
28042141515060,-1.6749759,5.7140603,8.059027,3
28042143894071,-1.6845472,5.7188463,8.063812,3
28042146273081,-1.7228323,5.723632,8.087741,3
28042148652091,-1.7324036,5.7379885,8.097312,3
28042151031102,-1.7467605,5.74756,8.092526,3
28042153410112,-1.7898313,5.7427745,8.078169,3
28042155789123,-1.7946169,5.74756,8.082955,3
28042158168133,-1.8137596,5.74756,8.087741,3
28042160547143,-1.8520447,5.7523456,8.082955,3
28042162926154,-1.8951155,5.7427745,8.068598,3
28042165305164,-1.8951155,5.757131,8.068598,3
28042167684123,-1.9094725,5.733203,8.097312,3
28042170063185,-1.8999012,5.723632,8.111669,3
28042172442196,-1.8999012,5.7188463,8.12124,3
28042174821206,-1.9238294,5.6757755,8.145168,3
28042177200216,-1.9334008,5.666204,8.149954,3
28042179579227,-1.9334008,5.6470613,8.178668,3
28042181958237,-1.9573289,5.6183476,8.169097,3
28042184337248,-1.942972,5.599205,8.1738825,3
28042186716310,-1.9238294,5.5896335,8.178668,3
28042189095321,-1.9238294,5.5465627,8.154739,3
28042191474331,-1.9477576,5.5513487,8.126026,3
28042193853341,-1.9286151,5.5513487,8.111669,3
28042196232352,-1.9286151,5.541777,8.092526,3
28042198611362,-1.9142581,5.5369916,8.063812,3
28042200990373,-1.9046868,5.5465627,8.049456,3
28042203369383,-1.861616,5.556134,8.054241,3
28042205748393,-1.8568304,5.5800624,8.073383,3
28042208127352,-1.8376877,5.623133,8.068598,3
28042210506414,-1.8424734,5.6614184,8.059027,3
28042212885425,-1.847259,5.6709895,8.039884,3
28042215264435,-1.8376877,5.723632,8.025527,3
28042217643446,-1.7994026,5.7379885,7.987242,3
28042220022456,-1.7994026,5.757131,7.948957,3
28042222401466,-1.7802601,5.757131,7.891529,3
28042224780477,-1.7850457,5.74756,7.853244,3
28042227159487,-1.7850457,5.7188463,7.7910304,3
28042229538498,-1.7754744,5.7284174,7.728817,3
28042231917560,-1.7467605,5.709275,7.652247,3
28042234296518,-1.7419748,5.6757755,7.5996046,3
28042236675581,-1.7467605,5.651847,7.537391,3
28042239054591,-1.7659031,5.6374903,7.479964,3
28042241433602,-1.7898313,5.599205,7.4273214,3
28042243812612,-1.8281165,5.5704913,7.3842506,3
28042246191623,-1.8664017,5.5465627,7.331609,3
28042248570633,-1.8711873,5.541777,7.2502527,3
28042250949643,-1.8951155,5.532206,7.192825,3
28042253328654,-1.9381863,5.5130634,7.1449685,3
28042255707664,-1.9525433,5.474778,7.0779696,3
28042258086675,-1.9764715,5.4412785,7.0348988,3
28042260465685,-2.0291135,5.4125648,6.963114,3
28042262844696,-2.062613,5.4029937,6.876972,3
28042265223706,-2.1008983,5.3886366,6.814759,3
28042267602716,-2.1391835,5.383851,6.74776,3
28042269981727,-2.172683,5.4173503,6.695118,3
28042272360737,-2.2301106,5.4460645,6.63769,3
28042274739696,-2.2492533,5.465207,6.546763,3
28042277118758,-2.2636101,5.474778,6.5084777,3
28042279497768,-2.292324,5.4891353,6.4941206,3
28042281876831,-2.3306093,5.5130634,6.4701924,3
28042284255789,-2.349752,5.532206,6.4797635,3
28042286634852,-2.3545375,5.532206,6.474978,3
28042289013862,-2.3976083,5.541777,6.4701924,3
28042291392873,-2.4263222,5.5369916,6.474978,3
28042293771883,-2.4789643,5.541777,6.4845495,3
28042296150893,-2.5459633,5.5226345,6.4701924,3
28042298529904,-2.5746772,5.5369916,6.4701924,3
28042300908914,-2.6129622,5.5226345,6.465407,3
28042303287925,-2.6512475,5.508278,6.4366927,3
28042305666935,-2.684747,5.508278,6.4175506,3
28042308045893,-2.7326035,5.517849,6.393622,3
28042310424956,-2.7900312,5.4843497,6.3792653,3
28042312803966,-2.8091738,5.4556355,6.355337,3
28042315182977,-2.8378878,5.45085,6.3601227,3
28042317561987,-2.8235307,5.436493,6.3792653,3
28042319940998,-2.8235307,5.4412785,6.364908,3
28042322320008,-2.8187451,5.426922,6.3696938,3
28042324699018,-2.804388,5.436493,6.3601227,3
28042327078029,-2.7852457,5.3982077,6.3457656,3
28042329457091,-2.7852457,5.3790655,6.3457656,3
28042331836102,-2.7900312,5.3790655,6.3122663,3
28042334215112,-2.8139594,5.3647084,6.2787666,3
28042336594123,-2.8522446,5.3359947,6.250053,3
28042338973133,-2.8666015,5.3216376,6.245267,3
28042341352143,-2.8953154,5.2929235,6.245267,3
28042343731154,-2.9479575,5.2737813,6.245267,3
28042346110164,-2.9862428,5.2546387,6.245267,3
28042348489175,-3.0005996,5.2498527,6.2787666,3
28042350868185,-3.0388846,5.259424,6.317052,3
28042353247196,-3.0867412,5.2929235,6.3696938,3
28042355626206,-3.1345978,5.302495,6.407979,3
28042358005164,-3.1633115,5.2977095,6.4558353,3
28042360384227,-3.2015967,5.2689953,6.4941206,3
28042362763237,-3.249453,5.2498527,6.5611196,3
28042365142248,-3.3212378,5.2402816,6.6329045,3
28042367521206,-3.3834512,5.302495,6.7238317,3
28042369900268,-3.4600215,5.312066,6.838687,3
28042372279175,-3.522235,5.345566,6.977471,3
28042374658289,-3.5700915,5.3790655,7.1306114,3
28042377037352,-3.6131623,5.407779,7.2789664,3
28042379416362,-3.6514473,5.4556355,7.422536,3
28042381795373,-3.6849468,5.4891353,7.5756764,3
28042384174383,-3.737589,5.503492,7.704889,3
28042386553393,-3.7615173,5.5274205,7.853244,3
28042388932404,-3.790231,5.541777,7.9680996,3
28042391311414,-3.842873,5.5369916,8.078169,3
28042393690425,-3.8668015,5.532206,8.207381,3
28042396069435,-3.8907297,5.5226345,8.298309,3
28042398448446,-3.9098723,5.532206,8.398808,3
28042400827456,-3.9098723,5.532206,8.475378,3
28042403206466,-3.938586,5.517849,8.551949,3
28042405585477,-3.9625144,5.4795637,8.618947,3
28042407964487,-3.938586,5.4460645,8.681161,3
28042410343498,-3.9242291,5.4125648,8.752945,3
28042412722508,-3.8907297,5.4221363,8.810373,3
28042415101518,-3.8380876,5.383851,8.853444,3
28042417480529,-3.7758741,5.369494,8.9348,3
28042419859591,-3.7471602,5.355137,8.997013,3
28042422238602,-3.6993039,5.3359947,9.049655,3
28042424617612,-3.6849468,5.312066,9.111869,3
28042426996623,-3.6370904,5.302495,9.183653,3
28042429375633,-3.5940197,5.312066,9.241081,3
28042431754643,-3.5605202,5.3647084,9.288938,3
28042434133654,-3.5174494,5.3742795,9.322437,3
28042436512612,-3.493521,5.393422,9.379865,3
28042438891675,-3.4456646,5.426922,9.408579,3
28042441270685,-3.4121652,5.4556355,9.41815,3
28042443649696,-3.397808,5.4843497,9.442079,3
28042446028706,-3.3643086,5.5130634,9.470792,3
28042448407716,-3.3499517,5.575277,9.470792,3
28042450786727,-3.3643086,5.599205,9.461221,3
28042453165737,-3.3403804,5.608776,9.475577,3
28042455544748,-3.3212378,5.642276,9.461221,3
28042457923758,-3.3164523,5.6614184,9.442079,3
28042460302768,-3.2638102,5.704489,9.413364,3
28042462681831,-3.2207394,5.7140603,9.394221,3
28042465060841,-3.1633115,5.704489,9.38465,3
28042467439852,-3.1058838,5.6949177,9.346365,3
28042469818862,-3.0388846,5.690132,9.298509,3
28042472197873,-2.9718857,5.6757755,9.23151,3
28042474576883,-2.900101,5.666204,9.169296,3
28042476955893,-2.7996025,5.651847,9.097511,3
28042479334904,-2.7469604,5.599205,9.025727,3
28042481713914,-2.6751757,5.5657053,8.958728,3
28042484092925,-2.5938199,5.5704913,8.867801,3
28042486471935,-2.5411777,5.56092,8.7673025,3
28042488850946,-2.507678,5.5369916,8.666803,3
28042491229956,-2.4885356,5.5274205,8.566305,3
28042493608966,-2.4358935,5.517849,8.427522,3
28042495987977,-2.3832514,5.5226345,8.293523,3
28042498366987,-2.3449662,5.5274205,8.159525,3
28042500745998,-2.3018954,5.517849,7.9776707,3
28042503125008,-2.2827528,5.5274205,7.8436728,3
28042505504071,-2.2301106,5.5369916,7.690532,3
28042507883081,-2.1822543,5.5274205,7.5613194,3
28042510262091,-2.1391835,5.508278,7.4177504,3
28042512641102,-2.07697,5.503492,7.2502527,3
28042515020112,-2.0673988,5.508278,7.125826,3
28042517399123,-2.053042,5.541777,7.0205417,3
28042519778133,-2.0338993,5.541777,6.9009004,3
28042522157143,-2.0051854,5.5657053,6.786045,3
28042524536154,-2.0003998,5.5944195,6.680761,3
28042526915164,-2.0195422,5.642276,6.5946193,3
28042529294175,-2.0195422,5.6757755,6.5084777,3
28042531673185,-2.0003998,5.7140603,6.45105,3
28042534052196,-2.024328,5.7523456,6.4127645,3
28042536431206,-2.0578275,5.7858453,6.384051,3
28042538810216,-2.0865414,5.8097734,6.3457656,3
28042541189227,-2.07697,5.8624153,6.3361945,3
28042543568237,-2.0865414,5.905486,6.326623,3
28042545947300,-2.0865414,5.919843,6.3696938,3
28042548326310,-2.0865414,5.953343,6.4175506,3
28042550705321,-2.1104696,5.977271,6.4558353,3
28042553084331,-2.1343977,6.0251274,6.5228343,3
28042555463341,-2.143969,6.0346985,6.6089764,3
28042557842352,-2.158326,6.0394845,6.666404,3
28042560221362,-2.1343977,6.0155563,6.74776,3
28042562600373,-2.1343977,5.9964137,6.8721867,3
28042564979383,-2.1391835,5.9964137,6.9535427,3
28042567358393,-2.1343977,5.977271,7.068398,3
28042569737404,-2.1343977,5.9246287,7.1688967,3
28042572116414,-2.1487548,5.8672013,7.298109,3
28042574495425,-2.1296122,5.8241305,7.422536,3
28042576874435,-2.143969,5.7858453,7.513463,3
28042579253446,-2.1535404,5.7284174,7.618747,3
28042581632508,-2.1343977,5.6614184,7.7240314,3
28042584011518,-2.105684,5.6327047,7.8436728,3
28042586390529,-2.1248264,5.584848,7.9537425,3
28042588769539,-2.115255,5.5369916,8.059027,3
28042591148550,-2.091327,5.4891353,8.1738825,3
28042593527560,-2.0673988,5.460421,8.288737,3
28042595906571,-2.062613,5.4221363,8.360522,3
28042598285581,-2.0386848,5.3647084,8.446664,3
28042600664591,-2.0338993,5.3407803,8.499306,3
28042603043602,-2.062613,5.316852,8.575876,3
28042605422612,-2.0578275,5.2833524,8.628518,3
28042607801623,-2.0386848,5.278567,8.676374,3
28042610180633,-2.0434706,5.2642097,8.709874,3
28042612559643,-2.024328,5.2402816,8.748159,3
28042614938654,-2.0051854,5.211568,8.776874,3
28042617317664,-1.9908284,5.197211,8.781659,3
28042619696675,-1.9764715,5.1828537,8.7673025,3
28042622075685,-1.9669002,5.178068,8.786445,3
28042624454748,-1.9812572,5.1493545,8.772088,3
28042626833758,-1.995614,5.178068,8.7577305,3
28042629212768,-2.0003998,5.1924253,8.752945,3
28042631591779,-2.0051854,5.2019963,8.762517,3
28042633970789,-2.024328,5.206782,8.7673025,3
28042636349800,-2.0338993,5.206782,8.7673025,3
28042638728810,-2.053042,5.2019963,8.7577305,3
28042641107768,-2.062613,5.2019963,8.752945,3
28042643486831,-2.0721843,5.1924253,8.729017,3
28042645865841,-2.0817556,5.178068,8.709874,3
28042648244852,-2.0961127,5.197211,8.676374,3
28042650623862,-2.0865414,5.1924253,8.657232,3
28042653002873,-2.091327,5.1732826,8.595019,3
28042655381883,-2.0961127,5.1589255,8.513663,3
28042657760893,-2.0865414,5.1589255,8.456235,3
28042660139956,-2.0865414,5.130212,8.403593,3
28042662518966,-2.1008983,5.1062837,8.350951,3
28042664897977,-2.1008983,5.096712,8.312666,3
28042667276987,-2.091327,5.096712,8.303095,3
28042669655998,-2.0865414,5.0775695,8.327023,3
28042672035008,-2.0961127,5.048856,8.355737,3
28042674414018,-2.1296122,5.0344987,8.370093,3
28042676793029,-2.1343977,5.020142,8.398808,3
28042679172039,-2.1535404,5.0105705,8.446664,3
28042681551050,-2.1391835,5.015356,8.4705925,3
28042683930060,-2.120041,5.015356,8.504091,3
28042686309071,-2.07697,5.0105705,8.56152,3
28042688688081,-1.9334008,4.9866424,8.60459,3
28042691067091,-1.6031911,5.015356,8.71466,3
28042693446154,-1.0001999,5.0823555,8.925228,3
28042695825164,-0.7800602,5.0392847,9.140582,3
28042698204175,-0.8709874,4.8909297,9.2075815,3
28042700583185,-1.0241281,4.74736,9.260223,3
28042702962196,-1.4835501,4.575077,9.432507,3
28042705341206,-2.0817556,4.469793,9.580862,3
28042707720216,-2.536392,4.5320063,9.504292,3
28042710099227,-2.7278178,4.6564326,9.23151,3
28042712478237,-2.6416762,4.843073,8.9348,3
28042714857248,-2.4885356,5.0536413,8.666803,3
28042717236258,-2.3641088,5.2546387,8.518449,3
28042719615268,-2.2731814,5.4125648,8.456235,3
28042721994279,-2.210968,5.508278,8.46102,3
28042724373289,-2.143969,5.5657053,8.513663,3
28042726752300,-2.0865414,5.584848,8.60459,3
28042729131310,-2.0578275,5.556134,8.662018,3
28042731510321,-2.0482562,5.532206,8.652447,3
28042733889383,-2.0578275,5.5130634,8.60459,3
28042736268393,-2.1343977,5.4795637,8.556734,3
28042738647404,-2.2636101,5.4795637,8.465807,3
28042741026414,-2.4358935,5.4843497,8.331808,3
28042743405425,-2.5842485,5.541777,8.19781,3
28042745784435,-2.6416762,5.6279187,8.082955,3
28042748163446,-2.6368906,5.6949177,7.944171,3
28042750542456,-2.603391,5.8193445,7.838887,3
28042752921466,-2.536392,5.8911295,7.7240314,3
28042755300477,-2.5220351,5.9294147,7.63789,3
28042757679487,-2.4885356,5.948557,7.5756764,3
28042760058498,-2.4789643,5.9342003,7.542177,3
28042762437508,-2.4454648,5.895915,7.489535,3
28042764816571,-2.4358935,5.8672013,7.460821,3
28042767195581,-2.416751,5.7954164,7.4033933,3
28042769574591,-2.3976083,5.7523456,7.355537,3
28042771953602,-2.3545375,5.690132,7.322037,3
28042774332612,-2.3162522,5.666204,7.2789664,3
28042776711623,-2.2875385,5.6279187,7.240681,3
28042779090633,-2.239682,5.623133,7.2358956,3
28042781469643,-2.210968,5.575277,7.216753,3
28042783848654,-2.201397,5.541777,7.2023964,3
28042786227664,-2.1870399,5.5465627,7.192825,3
28042788606675,-2.1487548,5.517849,7.149754,3
28042790985685,-2.1343977,5.5274205,7.140183,3
28042793364643,-2.1248264,5.5226345,7.1210403,3
28042795743706,-2.120041,5.517849,7.1210403,3
28042798122768,-2.1391835,5.5465627,7.1210403,3
28042800501779,-2.1631117,5.5657053,7.1306114,3
28042802880789,-2.2061825,5.5657053,7.135397,3
28042805259800,-2.2205393,5.6039906,7.140183,3
28042807638810,-2.2205393,5.656633,7.1784678,3
28042810017821,-2.2301106,5.7188463,7.2263246,3
28042812396831,-2.239682,5.7810597,7.2502527,3
28042814775841,-2.2492533,5.852844,7.2263246,3
28042817154852,-2.268396,5.881558,7.2358956,3
28042819533810,-2.2588246,5.9150577,7.23111,3
28042821912873,-2.239682,5.977271,7.2263246,3
28042824291883,-2.2157538,5.9820566,7.207182,3
28042826670893,-2.210968,6.005985,7.1880393,3
28042829049800,-2.1918256,5.9581285,7.1545396,3
28042831428966,-2.158326,5.919843,7.1210403,3
28042833807977,-2.158326,5.910272,7.082755,3
28042836186987,-2.1248264,5.8863435,7.0779696,3
28042838565998,-2.07697,5.8241305,7.04447,3
28042840945008,-2.0338993,5.7810597,7.025327,3
28042843324018,-1.995614,5.7427745,6.987042,3
28042845703029,-1.9669002,5.733203,6.9678993,3
28042848082039,-1.942972,5.690132,6.9535427,3
28042850461050,-1.942972,5.651847,6.943971,3
28042852840060,-1.9716859,5.6327047,6.9391856,3
28042855219071,-2.0003998,5.6374903,6.9344,3
28042857598081,-2.0051854,5.6374903,6.920043,3
28042859977091,-2.0338993,5.6470613,6.943971,3
28042862356102,-2.053042,5.6327047,6.9344,3
28042864735164,-2.1104696,5.666204,6.9535427,3
28042867114175,-2.1822543,5.6757755,6.9535427,3
28042869493185,-2.2157538,5.723632,6.963114,3
28042871872196,-2.2636101,5.761917,6.9822564,3
28042874251206,-2.3114667,5.790631,7.001399,3
28042876630216,-2.37368,5.804988,7.0061846,3
28042879009227,-2.4263222,5.838487,7.015756,3
28042881388237,-2.4837499,5.8432727,7.0061846,3
28042883767248,-2.5124638,5.8624153,7.0301127,3
28042886146258,-2.565106,5.9007006,7.0540414,3
28042888525268,-2.6368906,5.871987,7.0348988,3
28042890904279,-2.6703901,5.8480587,7.015756,3
28042893283289,-2.6991038,5.852844,7.0061846,3
28042895662352,-2.7469604,5.814559,7.0061846,3
28042898041362,-2.78046,5.7858453,6.9583282,3
28042900420373,-2.7900312,5.7523456,6.9296145,3
28042902799383,-2.833102,5.757131,6.9344,3
28042905178393,-2.8761728,5.7140603,6.9344,3
28042907557404,-2.8905299,5.666204,6.920043,3
28042909936414,-2.9192436,5.6327047,6.9009004,3
28042912315425,-2.9958138,5.6327047,6.896115,3
28042914694435,-3.0245278,5.599205,6.910472,3
28042917073393,-3.0819557,5.6039906,6.9009004,3
28042919452456,-3.1489546,5.599205,6.9152575,3
28042921831466,-3.2207394,5.5896335,6.9391856,3
28042924210477,-3.2877383,5.584848,6.9344,3
28042926589487,-3.37388,5.5800624,6.963114,3
28042928968550,-3.4073794,5.5704913,6.987042,3
28042931347560,-3.4791641,5.5896335,6.987042,3
28042933726571,-3.546163,5.599205,7.0061846,3
28042936105581,-3.5940197,5.5800624,7.058827,3
28042938484591,-3.6083765,5.556134,7.0492554,3
28042940863602,-3.6323047,5.575277,7.082755,3
28042943242612,-3.656233,5.5657053,7.082755,3
28042945621623,-3.6897326,5.5274205,7.0875406,3
28042948000633,-3.6993039,5.4987063,7.097112,3
28042950379643,-3.7280176,5.4699926,7.097112,3
28042952758654,-3.7663028,5.460421,7.082755,3
28042955137664,-3.7567315,5.4556355,7.082755,3
28042957516675,-3.737589,5.4412785,7.0636125,3
28042959895737,-3.7280176,5.4460645,7.0636125,3
28042962274748,-3.7136607,5.45085,7.058827,3
28042964653758,-3.6849468,5.4412785,7.0540414,3
28042967032768,-3.67059,5.4556355,7.058827,3
28042969411779,-3.641876,5.460421,7.0875406,3
28042971790789,-3.6131623,5.493921,7.1066833,3
28042974169800,-3.603591,5.5130634,7.1306114,3
28042976548810,-3.5892339,5.5704913,7.1688967,3
28042978927821,-3.5988052,5.56092,7.207182,3
28042981306831,-3.574877,5.5896335,7.2646093,3
28042983685841,-3.546163,5.608776,7.350751,3
28042986064852,-3.5318062,5.613562,7.432107,3
28042988443862,-3.522235,5.5896335,7.5182486,3
28042990822925,-3.507878,5.5800624,7.60439,3
28042993201935,-3.4791641,5.5657053,7.676175,3
28042995580946,-3.4360933,5.5465627,7.7623167,3
28042997959956,-3.4121652,5.532206,7.834101,3
28043000338966,-3.3834512,5.4556355,7.9154572,3
28043002717977,-3.345166,5.426922,7.982456,3
28043005096987,-3.278167,5.407779,8.054241,3
28043007475998,-3.225525,5.3647084,8.116454,3
28043009855008,-3.182454,5.3359947,8.159525,3
28043012234018,-3.1441689,5.302495,8.236095,3
28043014613029,-3.062813,5.259424,8.279166,3
28043016992039,-3.0053852,5.245067,8.30788,3
28043019371050,-2.952743,5.2498527,8.331808,3
28043021750112,-2.9240294,5.2307105,8.355737,3
28043024129123,-2.8474588,5.2019963,8.379665,3
28043026508133,-2.7948167,5.211568,8.403593,3
28043028887091,-2.7326035,5.206782,8.432307,3
28043031266154,-2.6895328,5.1828537,8.441878,3
28043033645164,-2.6703901,5.1732826,8.46102,3
28043036024123,-2.6368906,5.168497,8.484949,3
28043038403185,-2.6129622,5.1876397,8.499306,3
28043040782196,-2.5794628,5.1589255,8.518449,3
28043043161206,-2.5411777,5.130212,8.513663,3
28043045540216,-2.5220351,5.1349974,8.513663,3
28043047919227,-2.507678,5.1493545,8.489735,3
28043050298289,-2.4885356,5.1349974,8.475378,3
28043052677300,-2.4454648,5.130212,8.484949,3
28043055056310,-2.4263222,5.1493545,8.465807,3
28043057435321,-2.4263222,5.168497,8.475378,3
28043059814331,-2.4358935,5.168497,8.49452,3
28043062193341,-2.455036,5.1828537,8.508878,3
28043064572352,-2.469393,5.1924253,8.513663,3
28043066951362,-2.4598217,5.1876397,8.52802,3
28043069330373,-2.4598217,5.197211,8.52802,3
28043071709383,-2.440679,5.1924253,8.52802,3
28043074088393,-2.4646072,5.206782,8.504091,3
28043076467404,-2.469393,5.2307105,8.480164,3
28043078846466,-2.4789643,5.2689953,8.4705925,3
28043081225477,-2.4933212,5.2737813,8.451449,3
28043083604487,-2.498107,5.2833524,8.422736,3
28043085983498,-2.498107,5.316852,8.398808,3
28043088362508,-2.507678,5.326423,8.379665,3
28043090741518,-2.4741786,5.345566,8.331808,3
28043093120529,-2.4502504,5.369494,8.298309,3
28043095499539,-2.4311078,5.407779,8.288737,3
28043097878550,-2.4263222,5.407779,8.236095,3
28043100257560,-2.3832514,5.426922,8.183454,3
28043102636571,-2.3401806,5.465207,8.154739,3
28043105015581,-2.306681,5.5130634,8.097312,3
28043107394539,-2.2636101,5.541777,8.04467,3
28043109773654,-2.210968,5.5704913,7.987242,3
28043112152664,-2.1391835,5.599205,7.9298143,3
28043114531675,-2.0961127,5.6614184,7.867601,3
28043116910685,-2.0338993,5.704489,7.810173,3
28043119289696,-1.9812572,5.733203,7.771888,3
28043121668706,-1.942972,5.771488,7.719246,3
28043124047716,-1.8855443,5.7954164,7.661818,3
28043126426727,-1.8089739,5.871987,7.60439,3
28043128805737,-1.713261,5.919843,7.5469627,3
28043131184748,-1.6606189,5.977271,7.456035,3
28043133563758,-1.5936198,5.9676995,7.3746796,3
28043135942768,-1.5170496,5.9916277,7.288538,3
28043138321831,-1.4356936,6.0107703,7.2263246,3
28043140700841,-1.3591232,6.0490556,7.173682,3
28043143079852,-1.3064811,6.0490556,7.140183,3
28043145458862,-1.2299109,6.0155563,7.1306114,3
28043147837873,-1.1485549,6.0107703,7.1018977,3
28043150216883,-1.1006985,5.9964137,7.0875406,3
28043152595893,-1.0241281,5.9724855,7.0636125,3
28043154974904,-0.9523434,5.953343,7.0636125,3
28043157353914,-0.8805587,5.910272,7.0779696,3
28043159732925,-0.8327023,5.8624153,7.097112,3
28043162111935,-0.8039884,5.8097734,7.111469,3
28043164490998,-0.76570326,5.7667027,7.1210403,3
28043166870008,-0.7465607,5.7284174,7.1306114,3
28043169249018,-0.7513463,5.723632,7.149754,3
28043171628029,-0.7800602,5.7140603,7.159325,3
28043174007039,-0.7896315,5.6757755,7.164111,3
28043176386050,-0.79441714,5.680561,7.1688967,3
28043178765060,-0.7800602,5.680561,7.1449685,3
28043181144071,-0.7704889,5.6470613,7.125826,3
28043183523081,-0.79441714,5.6279187,7.159325,3
28043185902091,-0.8279166,5.6039906,7.173682,3
28043188281102,-0.8662018,5.5369916,7.192825,3
28043190660164,-0.8709874,5.541777,7.2550383,3
28043193039175,-0.89491564,5.4843497,7.3172517,3
28043195418185,-0.93320084,5.4460645,7.3986077,3
28043197797196,-0.9236295,5.407779,7.4656067,3
28043200176206,-0.93320084,5.3742795,7.513463,3
28043202555216,-0.94277215,5.369494,7.5661054,3
28043204934227,-0.9762716,5.3886366,7.609176,3
28043207313237,-0.9954142,5.393422,7.63789,3
28043209692248,-1.0145568,5.4125648,7.661818,3
28043212071258,-1.038485,5.4460645,7.6953177,3
28043214450268,-1.052842,5.4891353,7.685746,3
28043216829279,-1.0959128,5.5226345,7.6809607,3
28043219208289,-1.1437693,5.5513487,7.652247,3
28043221587352,-1.2059826,5.5896335,7.652247,3
28043223966362,-1.2442678,5.608776,7.6570325,3
28043226345373,-1.268196,5.651847,7.652247,3
28043228724383,-1.3160524,5.6757755,7.6666036,3
28043231103393,-1.3447664,5.757131,7.676175,3
28043233482404,-1.3591232,5.761917,7.7001033,3
28043235861414,-1.3926228,5.790631,7.728817,3
28043238240425,-1.4069797,5.8432727,7.757531,3
28043240619435,-1.4404793,5.871987,7.7910304,3
28043242998446,-1.4500505,5.881558,7.838887,3
28043245377508,-1.4644074,5.9007006,7.8628154,3
28043247756518,-1.4644074,5.910272,7.8867435,3
28043250135529,-1.4835501,5.9294147,7.9106717,3
28043252514539,-1.4883357,5.948557,7.9633136,3
28043254893550,-1.4787644,5.938986,8.025527,3
28043257272560,-1.4931214,5.9437714,8.082955,3
28043259651571,-1.5170496,5.9342003,8.12124,3
28043262030581,-1.5122639,5.9246287,8.188239,3
28043264409591,-1.5361922,5.9150577,8.212168,3
28043266788602,-1.550549,5.919843,8.250452,3
28043269167612,-1.5601203,5.9007006,8.269595,3
28043271546675,-1.5314065,5.8863435,8.303095,3
28043273925685,-1.4787644,5.85763,8.336594,3
28043276304696,-1.4356936,5.8480587,8.379665,3
28043278683706,-1.3734802,5.8241305,8.427522,3
28043281062716,-1.3639089,5.804988,8.441878,3
28043283441727,-1.2729816,5.814559,8.484949,3
28043285820737,-1.2203395,5.814559,8.532805,3
28043288199748,-1.134198,5.8097734,8.551949,3
28043290578758,-1.0671989,5.828916,8.556734,3
28043292957768,-1.0049855,5.8337016,8.580662,3
28043295336779,-0.9379865,5.8480587,8.590233,3
28043297715841,-0.86141616,5.8767724,8.575876,3
28043300094852,-0.8135597,5.881558,8.566305,3
28043302473862,-0.72741807,5.8863435,8.551949,3
28043304852873,-0.6412765,5.9007006,8.532805,3
28043307231883,-0.5407779,5.919843,8.513663,3
28043309610893,-0.4546363,5.919843,8.480164,3
28043311989904,-0.39720857,5.9342003,8.475378,3
28043314368914,-0.32542387,5.948557,8.465807,3
28043316747925,-0.23449662,5.948557,8.456235,3
28043319126935,-0.15792629,5.953343,8.451449,3
28043321505998,-0.11006984,5.953343,8.446664,3
28043323885008,-0.07178468,5.9581285,8.437093,3
28043326264018,-0.019142581,5.9676995,8.427522,3
28043328643029,0.014356935,5.9676995,8.427522,3
28043331022039,0.062213387,5.9294147,8.379665,3
28043333401050,0.09571291,5.9150577,8.336594,3
28043335780060,0.13399807,5.9294147,8.327023,3
28043338159071,0.22971097,5.919843,8.279166,3
28043340538029,0.28713873,5.9581285,8.216953,3
28043342917091,0.4211368,6.005985,8.140383,3
28043345296102,0.7800602,6.2213387,8.130812,3
28043347675112,1.1150553,6.4701924,8.078169,3
28043350054175,1.1246266,6.518049,8.001599,3
28043352433185,1.0145568,6.518049,7.920243,3
28043354812196,0.8422736,6.4797635,7.834101,3
28043357191206,0.6939186,6.4175506,7.7623167,3
28043359570216,0.5455636,6.3314085,7.6666036,3
28043361949227,0.38285163,6.216553,7.5517483,3
28043364328237,0.2009971,6.053841,7.408179,3
28043366707248,0.062213387,5.871987,7.283752,3
28043369086258,-0.02871387,5.6709895,7.159325,3
28043371465268,-0.0526421,5.5226345,7.0636125,3
28043373844331,0.019142581,5.4173503,6.9678993,3
28043376223341,0.09571291,5.383851,6.8817577,3
28043378602352,0.20578274,5.369494,6.771688,3
28043380981362,0.3397808,5.4125648,6.6855464,3
28043383360373,0.41156548,5.4556355,6.5946193,3
28043385739383,0.46899325,5.556134,6.503692,3
28043388118393,0.47856453,5.690132,6.4175506,3
28043390497404,0.44506502,5.8337016,6.3314085,3
28043392876414,0.38285163,5.9916277,6.259624,3
28043395255425,0.3493521,6.1447687,6.202196,3
28043397634487,0.32542387,6.283552,6.15434,3
28043400013498,0.28713873,6.4175506,6.0921264,3
28043402392508,0.18185452,6.5084777,6.096912,3
28043404771518,0.08135597,6.5084777,6.0634127,3
28043407150529,-0.05742774,6.4558353,6.0490556,3
28043409529539,-0.16271193,6.350551,6.0251274,3
28043411908550,-0.28713873,6.216553,6.0394845,3
28043414287560,-0.37328035,6.0490556,6.0394845,3
28043416666571,-0.38763726,5.905486,6.0634127,3
28043419045581,-0.3493521,5.723632,6.125626,3
28043421424591,-0.2727818,5.575277,6.216553,3
28043423803654,-0.16749759,5.493921,6.355337,3
28043426182664,-0.043070808,5.4221363,6.513263,3
28043428561675,0.10049855,5.369494,6.63769,3
28043430940685,0.24885355,5.3312087,6.71426,3
28043433319696,0.34456646,5.302495,6.795616,3
28043435698706,0.37328035,5.2833524,6.867401,3
28043438077716,0.4211368,5.2737813,6.920043,3
28043440456727,0.36370903,5.259424,6.9344,3
28043442835737,0.2632105,5.235496,6.9391856,3
28043445214748,0.18664017,5.2163534,6.9535427,3
28043447593758,0.12921242,5.1828537,6.9678993,3
28043449972821,0.09092726,5.1254263,7.001399,3
28043452351831,0.043070808,5.0536413,7.0540414,3
28043454730841,0.033499517,4.991428,7.1066833,3
28043457109852,0.019142581,4.914858,7.192825,3
28043459488862,0.0047856453,4.843073,7.3028946,3
28043461867873,0.0,4.7856455,7.3698936,3
28043464246883,-0.0047856453,4.7425747,7.460821,3
28043466625893,0.02871387,4.6899323,7.556534,3
28043469004904,0.047856454,4.6707897,7.652247,3
28043471383966,0.047856454,4.642076,7.771888,3
28043473762977,0.086141616,4.6468616,7.9106717,3
28043476141987,0.1052842,4.6612186,8.020741,3
28043478520998,0.12921242,4.666004,8.130812,3
28043480900008,0.11485548,4.7042894,8.255239,3
28043483279018,0.05742774,4.7569313,8.394022,3
28043485658029,-0.033499517,4.7952166,8.4705925,3
28043488037039,-0.13399807,4.814359,8.4705925,3
28043490416050,-0.22971097,4.847859,8.422736,3
28043492795060,-0.34456646,4.871787,8.370093,3
28043495174123,-0.47856453,4.8861437,8.293523,3
28043497553133,-0.66041905,4.910072,8.240881,3
28043499932143,-0.8805587,4.9292145,8.260024,3
28043502311154,-1.0959128,4.996214,8.303095,3
28043504690164,-1.3543376,5.096712,8.384451,3
28043507069175,-1.6127625,5.206782,8.370093,3
28043509448133,-1.8568304,5.302495,8.408379,3
28043511827196,-2.0578275,5.326423,8.427522,3
28043514206206,-2.2492533,5.359923,8.427522,3
28043516585216,-2.3114667,5.326423,8.384451,3
28043518964279,-2.268396,5.197211,8.298309,3
28043521343289,-2.0482562,5.029713,8.250452,3
28043523722300,-1.6127625,4.766503,8.236095,3
28043526101310,-1.2251252,4.570291,8.236095,3
28043528480321,-1.0911272,4.570291,8.221739,3
28043530859331,-1.18684,4.5942197,8.087741,3
28043533238341,-1.3543376,4.651647,7.987242,3
28043535617352,-1.5266209,4.6085763,7.9106717,3
28043537996362,-1.5218352,4.4985065,7.8197446,3
28043540375373,-1.3686945,4.469793,7.7479596,3
28043542754435,-1.2107682,4.469793,7.6713896,3
28043545133446,-1.0289137,4.4458647,7.570891,3
28043547512456,-0.9092726,4.465007,7.499106,3
28043549891466,-0.7752745,4.508078,7.456035,3
28043552270477,-0.63170516,4.508078,7.3698936,3
28043554649487,-0.56470615,4.56072,7.298109,3
28043557028498,-0.55034924,4.6325045,7.240681,3
28043559407508,-0.5982057,4.6707897,7.192825,3
28043561786518,-0.6939186,4.651647,7.1210403,3
28043564165529,-0.91405827,4.599005,7.097112,3
28043566544591,-1.1820544,4.546363,7.058827,3
28043568923602,-1.3495519,4.56072,7.0205417,3
28043571302612,-1.4979069,4.570291,6.9822564,3
28043573681623,-1.5074782,4.570291,6.9152575,3
28043576060633,-1.5457634,4.627719,6.8817577,3
28043578439643,-1.4787644,4.6707897,6.8865438,3
28043580818654,-1.3591232,4.685147,6.896115,3
28043583197664,-1.2442678,4.7808595,6.9535427,3
28043585576675,-1.0241281,4.776074,7.025327,3
28043587955737,-0.82313097,4.8047876,7.1545396,3
28043590334748,-0.6843473,4.8909297,7.2933235,3
28043592713758,-0.5312066,5.020142,7.422536,3
28043595092768,-0.44506502,5.144569,7.5613194,3
28043597471779,-0.4019942,5.221139,7.661818,3
28043599850789,-0.37328035,5.2642097,7.7623167,3
28043602229800,-0.34456646,5.312066,7.8053875,3
28043604608810,-0.33020952,5.393422,7.8484583,3
28043606987821,-0.37328035,5.4891353,7.9298143,3
28043609366883,-0.41156548,5.5657053,8.025527,3
28043611745893,-0.44027936,5.613562,8.135597,3
28043614124904,-0.5168497,5.733203,8.288737,3
28043616503914,-0.63170516,5.8767724,8.465807,3
28043618882925,-0.79920274,6.053841,8.671589,3
28043621261935,-0.8757731,6.178268,8.839087,3
28043623640946,-0.9523434,6.3122663,8.9826565,3
28043626019956,-0.9906286,6.4175506,9.08794,3
28043628398966,-0.9906286,6.5276203,9.15494,3
28043630778029,-0.93320084,6.63769,9.19801,3
28043633157039,-0.8709874,6.7334027,9.202796,3
28043635536050,-0.7848458,6.800402,9.164511,3
28043637915060,-0.6891329,6.843473,9.097511,3
28043640294071,-0.6221339,6.867401,9.035298,3
28043642673081,-0.5312066,6.9009004,8.9348,3
28043645052091,-0.4881358,6.920043,8.848659,3
28043647431102,-0.44506502,6.963114,8.729017,3
28043649810112,-0.44027936,6.987042,8.618947,3
28043652189175,-0.4211368,6.9296145,8.4705925,3
28043654568185,-0.40677986,6.8721867,8.303095,3
28043656947196,-0.39720857,6.862615,8.140383,3
28043659326206,-0.36370903,6.814759,7.9393854,3
28043661705216,-0.3684947,6.7381887,7.7240314,3
28043664084227,-0.41156548,6.647261,7.537391,3
28043666463237,-0.42592242,6.556334,7.379465,3
28043668842248,-0.46899325,6.4797635,7.283752,3
28043671221258,-0.5072784,6.4701924,7.1784678,3
28043673600268,-0.57427746,6.4414787,7.0779696,3
28043675979279,-0.64606214,6.4271216,6.9966135,3
28043678358341,-0.70348984,6.4175506,6.9248285,3
28043680737352,-0.7513463,6.3696938,6.8243303,3
28043683116362,-0.7800602,6.326623,6.7094746,3
28043685495373,-0.79441714,6.2691956,6.599405,3
28043687874383,-0.7848458,6.216553,6.498906,3
28043690253393,-0.7800602,6.135197,6.398408,3
28043692632404,-0.79441714,6.0921264,6.3122663,3
28043695011414,-0.7800602,6.0251274,6.2309103,3
28043697390477,-0.76570326,5.9437714,6.168697,3
28043699769487,-0.7752745,5.871987,6.125626,3
28043702148498,-0.76570326,5.8337016,6.087341,3
28043704527508,-0.7609176,5.790631,6.058627,3
28043706906518,-0.74177504,5.7954164,6.0394845,3
28043709285529,-0.6795616,5.7858453,6.0107703,3
28043711664539,-0.6556334,5.771488,6.005985,3
28043714043550,-0.55034924,5.8480587,5.9294147,3
28043716422560,-0.4019942,5.948557,5.5896335,3
28043718801571,-0.28235307,6.0011992,5.15414,3
28043721180633,-0.22492532,6.0155563,5.144569,3
28043723559643,-0.23928227,6.0011992,5.4987063,3
28043725938654,-0.28235307,6.0251274,5.8480587,3
28043728317664,-0.26799613,6.0777693,6.101698,3
28043730696675,-0.28713873,6.101698,6.259624,3
28043733075685,-0.31585258,6.125626,6.3744793,3
28043735454696,-0.4211368,6.1495543,6.422336,3
28043737833706,-0.5982057,6.2261243,6.474978,3
28043740212716,-0.8662018,6.3314085,6.513263,3
28043742591779,-1.2490535,6.4941206,6.599405,3
28043744970789,-1.7084754,6.6855464,6.6329045,3
28043747349800,-2.1678972,6.8721867,6.690332,3
28043749728810,-2.656033,7.0396843,6.7334027,3
28043752107821,-3.158526,7.135397,6.8099732,3
28043754486831,-3.6610186,7.1784678,6.9056864,3
28043756865841,-4.1491547,7.2119675,7.0301127,3
28043759244852,-4.56072,7.207182,7.149754,3
28043761623862,-4.9196434,7.173682,7.2263246,3
28043764002925,-5.2307105,7.1066833,7.283752,3
28043766381935,-5.465207,7.025327,7.322037,3
28043768760946,-5.6039906,6.896115,7.3746796,3
28043771139956,-5.6757755,6.7812595,7.4129643,3
28043773518966,-5.6997037,6.613762,7.479964,3
28043775897977,-5.599205,6.474978,7.556534,3
28043778276987,-5.3982077,6.3074803,7.63789,3
28043780655998,-5.139783,6.1399827,7.7096744,3
28043783035008,-4.7856455,5.986842,7.8197446,3
28043785414071,-4.4171505,5.85763,7.881958,3
28043787793081,-3.9960139,5.704489,7.925029,3
28043790172091,-3.5700915,5.5513487,7.9154572,3
28043792551102,-3.1728828,5.426922,7.9011,3
28043794930112,-2.7996025,5.3312087,7.867601,3
28043797309123,-2.4311078,5.2689953,7.800602,3
28043799688133,-2.0721843,5.163711,7.7001033,3
28043802067143,-1.7419748,5.087141,7.618747,3
28043804446154,-1.4883357,5.020142,7.542177,3
28043806825216,-1.2490535,4.948357,7.475178,3
28043809204227,-1.0432707,4.8909297,7.4656067,3
28043811583237,-0.8853444,4.8191447,7.475178,3
28043813962248,-0.7704889,4.761717,7.4847493,3
28043816341258,-0.6652047,4.7042894,7.4943204,3
28043818720268,-0.5838487,4.6612186,7.5086775,3
28043821099279,-0.5455636,4.642076,7.52782,3
28043823478289,-0.52163535,4.6229334,7.537391,3
28043825857352,-0.53599226,4.618148,7.5326056,3
28043828236362,-0.5599205,4.613362,7.503892,3
28043830615373,-0.59342,4.6229334,7.4847493,3
28043832994383,-0.66999036,4.6372905,7.436893,3
28043835373393,-0.7704889,4.642076,7.3986077,3
28043837752404,-0.8757731,4.6372905,7.3842506,3
28043840131414,-0.9762716,4.6564326,7.3698936,3
28043842510425,-1.0911272,4.699504,7.331609,3
28043844889435,-1.18684,4.7377887,7.3268228,3
28043847268498,-1.3064811,4.7712884,7.350751,3
28043849647508,-1.4261223,4.8287163,7.389036,3
28043852026518,-1.564906,4.85743,7.422536,3
28043854405529,-1.6845472,4.914858,7.470392,3
28043856784539,-1.7754744,4.9722853,7.513463,3
28043859163550,-1.9046868,5.020142,7.5517483,3
28043861542508,-1.9860427,5.063213,7.618747,3
28043863921571,-2.0434706,5.087141,7.6953177,3
28043866300633,-2.115255,5.139783,7.7623167,3
28043868679643,-2.1487548,5.163711,7.8197446,3
28043871058654,-2.1343977,5.2163534,7.867601,3
28043873437664,-2.091327,5.2546387,7.9346,3
28043875816675,-2.053042,5.2833524,7.972885,3
28043878195633,-2.0434706,5.3216376,7.9920278,3
28043880574696,-1.9812572,5.3312087,8.039884,3
28043882953706,-1.942972,5.345566,8.063812,3
28043885332716,-1.875973,5.3359947,8.111669,3
28043887711779,-1.7946169,5.316852,8.116454,3
28043890090789,-1.727618,5.288138,8.1020975,3
28043892469800,-1.6462619,5.2498527,8.1020975,3
28043894848810,-1.5601203,5.206782,8.130812,3
28043897227821,-1.4739788,5.206782,8.16431,3
28043899606831,-1.3686945,5.1924253,8.19781,3
28043901985841,-1.2729816,5.1828537,8.207381,3
28043904364852,-1.1916257,5.1732826,8.216953,3
28043906743914,-1.119841,5.168497,8.212168,3
28043909122925,-1.038485,5.1493545,8.183454,3
28043911501935,-0.9762716,5.1589255,8.149954,3
28043913880946,-0.91884387,5.1062837,8.111669,3
28043916259956,-0.82313097,5.029713,8.087741,3
28043918638966,-0.76570326,4.981857,8.082955,3
28043921017977,-0.6891329,4.9196434,8.030313,3
28043923396987,-0.5982057,4.790431,7.9680996,3
28043925776050,-0.47377887,4.618148,7.948957,3
28043928155060,-0.33020952,4.493721,7.9154572,3
28043930534071,-0.2440679,4.4554358,7.9154572,3
28043932913081,-0.23928227,4.5128636,7.987242,3
28043935292091,-0.23449662,4.6085763,8.092526,3
28043937671102,-0.2105684,4.7425747,8.140383,3
28043940050112,-0.16271193,4.8909297,8.169097,3
28043942429123,-0.06699903,5.005785,8.140383,3
28043944808133,-0.0047856453,5.1158547,8.078169,3
28043947187196,0.0526421,5.197211,7.9633136,3
28043949566206,0.0526421,5.1254263,7.771888,3
28043951945216,0.05742774,4.6899323,7.331609,3
28043954324227,0.019142581,4.249653,6.9009004,3
28043956703237,-0.11964113,4.019942,6.800402,3
28043959082248,-0.4354937,3.9050865,7.015756,3
28043961461258,-0.8422736,3.8668015,7.2119675,3
28043963840268,-1.282553,3.952943,7.432107,3
28043966219331,-1.6797615,4.2161536,7.6139617,3
28043968598341,-1.9094725,4.6372905,7.7001033,3
28043970977352,-1.9573289,5.0536413,7.556534,3
28043973356362,-1.8951155,5.383851,7.245467,3
28043975735373,-1.8137596,5.642276,6.786045,3
28043978114383,-1.6845472,5.8337016,6.2787666,3
28043980493393,-1.5553347,5.9246287,5.85763,3
28043982872404,-1.4644074,5.9916277,5.517849,3
28043985251466,-1.4356936,6.0251274,5.312066,3
28043987630477,-1.3926228,6.029913,5.211568,3
28043990009487,-1.3926228,6.0490556,5.245067,3
28043992388446,-1.3926228,6.053841,5.359923,3
28043994767508,-1.3734802,6.0346985,5.56092,3
28043997146518,-1.3112668,6.0107703,5.7427745,3
28043999525529,-1.2203395,5.962914,5.9150577,3
28044001904591,-1.0959128,5.9150577,6.0490556,3
28044004283602,-0.9236295,5.8337016,6.1064835,3
28044006662612,-0.71306115,5.7523456,6.1208405,3
28044009041623,-0.4977071,5.680561,6.1064835,3
28044011420633,-0.29671,5.584848,6.0921264,3
28044013799643,-0.11485548,5.4987063,6.0921264,3
28044016178654,0.05742774,5.4317074,6.0921264,3
28044018557664,0.21535404,5.3742795,6.1208405,3
28044020936675,0.3493521,5.3359947,6.15434,3
28044023315737,0.4977071,5.288138,6.2117677,3
28044025694748,0.6412765,5.302495,6.2883377,3
28044028073758,0.79920274,5.2929235,6.384051,3
28044030452768,0.93320084,5.2833524,6.4558353,3
28044032831779,1.0480564,5.302495,6.4941206,3
28044035210789,1.1485549,5.2929235,6.546763,3
28044037589800,1.2203395,5.3072805,6.5946193,3
28044039968810,1.2729816,5.3072805,6.6329045,3
28044042347873,1.3543376,5.288138,6.6711893,3
28044044726883,1.4069797,5.2498527,6.6999035,3
28044047105893,1.4261223,5.235496,6.719046,3
28044049484904,1.4356936,5.206782,6.7525454,3
28044051863862,1.4069797,5.1828537,6.8051877,3
28044054242925,1.3639089,5.1732826,6.8913293,3
28044056621935,1.3208381,5.1493545,6.987042,3
28044059000998,1.282553,5.144569,7.1018977,3
28044061380008,1.2442678,5.15414,7.2215385,3
28044063759018,1.1581261,5.1924253,7.331609,3
28044066138029,1.1150553,5.1828537,7.4273214,3
28044068517039,1.0432707,5.1876397,7.513463,3
28044070896050,1.0097711,5.163711,7.570891,3
28044073275060,0.95712906,5.1158547,7.618747,3
28044075654071,0.94755775,5.0249276,7.647461,3
28044078033133,0.9810573,4.900501,7.728817,3
28044080412143,1.1294123,4.627719,7.8436728,3
28044082791154,1.4356936,4.254439,8.04467,3
28044085170164,1.7706888,3.8668015,8.322237,3
28044087549175,2.0434706,3.6275191,8.815159,3
28044089928185,2.210968,3.5270207,9.379865,3
28044092307196,2.292324,3.4887354,9.954143,3
28044094686206,2.3114667,3.507878,10.375279,3
28044097065268,2.3018954,3.5270207,10.71506,3
28044099444279,2.3545375,3.4983068,11.078769,3
28044101823289,2.3114667,3.3403804,11.19841,3
28044104202300,2.3018954,3.010171,10.887343,3
28044106581310,2.3832514,2.952743,10.600204,3
28044108960321,2.5698915,3.0915267,10.394422,3
28044111339331,2.7852457,3.2303107,10.332209,3
28044113718341,2.914458,3.3834512,10.5284195,3
28044116097404,2.9479575,3.5509489,10.810773,3
28044118476414,2.8283165,3.751946,11.016556,3
28044120855425,2.6225336,4.005585,11.126625,3
28044123234435,2.3449662,4.1874394,11.222338,3
28044125613446,2.0386848,4.421936,11.356337,3
28044127992456,1.6845472,4.642076,11.456835,3
28044130371466,1.3399807,4.7712884,11.452049,3
28044132750477,1.0719845,4.8909297,11.408978,3
28044135129539,0.8805587,4.900501,11.327622,3
28044137508550,0.7513463,4.8095737,11.222338,3
28044139887560,0.70348984,4.4745784,11.016556,3
28044142266571,0.81834537,4.1922255,10.719846,3
28044144645581,1.052842,4.0869412,10.466207,3
28044147024591,1.2299109,4.1204405,10.30828,3
28044149403602,1.3782659,4.1204405,10.1599245,3
28044151782612,1.4500505,4.1443686,10.0881405,3
28044154161675,1.4835501,4.1443686,10.025927,3
28044156540685,1.5074782,4.1443686,9.968499,3
28044158919696,1.5074782,4.130012,9.968499,3
28044161298706,1.5074782,4.072584,9.963714,3
28044163677716,1.4404793,4.0103707,9.987641,3
28044166056727,1.402194,3.885944,9.987641,3
28044168435737,1.3639089,3.7758741,9.939785,3
28044170814748,1.2969099,3.656233,9.8727865,3
28044173193810,1.2442678,3.5557344,9.810573,3
28044175572821,1.2586247,3.4743786,9.724431,3
28044177951831,1.3304094,3.4408789,9.633504,3
28044180330841,1.3830515,3.4313076,9.556933,3
28044182709852,1.4596218,3.3930225,9.485149,3
28044185088862,1.5361922,3.3643086,9.413364,3
28044187467873,1.6366907,3.4217365,9.38465,3
28044189846935,1.7371893,3.522235,9.346365,3
28044192225946,1.8329022,3.67059,9.317652,3
28044194604956,1.9238294,3.790231,9.288938,3
28044196983966,1.9908284,3.9194436,9.23151,3
28044199362977,2.024328,4.0007997,9.169296,3
28044201741987,1.9716859,3.9338005,9.073584,3
28044204120998,1.875973,3.8476589,8.992228,3
28044206500060,1.942972,3.8763726,8.9013,3
28044208879071,2.1296122,3.9098723,8.819944,3
28044211258081,2.2348964,4.0295134,8.79123,3
28044213637091,2.359323,4.130012,8.810373,3
28044216016102,2.3928227,4.2831526,8.886943,3
28044218395112,2.5028925,4.421936,9.006584,3
28044220774123,2.5794628,4.5415773,9.131011,3
28044223153133,2.6416762,4.6564326,9.241081,3
28044225532196,2.603391,4.7138605,9.303294,3
28044227911206,2.5411777,4.752146,9.355937,3
28044230290216,2.4885356,4.8191447,9.389436,3
28044232669227,2.3545375,4.8909297,9.45165,3
28044235048237,2.201397,5.020142,9.480363,3
28044237427248,2.0338993,5.0823555,9.475577,3
28044239806258,1.875973,5.130212,9.480363,3
28044242185268,1.7324036,5.2546387,9.480363,3
28044244564279,1.5409778,5.355137,9.509077,3
28044246943341,1.3830515,5.4843497,9.504292,3
28044249322352,1.1964114,5.6374903,9.504292,3
28044251701362,0.9762716,5.828916,9.513863,3
28044254080373,0.7752745,5.9342003,9.489935,3
28044256459383,0.56470615,6.0394845,9.456435,3
28044258838393,0.35413775,6.0825553,9.413364,3
28044261217456,0.11964113,6.111269,9.370294,3
28044263596466,-0.11964113,6.202196,9.317652,3
28044265975477,-0.3493521,6.273981,9.269794,3
28044268354487,-0.6029913,6.302695,9.236296,3
28044270733498,-0.76570326,6.2931237,9.164511,3
28044273112508,-0.971486,6.3122663,9.097511,3
28044275491518,-1.1772687,6.355337,9.044869,3
28044277870529,-1.3686945,6.4127645,8.997013,3
28044280249591,-1.5026926,6.407979,8.920443,3
28044282628602,-1.6079768,6.4127645,8.829515,3
28044285007612,-1.7228323,6.4414787,8.743374,3
28044287386623,-1.875973,6.518049,8.685946,3
28044289765633,-2.0003998,6.5946193,8.60459,3
28044292144643,-2.1104696,6.680761,8.532805,3
28044294523654,-2.2205393,6.7669024,8.422736,3
28044296902716,-2.3306093,6.8817577,8.288737,3
28044299281727,-2.4646072,6.987042,8.202596,3
28044301660737,-2.5698915,7.082755,8.082955,3
28044304039748,-2.6368906,7.135397,7.9298143,3
28044306418758,-2.684747,7.1784678,7.7910304,3
28044308797768,-2.7278178,7.2358956,7.6139617,3
28044311176779,-2.751746,7.2215385,7.4129643,3
28044313555841,-2.804388,7.192825,7.183254,3
28044315934852,-2.833102,7.1306114,6.943971,3
28044318313862,-2.8713872,7.058827,6.728617,3
28044320692873,-2.8761728,6.9535427,6.503692,3
28044323071883,-2.861816,6.8195443,6.283552,3
28044325450893,-2.833102,6.666404,6.111269,3
28044327829904,-2.7708886,6.4701924,5.910272,3
28044330208966,-2.6703901,6.283552,5.704489,3
28044332587977,-2.5316064,6.0346985,5.508278,3
28044334966987,-2.3928227,5.814559,5.3312087,3
28044337345998,-2.1870399,5.6279187,5.130212,3
28044339725008,-1.9716859,5.4412785,4.9579287,3
28044342104018,-1.7036897,5.316852,4.8047876,3
28044344483029,-1.2969099,5.2833524,4.699504,3
28044346862091,-0.6125626,5.436493,4.6564326,3
28044349241102,-0.22013968,5.393422,4.618148,3
28044351620112,0.05742774,5.3216376,4.5559344,3
28044353999123,0.3397808,5.2259245,4.503292,3
28044356378133,0.5694918,5.1014977,4.465007,3
28044358757143,0.7609176,4.981857,4.4410787,3
28044361136154,0.89491564,4.8382874,4.421936,3
28044363515164,1.0193424,4.6564326,4.426722,3
28044365894227,1.0863415,4.493721,4.412365,3
28044368273237,1.1294123,4.3357944,4.402794,3
28044370652248,1.1437693,4.2257247,4.388437,3
28044373031258,1.1437693,4.1443686,4.369294,3
28044375410268,1.1389836,4.1108694,4.3645086,3
28044377789279,1.1437693,4.101298,4.3788652,3
28044380168341,1.0959128,4.1204405,4.4315076,3
28044382547352,1.0480564,4.1635113,4.479364,3
28044384926362,1.0193424,4.2352962,4.5415773,3
28044387305373,0.94755775,4.26401,4.6037908,3
28044389684383,0.8757731,4.3357944,4.6803613,3
28044392063393,0.79920274,4.3932223,4.7569313,3
28044394442404,0.7178468,4.4315076,4.867001,3
28044396821414,0.64606214,4.4745784,4.9196434,3
28044399200477,0.55513483,4.503292,5.0249276,3
28044401579487,0.4881358,4.4889355,5.1206403,3
28044403958498,0.44027936,4.4889355,5.2546387,3
28044406337508,0.37806597,4.4889355,5.5944195,3
28044408716518,0.33499518,4.5224347,6.0155563,3
28044411095529,0.29192436,4.493721,6.5659056,3
28044413474539,0.25842485,4.465007,7.1688967,3
28044415853602,0.26799613,4.402794,7.8293157,3
28044418232612,0.2632105,4.345366,8.623733,3
28044420611623,0.21535404,4.26401,9.705289,3
28044422990633,0.1052842,4.23051,11.006984,3
28044425369643,0.05742774,4.2017965,12.394821,3
28044427748654,0.086141616,4.115655,13.787444,3
28044430127664,0.23928227,4.0534415,14.830715,3
28044432506727,0.55034924,3.9768713,15.376278,3
28044434885737,1.0576276,3.9290147,15.361921,3
28044437264748,1.6414764,3.871587,14.950356,3
28044439643758,2.3114667,3.737589,14.294723,3
28044442022768,3.07717,3.5174494,13.586447,3
28044444401779,3.900301,3.3164523,13.093526,3
28044446780841,4.4458647,3.3212378,12.882957,3
28044449159852,4.651647,3.4695928,12.839887,3
28044451538862,4.546363,3.723232,12.768102,3
28044453917873,4.4315076,4.0007997,12.504891,3
28044456296883,4.3501515,4.3070807,12.08854,3
28044458675893,4.2927237,4.651647,11.643475,3
28044461054904,4.240082,4.9435716,11.3371935,3
28044463433966,4.173083,5.235496,11.23191,3
28044465812977,4.058227,5.4843497,11.313266,3
28044468191987,3.871587,5.704489,11.46162,3
28044470570998,3.6179478,5.905486,11.600404,3
28044472950008,3.3020952,6.04427,11.710474,3
28044475329018,3.0436704,6.1208405,11.724831,3
28044477708029,2.7708886,6.125626,11.710474,3
28044480086987,2.5268207,6.0777693,11.672189,3
28044482466102,2.3401806,5.9916277,11.586047,3
28044484845112,2.1870399,5.910272,11.46162,3
28044487224123,2.0961127,5.804988,11.279766,3
28044489603133,2.024328,5.6997037,11.026127,3
28044491982143,2.0195422,5.5944195,10.738988,3
28044494361154,2.062613,5.474778,10.427921,3
28044496740164,2.0865414,5.3407803,10.116854,3
28044499119227,2.1535404,5.197211,9.829716,3
28044501498237,2.201397,5.072784,9.561719,3
28044503877248,2.210968,4.9770713,9.336794,3
28044506256258,2.2205393,4.881358,9.15494,3
28044508635268,2.210968,4.8047876,8.973084,3
28044511014279,2.1391835,4.709075,8.800801,3
28044513393289,2.0817556,4.627719,8.676374,3
28044515772352,2.0147567,4.570291,8.5423765,3
28044518151362,1.9286151,4.5272202,8.446664,3
28044520530373,1.8329022,4.5128636,8.389236,3
28044522909383,1.7563318,4.5224347,8.384451,3
28044525288393,1.6606189,4.5272202,8.413164,3
28044527667404,1.5601203,4.517649,8.441878,3
28044530046466,1.4500505,4.479364,8.403593,3
28044532425477,1.2921243,4.426722,8.322237,3
28044534804487,1.0863415,4.345366,8.178668,3
28044537183498,0.8327023,4.1922255,7.982456,3
28044539562508,0.5407779,4.0677986,7.771888,3
28044541941518,0.19621146,3.9194436,7.52782,3
28044544320529,-0.15314065,3.8093736,7.274181,3
28044546699591,-0.4977071,3.6753755,7.01097,3
28044549078602,-0.7896315,3.5700915,6.795616,3
28044551457612,-1.0289137,3.4839497,6.623333,3
28044553836623,-1.1964114,3.4121652,6.5611196,3
28044556215633,-1.3112668,3.3882368,6.556334,3
28044558594643,-1.402194,3.330809,6.5898337,3
28044560973654,-1.4739788,3.2877383,6.666404,3
28044563352716,-1.564906,3.225525,6.7525454,3
28044565731727,-1.6271194,3.1680973,6.862615,3
28044568110737,-1.6462619,3.1154552,6.977471,3
28044570489748,-1.6031911,3.0915267,7.164111,3
28044572868758,-1.4787644,3.0436704,7.422536,3
28044575247768,-1.2490535,3.0293136,7.7479596,3
28044577626831,-0.9379865,3.0293136,8.130812,3
28044580005841,-0.55034924,3.0580273,8.52802,3
28044582384852,-0.11485548,3.0963125,8.958728,3
28044584763862,0.34456646,3.1489546,9.41815,3
28044587142873,0.7513463,3.1776686,9.848858,3
28044589521883,1.0815558,3.2063823,10.30828,3
28044591900893,1.3495519,3.2063823,10.796415,3
28044594279956,1.5314065,3.1633115,11.294123,3
28044596658966,1.6845472,3.1202407,11.801401,3
28044599037977,1.7850457,3.0963125,12.294323,3
28044601416987,1.8233309,3.07717,12.768102,3
28044603795998,1.8041883,3.048456,13.232309,3
28044606175008,1.7563318,3.0532417,13.658232,3
28044608554018,1.727618,3.0963125,14.0602255,3
28044610933081,1.6606189,3.1345978,14.481362,3
28044613312091,1.5744773,3.2015967,14.835501,3
28044615691102,1.5170496,3.2685957,15.079568,3
28044618070112,1.430908,3.2925239,15.237494,3
28044620449123,1.3974084,3.3355947,15.280565,3
28044622828081,1.3495519,3.4169507,15.223138,3
28044625207196,1.2873386,3.4695928,15.084354,3
28044627586206,1.1581261,3.4983068,14.91207,3
28044629965216,1.0097711,3.5653057,14.768501,3
28044632344227,0.7896315,3.6370904,14.634503,3
28044634723237,0.53599226,3.7088752,14.538791,3
28044637102248,0.22013968,3.7950168,14.46222,3
28044639481258,-0.15314065,3.8763726,14.299508,3
28044641860321,-0.5838487,3.952943,13.849657,3
28044644239331,-1.0671989,3.9338005,13.16531,3
28044646618341,-1.550549,3.9577286,12.184253,3
28044648997352,-2.024328,3.9625144,11.016556,3
28044651376362,-2.469393,4.0151563,9.79143,3
28044653755373,-2.9048867,4.0869412,8.60459,3
28044656134383,-3.2973096,4.139583,7.580462,3
28044658513446,-3.6753755,4.182654,6.786045,3
28044660892456,-4.0151563,4.316652,6.15434,3
28044663271466,-4.321438,4.412365,5.723632,3
28044665650477,-4.546363,4.479364,5.493921,3
28044668029487,-4.699504,4.517649,5.2977095,3
28044670408498,-4.7377887,4.479364,5.197211,3
28044672787508,-4.6372905,4.3645086,5.1014977,3
28044675166571,-4.3932223,4.197011,5.096712,3
28044677545581,-4.019942,3.9816568,5.1589255,3
28044679924591,-3.546163,3.7806597,5.302495,3
28044682303602,-3.0149565,3.6131623,5.575277,3
28044684682612,-2.4311078,3.4695928,5.9437714,3
28044687061623,-1.8329022,3.3834512,6.4366927,3
28044689440685,-1.3112668,3.2015967,6.9056864,3
28044691819696,-0.8997013,2.7469604,7.097112,3
28044694198706,-0.67477596,2.6368906,7.3842506,3
28044696577716,-0.6795616,2.7900312,7.757531,3
28044698956727,-0.8039884,2.9479575,8.030313,3
28044701335737,-0.91405827,3.2542388,8.384451,3
28044703714800,-1.038485,3.6993039,8.977871,3
28044706093810,-1.18684,4.1587257,9.705289,3
28044708472821,-1.3447664,4.6468616,10.470992,3
28044710851831,-1.4213367,5.0823555,11.236695,3
28044713230841,-1.1629118,5.3742795,11.868401,3
28044715609852,-0.81834537,5.5896335,12.4426775,3
28044717988862,-0.60777694,5.761917,12.753745,3
28044720367925,-0.038285162,5.666204,12.959527,3
28044722746935,0.66999036,5.4173503,13.045669,3
28044725125946,1.3304094,5.0919266,12.983456,3
28044727504956,1.875973,4.694718,12.830315,3
28044729883966,2.2157538,4.3645086,12.629318,3
28044732262977,2.37368,4.0965123,12.457035,3
28044734641987,2.3449662,3.9098723,12.356536,3
28044737021154,2.1870399,3.7471602,12.337394,3
28044739400060,1.8711873,3.6897326,12.294323,3
28044741779071,1.4500505,3.6610186,12.203396,3
28044744158081,0.9762716,3.6610186,11.992827,3
28044746537091,0.47856453,3.6658044,11.686545,3
28044748916154,0.11964113,3.7136607,11.289337,3
28044751295164,-0.15314065,3.7710886,10.863415,3
28044753674175,-0.32063824,3.7854455,10.408778,3
28044756053185,-0.37806597,3.7758741,9.930214,3
28044758432196,-0.36370903,3.7423747,9.4229355,3
28044760811206,-0.29192436,3.7088752,8.987442,3
28044763190216,-0.19142582,3.6753755,8.571091,3
28044765569227,-0.033499517,3.5892339,8.236095,3
28044767948289,0.12921242,3.522235,7.9011,3
28044770327300,0.3062813,3.4983068,7.570891,3
28044772706310,0.4354937,3.4456646,7.2693954,3
28044775085321,0.51206404,3.4600215,7.0540414,3
28044777464331,0.526421,3.4887354,6.896115,3
28044779843393,0.4642076,3.5174494,6.948757,3
28044782222404,0.42592242,3.5796626,7.1545396,3
28044784601414,0.46899325,3.5988052,7.5230346,3
28044786980425,0.6029913,3.603591,7.925029,3
28044789359435,0.7465607,3.6131623,8.178668,3
28044791738446,0.89013004,3.6514473,8.193025,3
28044794117456,1.0193424,3.6801612,8.059027,3
28044796496518,1.1772687,3.7280176,7.881958,3
28044798875529,1.3639089,3.7615173,7.7671022,3
28044801254539,1.550549,3.8668015,7.7910304,3
28044803633550,1.7084754,4.0295134,8.01117,3
28044806012560,1.8951155,4.2831526,8.365308,3
28044808391571,1.9286151,4.4841495,8.796016,3
28044810770633,1.8903298,4.6468616,9.126225,3
28044813149643,1.8089739,4.7042894,9.317652,3
28044815528654,1.6271194,4.7138605,9.298509,3
28044817907664,1.3399807,4.666004,9.102298,3
28044820286675,1.0719845,4.5942197,8.772088,3
28044822665685,0.8279166,4.4554358,8.427522,3
28044825044696,0.72263247,4.331009,8.111669,3
28044827423758,0.7369894,4.2257247,7.877172,3
28044829802768,0.85184485,4.168297,7.8053875,3
28044832181779,1.0049855,4.15394,7.8484583,3
28044834560789,1.18684,4.1491547,7.9776707,3
28044836939800,1.3160524,4.211368,8.135597,3
28044839318862,1.4404793,4.3070807,8.30788,3
28044841697873,1.5409778,4.4075794,8.4705925,3
28044844076883,1.6319051,4.508078,8.599805,3
28044846455893,1.6558332,4.5894337,8.671589,3
28044848834904,1.6510476,4.666004,8.671589,3
28044851213914,1.6319051,4.718646,8.6141615,3
28044853592925,1.5936198,4.7377887,8.49452,3
28044855971987,1.579263,4.723432,8.34138,3
28044858350998,1.5601203,4.766503,8.154739,3
28044860730008,1.6031911,4.8191447,7.987242,3
28044863109018,1.6271194,4.847859,7.8484583,3
28044865488029,1.6366907,4.914858,7.776674,3
28044867867039,1.6271194,4.9674997,7.800602,3
28044870246102,1.5314065,5.0009995,7.8723865,3
28044872625112,1.3447664,5.0009995,7.982456,3
28044875004123,1.1964114,4.9531426,8.130812,3
28044877383133,1.0671989,4.924429,8.298309,3
28044879762143,0.94277215,4.8861437,8.4705925,3
28044882141154,0.8757731,4.8239303,8.571091,3
28044884520216,0.90448695,4.7808595,8.633304,3
28044886899227,1.0097711,4.733003,8.719446,3
28044889278237,1.1820544,4.694718,8.819944,3
28044891657248,1.3543376,4.6612186,8.930014,3
28044894036258,1.4548361,4.666004,9.025727,3
28044896415268,1.5218352,4.6372905,9.102298,3
28044898794279,1.5409778,4.5942197,9.226724,3
28044901173341,1.5553347,4.5655055,9.403793,3
28044903552352,1.579263,4.536792,9.60479,3
28044905931362,1.5888343,4.551149,9.74836,3
28044908310373,1.6366907,4.575077,9.8632145,3
28044910689383,1.7228323,4.6229334,9.968499,3
28044913068393,1.7324036,4.6612186,10.107283,3
28044915447456,1.6797615,4.723432,10.298709,3
28044917826466,1.4931214,4.733003,10.523634,3
28044920205477,1.2011969,4.723432,10.762917,3
28044922584487,0.81834537,4.6803613,11.01177,3
28044924963498,0.44985065,4.5942197,11.203196,3
28044927342508,0.124426775,4.479364,11.274981,3
28044929721571,-0.1052842,4.3740797,11.270195,3
28044932100581,-0.22492532,4.3070807,11.174481,3
28044934479591,-0.17228323,4.2592244,11.030912,3
28044936858602,-0.009571291,4.2831526,10.892129,3
28044939237612,0.2440679,4.3405805,10.820344,3
28044941616675,0.56470615,4.402794,10.71506,3
28044943995685,1.1533405,4.436293,10.332209,3
28044946374696,2.0673988,4.3932223,9.518648,3
28044948753706,2.1966112,4.5128636,9.365508,3
28044951132716,1.6606189,4.666004,9.68136,3
28044953511727,0.8662018,4.7952166,9.987641,3
28044955890737,0.19142582,4.881358,9.930214,3
28044958269800,-0.124426775,4.996214,9.355937,3
28044960648810,-0.13878371,5.087141,8.489735,3
28044963027821,0.019142581,5.1828537,7.580462,3
28044965406831,0.20578274,5.3072805,6.8865438,3
28044967785841,0.34456646,5.4460645,6.513263,3
28044970164852,0.39720857,5.5896335,6.4941206,3
28044972543914,0.33499518,5.7427745,6.556334,3
28044974922925,0.16749759,5.852844,6.6329045,3
28044977301935,-0.11006984,5.9246287,6.652047,3
28044979680946,-0.42592242,5.9916277,6.63769,3
28044982059956,-0.70348984,6.0346985,6.6329045,3
28044984438966,-1.0049855,6.058627,6.6759753,3
28044986818029,-1.2299109,6.096912,6.7381887,3
28044989197039,-1.3878372,6.096912,6.7764735,3
28044991576050,-1.4069797,6.1064835,6.8865438,3
28044993955060,-1.3351951,6.1495543,7.0396843,3
28044996334071,-1.2011969,6.1878395,7.2693954,3
28044998713081,-1.0719845,6.2117677,7.585248,3
28045001092143,-0.91884387,6.216553,7.891529,3
28045003471154,-0.6987042,6.2261243,8.207381,3
28045005850164,-0.5024927,6.1974106,8.508878,3
28045008229175,-0.3397808,6.1495543,8.748159,3
28045010608185,-0.22492532,6.1064835,8.953942,3
28045012987196,-0.15314065,6.096912,9.111869,3
28045015366258,-0.11964113,6.0825553,9.269794,3
28045017745268,-0.11485548,6.087341,9.399008,3
28045020124279,-0.13399807,6.096912,9.513863,3
28045022503289,-0.18664017,6.1591253,9.638289,3
28045024882300,-0.25842485,6.202196,9.767502,3
28045027261310,-0.3493521,6.216553,9.829716,3
28045029640373,-0.44027936,6.2213387,9.82493,3
28045032019383,-0.5168497,6.250053,9.79143,3
28045034398393,-0.60777694,6.2404814,9.667004,3
28045036777404,-0.70348984,6.2691956,9.485149,3
28045039156414,-0.8279166,6.2691956,9.274581,3
28045041535425,-0.94755775,6.2931237,9.040084,3
28045043914487,-1.052842,6.326623,8.815159,3
28045046293498,-1.1581261,6.3792653,8.56152,3
28045048672508,-1.2729816,6.4031935,8.34138,3
28045051051518,-1.3686945,6.422336,8.130812,3
28045053430529,-1.4739788,6.393622,7.925029,3
28045055809539,-1.5696917,6.3696938,7.719246,3
28045058188602,-1.6223338,6.317052,7.52782,3
28045060567612,-1.6462619,6.259624,7.365108,3
28045062946623,-1.7084754,6.192625,7.2263246,3
28045065325633,-1.7898313,6.1591253,7.1210403,3
28045067704643,-1.8999012,6.125626,7.0875406,3
28045070083654,-2.0003998,6.087341,7.0875406,3
28045072462716,-2.120041,6.087341,7.1306114,3
28045074841727,-2.201397,6.101698,7.183254,3
28045077220737,-2.201397,6.1208405,7.2119675,3
28045079599748,-2.172683,6.111269,7.23111,3
28045081978758,-2.1391835,6.058627,7.245467,3
28045084357768,-2.1104696,6.058627,7.2693954,3
28045086736831,-2.105684,6.0251274,7.312466,3
28045089115841,-2.0721843,6.0155563,7.379465,3
28045091494852,-2.024328,5.9820566,7.479964,3
28045093873862,-1.9764715,5.9437714,7.580462,3
28045096252873,-1.9621146,5.9342003,7.685746,3
28045098631935,-1.9573289,5.953343,7.795816,3
28045101010946,-1.9764715,5.938986,7.8628154,3
28045103389956,-2.0195422,5.9437714,7.982456,3
28045105768914,-2.0482562,5.9150577,8.078169,3
28045108147977,-2.0817556,5.938986,8.12124,3
28045110526987,-2.1391835,5.9724855,8.135597,3
28045112906050,-2.1870399,5.977271,8.097312,3
28045115285060,-2.2157538,5.9964137,7.9968133,3
28045117664071,-2.1966112,6.029913,7.8723865,3
28045120043081,-2.105684,6.04427,7.7479596,3
28045122422091,-1.9812572,6.0825553,7.6666036,3
28045124801102,-1.8903298,6.125626,7.652247,3
28045127180112,-1.8185452,6.1591253,7.6809607,3
28045129559175,-1.7563318,6.15434,7.685746,3
28045131938185,-1.6941184,6.1304116,7.7096744,3
28045134317196,-1.6941184,6.1208405,7.7001033,3
28045136696206,-1.7611175,6.1064835,7.618747,3
28045139075216,-1.847259,6.053841,7.5086775,3
28045141454279,-1.9716859,6.0251274,7.3698936,3
28045143833289,-2.1535404,6.0107703,7.2502527,3
28045146212300,-2.2875385,6.0011992,7.140183,3
28045148591310,-2.4263222,5.9916277,7.058827,3
28045150970321,-2.5603201,5.9724855,6.991828,3
28045153349383,-2.684747,5.9964137,6.991828,3
28045155728393,-2.766103,5.9820566,6.9678993,3
28045158107404,-2.8187451,6.0251274,6.9009004,3
28045160486414,-2.8522446,6.020342,6.814759,3
28045162865425,-2.861816,6.0011992,6.7573314,3
28045165244435,-2.914458,6.020342,6.6759753,3
28045167623446,-2.9575288,6.029913,6.613762,3
28045170002508,-2.9671001,6.0490556,6.556334,3
28045172381518,-2.9479575,6.0729837,6.570691,3
28045174760529,-2.928815,6.0825553,6.599405,3
28045177139539,-2.914458,6.0921264,6.6281185,3
28045179518550,-2.9096723,6.101698,6.680761,3
28045181897612,-2.8235307,6.1447687,6.7669024,3
28045184276623,-2.7565317,6.1495543,6.8721867,3
28045186655633,-2.7038896,6.168697,7.025327,3
28045189034643,-2.656033,6.1830535,7.1880393,3
28045191413654,-2.6273193,6.192625,7.312466,3
28045193792664,-2.5459633,6.1974106,7.4129643,3
28045196171727,-2.455036,6.2548385,7.4847493,3
28045198550737,-2.3545375,6.302695,7.5517483,3
28045200929748,-2.2636101,6.364908,7.628319,3
28045203308758,-2.1870399,6.4127645,7.6666036,3
28045205687768,-2.0578275,6.4701924,7.6713896,3
28045208066779,-1.9046868,6.5228343,7.6713896,3
28045210445841,-1.7898313,6.5754766,7.676175,3
28045212824852,-1.6845472,6.6281185,7.676175,3
28045215203862,-1.5936198,6.6711893,7.618747,3
28045217582873,-1.5170496,6.6999035,7.570891,3
28045219961883,-1.4500505,6.74776,7.479964,3
28045222340893,-1.3830515,6.7669024,7.389036,3
28045224719956,-1.3351951,6.853044,7.2789664,3
28045227098966,-1.3160524,6.948757,7.125826,3
28045229477977,-1.2969099,7.04447,6.9822564,3
28045231856987,-1.3064811,7.092326,6.829116,3
28045234235998,-1.282553,7.1306114,6.6424756,3
28045236615008,-1.268196,7.1449685,6.5228343,3
28045238994071,-1.282553,7.159325,6.3744793,3
28045241373081,-1.2777673,7.149754,6.216553,3
28045243752091,-1.282553,7.125826,6.0634127,3
28045246131102,-1.7754744,8.12124,5.881558,3
28045248510112,-5.130212,19.16651,3.9290147,3
28045250889175,-6.9009004,29.608788,2.9671001,3
28045253268185,-4.0007997,27.26382,3.5030923,3
28045255647196,1.1964114,15.668202,2.5459633,3
28045258026206,3.6993039,2.9479575,3.3834512,3
28045260405216,4.9770713,-2.684747,4.8861437,3
28045262784227,4.6037908,-2.8905299,6.2644095,3
28045265163289,3.3930225,-0.74177504,7.1784678,3
28045267542300,0.42592242,5.163711,7.456035,3
28045269921310,-1.6175481,11.140983,6.800402,3
28045272300321,-3.2733815,17.142181,5.087141,3
28045274679331,-2.8905299,16.625332,4.0151563,3
28045277058393,-1.8807586,12.169896,3.9050865,3
28045279437404,-0.57427746,5.6183476,5.460421,3
28045281816414,-0.33499518,3.4217365,7.331609,3
28045284195425,-0.57427746,3.6131623,8.9013,3
28045286574435,-0.81834537,4.316652,9.887143,3
28045288953446,-1.105484,5.096712,10.260424,3
28045291332508,-1.4596218,5.757131,10.001999,3
28045293711518,-1.9142581,6.302695,9.614362,3
28045296090529,-2.4885356,6.7238317,9.269794,3
28045298469539,-3.1537402,7.503892,8.877372,3
28045300848550,-3.9816568,8.987442,8.16431,3
28045303227560,-4.2352962,9.973285,7.2358956,3
28045305606623,-3.4504502,9.15494,6.8195443,3
28045307985633,-2.292324,6.7908306,7.283752,3
28045310364643,-1.2873386,5.063213,7.8580294,3
28045312743654,-0.79441714,4.6037908,8.374879,3
28045315122664,-0.7322037,5.3216376,8.41795,3
28045317501727,-0.8662018,6.570691,7.7001033,3
28045319880685,-1.2442678,7.776674,6.5515485,3
28045322259748,-1.3591232,8.23131,5.4221363,3
28045324638758,-0.9619147,7.8867435,4.7569313,3
28045327017768,-0.3924229,6.695118,5.1014977,3
28045329396831,-0.24885355,5.6183476,6.0634127,3
28045331775841,-0.57906306,5.465207,7.0540414,3
28045334154852,-1.2873386,6.0729837,7.685746,3
28045336533862,-1.9525433,6.8482585,7.728817,3
28045338912873,-2.455036,7.2263246,7.4847493,3
28045341291831,-2.6703901,7.164111,7.140183,3
28045343670946,-2.5938199,6.838687,6.910472,3
28045346049956,-2.4358935,6.4271216,6.991828,3
28045348428966,-2.3832514,6.206982,7.3363943,3
28045350807977,-2.416751,6.398408,7.733603,3
28045353186987,-2.4502504,6.867401,7.972885,3
28045355565998,-2.37368,7.259824,8.116454,3
28045357945008,-2.2301106,7.379465,8.226524,3
28045360324071,-2.0673988,7.2646093,8.159525,3
28045362703081,-1.9716859,7.111469,7.9154572,3
28045365082091,-1.8664017,6.896115,7.685746,3
28045367461102,-1.7563318,6.71426,7.585248,3
28045369840164,-1.7563318,6.661618,7.5469627,3
28045372219175,-1.8664017,6.8243303,7.513463,3
28045374598185,-1.9621146,7.0636125,7.5230346,3
28045376977196,-1.9764715,7.159325,7.652247,3
28045379356206,-1.9573289,7.092326,7.7623167,3
28045381735216,-1.9860427,6.987042,7.752745,3
28045384114279,-1.9573289,6.9535427,7.6953177,3
28045386493289,-1.8951155,6.9009004,7.609176,3
28045388872300,-1.7994026,6.838687,7.513463,3
28045391251258,-1.7563318,6.8865438,7.3842506,3
28045393630321,-1.698904,7.0205417,7.2263246,3
28045396009383,-1.550549,7.1162543,7.173682,3
28045398388393,-1.3639089,7.1545396,7.1688967,3
28045400767404,-1.1820544,7.159325,7.125826,3
28045403146414,-1.0097711,7.164111,7.0061846,3
28045405525425,-0.8327023,7.140183,6.862615,3
28045407904435,-0.66041905,7.1018977,6.7238317,3
28045410283498,-0.55513483,7.092326,6.580262,3
28045412662508,-0.43070808,7.125826,6.4845495,3
28045415041518,-0.34456646,7.164111,6.407979,3
28045417420529,-0.19142582,7.2263246,6.3457656,3
28045419799539,0.0,7.245467,6.3074803,3
28045422178602,0.24885355,7.245467,6.2644095,3
28045424557612,0.4977071,7.3028946,6.2261243,3
28045426936623,0.7082755,7.389036,6.192625,3
28045429315581,0.89013004,7.456035,6.192625,3
28045431694643,1.0336994,7.489535,6.192625,3
28045434073654,1.1629118,7.5086775,6.135197,3
28045436452716,1.253839,7.5086775,6.0346985,3
28045438831727,1.3064811,7.513463,5.9676995,3
28045441210737,1.4356936,7.585248,5.953343,3
28045443589748,1.7180467,7.6953177,5.986842,3
28045445968758,2.0291135,7.8723865,5.962914,3
28045448347821,2.0817556,7.9633136,5.761917,3
28045450726831,1.8807586,8.068598,5.355137,3
28045453105841,1.7754744,8.202596,5.1158547,3
28045455484852,1.713261,8.159525,5.1062837,3
28045457863862,1.6366907,7.9968133,5.096712,3
28045460242925,1.5361922,7.838887,5.048856,3
28045462621935,1.3639089,7.800602,5.005785,3
28045465000946,1.0576276,7.9968133,4.9292145,3
28045467379956,0.8566305,8.274381,4.7712884,3
28045469758966,0.91405827,8.130812,4.613362,3
28045472138029,1.0145568,7.8053875,4.5272202,3
28045474517039,1.0001999,7.628319,4.536792,3
28045476896050,0.8422736,7.479964,4.6037908,3
28045479275060,0.53599226,7.580462,4.699504,3
28045481654071,0.32063824,7.8149586,4.790431,3
28045484033081,0.22492532,7.676175,4.867001,3
28045486412143,0.28235307,7.355537,4.9340005,3
28045488791154,0.35413775,7.058827,5.048856,3
28045491170164,0.21535404,7.1066833,5.245067,3
28045493549175,-0.06699903,7.322037,5.508278,3
28045495928185,-0.37806597,7.60439,5.7667027,3
28045498307143,-0.4354937,7.628319,5.986842,3
28045500686258,-0.40677986,7.4847493,6.192625,3
28045503065216,-0.4019942,7.350751,6.4031935,3
28045505444279,-0.30149564,7.183254,6.5946193,3
28045507823289,-0.16749759,7.058827,6.8051877,3
28045510202352,-0.22013968,7.1688967,6.9822564,3
28045512581362,-0.39720857,7.322037,7.1210403,3
28045514960373,-0.5407779,7.3459654,7.173682,3
28045517339383,-0.72741807,7.3698936,7.207182,3
28045519718393,-0.9619147,7.3986077,7.1688967,3
28045522097404,-1.0193424,7.312466,7.1449685,3
28045524476466,-0.98584294,7.1210403,7.140183,3
28045526855477,-1.1006985,7.1306114,7.183254,3
28045529234487,-1.2921243,7.30768,7.240681,3
28045531613498,-1.3878372,7.3698936,7.2502527,3
28045533992508,-1.4117653,7.3363943,7.2215385,3
28045536371571,-1.4931214,7.365108,7.207182,3
28045538750581,-1.430908,7.2933235,7.1688967,3
28045541129591,-1.3591232,7.1545396,7.173682,3
28045543508602,-1.3256238,7.082755,7.1976104,3
28045545887612,-1.3591232,7.0540414,7.23111,3
28045548266675,-1.3543376,7.058827,7.2550383,3
28045550645685,-1.3830515,7.0492554,7.2550383,3
28045553024696,-1.4404793,7.025327,7.240681,3
28045555403706,-1.4500505,6.9152575,7.207182,3
28045557782716,-1.3782659,6.6424756,7.207182,3
28045560161727,-1.5361922,6.6089764,7.2119675,3
28045562540789,-1.6893328,6.6185474,7.216753,3
28045564919800,-1.7754744,6.580262,7.23111,3
28045567298810,-1.8041883,6.4462643,7.2119675,3
28045569677821,-1.8568304,6.4127645,7.183254,3
28045572056831,-1.7324036,6.178268,7.159325,3
28045574435893,-1.5936198,5.804988,7.1449685,3
28045576814904,-1.6223338,5.680561,7.1306114,3
28045579193914,-1.7228323,5.6853466,7.1018977,3
28045581572925,-1.7754744,5.7284174,7.015756,3
28045583951935,-1.8041883,5.7810597,6.9056864,3
28045586330998,-1.7802601,5.881558,6.7238317,3
28045588710008,-1.7228323,6.020342,6.5371914,3
28045591089018,-1.6510476,6.101698,6.34098,3
28045593468029,-1.6271194,6.1447687,6.1639113,3
28045595847039,-1.5984055,6.1591253,6.0394845,3
28045598226050,-1.579263,6.1160545,5.9437714,3
28045600605112,-1.5457634,6.053841,5.881558,3
28045602984123,-1.5026926,6.0107703,5.8241305,3
28045605363133,-1.4213367,5.9246287,5.7858453,3
28045607742143,-1.3686945,5.8672013,5.7762737,3
28045610121154,-1.3447664,5.838487,5.790631,3
28045612500216,-1.2921243,5.8241305,5.804988,3
28045614879227,-1.1772687,5.8624153,5.85763,3
28045617258237,-1.1006985,5.9294147,5.9342003,3
28045619637248,-1.0049855,6.0729837,6.029913,3
28045622016258,-0.91405827,6.2309103,6.1064835,3
28045624395321,-0.83748794,6.3888364,6.192625,3
28045626774331,-0.7609176,6.5850477,6.245267,3
28045629153341,-0.7082755,6.7525454,6.2931237,3
28045631532352,-0.6987042,6.9344,6.3457656,3
28045633911362,-0.7369894,7.111469,6.398408,3
28045636290373,-0.79441714,7.240681,6.4175506,3
28045638669435,-0.8662018,7.355537,6.4941206,3
28045641048446,-0.94755775,7.436893,6.5850477,3
28045643427456,-1.0576276,7.499106,6.695118,3
28045645806466,-1.2011969,7.5469627,6.800402,3
28045648185477,-1.3208381,7.585248,6.910472,3
28045650564539,-1.3830515,7.60439,7.01097,3
28045652943550,-1.4356936,7.6426754,7.1162543,3
28045655322560,-1.4691931,7.6426754,7.240681,3
28045657701571,-1.4835501,7.6139617,7.393822,3
28045660080633,-1.5361922,7.60439,7.570891,3
28045662459643,-1.5936198,7.594819,7.7383885,3
28045664838654,-1.6031911,7.580462,7.944171,3
28045667217664,-1.6414764,7.556534,8.140383,3
28045669596675,-1.698904,7.5182486,8.327023,3
28045671975685,-1.7850457,7.489535,8.456235,3
28045674354748,-1.8376877,7.446464,8.571091,3
28045676733862,-1.8999012,7.3842506,8.599805,3
28045679112768,-1.9716859,7.30768,8.537591,3
28045681491779,-2.0434706,7.240681,8.456235,3
28045683870789,-2.1104696,7.1545396,8.346166,3
28045686249800,-2.143969,7.0636125,8.216953,3
28045688628862,-2.2205393,6.943971,8.116454,3
28045691007873,-2.254039,6.843473,8.01117,3
28045693386883,-2.306681,6.74776,7.920243,3
28045695765893,-2.3353949,6.6759753,7.834101,3
28045698144956,-2.3688943,6.5898337,7.752745,3
28045700523966,-2.3928227,6.546763,7.7001033,3
28045702902977,-2.4311078,6.498906,7.652247,3
28045705281987,-2.455036,6.422336,7.5996046,3
28045707660998,-2.440679,6.355337,7.556534,3
28045710040008,-2.4789643,6.245267,7.5469627,3
28045712419071,-2.469393,6.15434,7.5469627,3
28045714798081,-2.4933212,6.0155563,7.580462,3
28045717177091,-2.4789643,5.8863435,7.623533,3
28045719556102,-2.4502504,5.7667027,7.6666036,3
28045721935164,-2.4454648,5.651847,7.7096744,3
28045724314175,-2.4502504,5.493921,7.7623167,3
28045726693185,-2.416751,5.3359947,7.834101,3
28045729072196,-2.37368,5.206782,7.8867435,3
28045731451206,-2.4215364,5.0440702,7.9633136,3
28045733830216,-2.4837499,4.9435716,8.054241,3
28045736209279,-2.5507488,4.847859,8.169097,3
28045738588289,-2.6608188,4.761717,8.255239,3
28045740967300,-2.7852457,4.6803613,8.331808,3
28045743346310,-2.8905299,4.5798626,8.34138,3
28045745725321,-2.9671001,4.493721,8.355737,3
28045748104383,-3.0388846,4.4075794,8.370093,3
28045750483393,-3.0293136,4.3070807,8.331808,3
28045752862404,-2.9910283,4.249653,8.293523,3
28045755241414,-2.8474588,4.211368,8.240881,3
28045757620425,-2.6368906,4.182654,8.145168,3
28045759999487,-2.3688943,4.1922255,8.006385,3
28045762378498,-2.091327,4.2017965,7.8484583,3
28045764757508,-1.8089739,4.2257247,7.647461,3
28045767136518,-1.5696917,4.2352962,7.446464,3
28045769515581,-1.3543376,4.240082,7.2263246,3
28045771894591,-1.1916257,4.249653,6.9822564,3
28045774273602,-1.0767702,4.2831526,6.7525454,3
28045776652612,-0.94755775,4.345366,6.556334,3
28045779031623,-0.8709874,4.421936,6.364908,3
28045781410685,-0.82313097,4.5272202,6.216553,3
28045783789696,-0.7896315,4.642076,6.087341,3
28045786168706,-0.74177504,4.7282176,5.948557,3
28045788547716,-0.6987042,4.800002,5.814559,3
28045790926727,-0.26799613,4.7712884,5.800202,3
28045793305737,0.7704889,4.766503,6.3696938,3
28045795684800,1.6319051,4.7138605,6.786045,3
28045798063810,2.804388,4.699504,7.6426754,3
28045800442821,3.196811,4.900501,8.106883,3
28045802821831,3.0867412,5.2833524,8.346166,3
28045805200841,2.5316064,5.7667027,8.154739,3
28045807579904,1.4739788,6.3792653,7.499106,3
28045809958914,0.28713873,7.298109,6.465407,3
28045812337925,1.7754744,13.361522,3.2063823,3
28045814716935,7.652247,26.005196,-0.55513483,3
28045817095946,10.025927,31.700115,-1.5984055,3
28045819475008,5.0536413,27.412176,-0.5072784,3
28045821854018,-2.455036,16.577475,1.1533405,3
28045824233029,-6.317052,8.111669,1.0145568,3
28045826612039,-5.6709895,4.359723,0.9284152,3
28045828991050,-2.8378878,3.9816568,1.105484,3
28045831370112,0.52163535,5.302495,2.0386848,3
28045833749123,3.07717,7.5326056,3.4313076,3
28045836128133,3.2446675,8.523234,5.048856,3
28045838507143,1.253839,7.7814593,5.3886366,3
28045840886154,-1.0911272,6.431907,4.723432,3
28045843265216,-2.5316064,6.0394845,4.0438704,3
28045845644227,-3.211168,6.474978,4.0677986,3
28045848023237,-3.5413775,7.283752,4.843073,3
28045850402248,-3.6466618,8.030313,6.0346985,3
28045852781258,-3.5270207,8.446664,7.1976104,3
28045855160321,-3.2877383,8.475378,8.3174515,3
28045857539331,-3.1441689,8.327023,9.504292,3
28045859918341,-3.1202407,8.202596,10.078569,3
28045862297352,-3.2159536,8.04467,10.059426,3
28045864676362,-3.3355947,7.757531,9.399008,3
28045867055425,-3.2829528,7.2119675,8.451449,3
28045869434435,-3.249453,6.8243303,7.537391,3
28045871813446,-3.2733815,6.7381887,7.0540414,3
28045874192456,-3.306881,6.829116,7.2789664,3
28045876571466,-3.4456646,6.9678993,7.795816,3
28045878950529,-3.6658044,7.0540414,8.303095,3
28045881329539,-3.8476589,7.125826,8.623733,3
28045883708550,-3.952943,7.183254,8.504091,3
28045886087560,-3.9720855,7.1545396,8.030313,3
28045888466571,-3.9338005,7.0875406,7.475178,3
28045890845633,-3.842873,7.082755,7.058827,3
28045893224643,-3.6753755,7.015756,6.4606214,3
28045895603654,-3.4695928,6.9678993,5.8863435,3
28045897982664,-3.196811,6.910472,5.6279187,3
28045900361675,-2.9336007,6.800402,5.613562,3
28045902740737,-2.737389,6.652047,5.723632,3
28045905119748,-2.603391,6.4941206,6.0490556,3
28045907498758,-2.5268207,6.4271216,6.623333,3
28045909877768,-2.6751757,6.5850477,7.4512496,3
28045912256779,-3.0005996,6.987042,8.1738825,3
28045914635841,-3.3403804,7.4273214,8.140383,3
28045917014852,-3.493521,7.7814593,7.580462,3
28045919393862,-3.5030923,7.982456,7.1449685,3
28045921772873,-3.4600215,8.020741,7.0348988,3
28045924151883,-3.4839497,8.006385,7.216753,3
28045926530946,-3.4408789,8.054241,7.580462,3
28045928909956,-3.359523,8.255239,7.9776707,3
28045931288966,-3.4743786,8.303095,8.240881,3
28045933667977,-3.7088752,8.126026,8.34138,3
28045936046987,-4.019942,7.8484583,8.346166,3
28045938426050,-4.220939,7.676175,8.384451,3
28045940805060,-4.359723,7.6666036,8.451449,3
28045943184071,-4.2257247,7.834101,8.489735,3
28045945563081,-3.8572302,8.1020975,8.427522,3
28045947942143,-3.7854455,8.035098,8.370093,3
28045950321154,-3.6993039,7.786245,8.221739,3
28045952700164,-3.5030923,7.647461,7.9680996,3
28045955079175,-3.2207394,7.52782,7.704889,3
28045957458185,-3.034099,7.389036,7.446464,3
28045959837248,-2.9192436,7.2933235,7.2550383,3
28045962216258,-2.8283165,7.365108,7.1688967,3
28045964595268,-2.7421749,7.365108,7.149754,3
28045966974279,-2.603391,7.331609,7.298109,3
28045969353289,-2.4263222,7.298109,7.479964,3
28045971732300,-2.172683,7.2550383,7.470392,3
28045974111362,-2.009971,7.2023964,7.207182,3
28045976490373,-1.8999012,7.1545396,6.728617,3
28045978869383,-1.8903298,7.068398,6.2691956,3
28045981248393,-1.861616,7.0061846,5.919843,3
28045983627456,-1.7946169,7.0205417,5.7188463,3
28045986006466,-1.6797615,7.092326,5.704489,3
28045988385477,-1.4691931,7.0492554,5.642276,3
28045990764487,-1.105484,6.8721867,5.6374903,3
28045993143498,-0.61734825,6.7669024,5.575277,3
28045995522560,-0.27756742,6.661618,5.3216376,3
28045997901571,0.12921242,6.719046,5.302495,3
28046000280581,0.34456646,7.0061846,5.6709895,3
28046002659591,0.2536392,7.30768,5.9724855,3
28046005038602,0.08135597,7.570891,5.9150577,3
28046007417664,-0.148355,7.628319,5.4221363,3
28046009796675,-0.3397808,7.5182486,5.029713,3
28046012175685,-0.35413775,7.298109,4.85743,3
28046014554696,-0.29192436,7.1162543,4.8382874,3
28046016933706,-0.2105684,7.0636125,4.8861437,3
28046019312768,0.0047856453,7.1306114,5.0679984,3
28046021691779,0.11006984,7.159325,5.1014977,3
28046024070789,-0.038285162,7.2502527,5.0440702,3
28046026449800,0.11006984,7.475178,5.3312087,3
28046028828810,0.28235307,7.5661054,5.541777,3
28046031207873,0.5838487,7.436893,5.426922,3
28046033586883,0.91405827,7.2215385,5.2737813,3
28046035965893,1.1389836,7.0348988,5.211568,3
28046038344904,1.0241281,6.920043,5.163711,3
28046040723914,0.7082755,6.829116,4.996214,3
28046043102977,0.6364908,6.7573314,4.900501,3
28046045481987,0.61734825,6.666404,4.723432,3
28046047860998,0.4211368,6.623333,4.8191447,3
28046050240008,0.5072784,6.762117,5.1014977,3
28046052619071,0.71306115,6.9009004,5.206782,3
28046054998081,0.9092726,6.8913293,5.288138,3
28046057377091,0.94277215,6.843473,5.5800624,3
28046059756102,0.95712906,6.896115,5.8193445,3
28046062135112,0.8709874,6.963114,5.852844,3
28046064514175,0.8997013,6.987042,5.8863435,3
28046066893185,0.79920274,6.9678993,6.0490556,3
28046069272196,0.95712906,7.097112,6.250053,3
28046071651206,1.18684,7.350751,6.4558353,3
28046074030216,1.2346965,7.7096744,6.7573314,3
28046076409279,0.91405827,7.982456,6.838687,3
28046078788289,0.40677986,8.12124,6.666404,3
28046081167300,0.02871387,8.01117,6.250053,3
28046083546310,-0.20578274,7.82453,5.9007006,3
28046085925321,-0.63170516,7.7144604,5.613562,3
28046088304383,-1.0001999,7.7671022,5.359923,3
28046090683393,-0.9762716,7.757531,5.288138,3
28046093062404,-0.8997013,7.6953177,5.4412785,3
28046095441414,-0.94277215,7.5517483,5.613562,3
28046097820425,-1.0767702,7.5517483,5.6327047,3
28046100199487,-1.1724831,7.7623167,5.517849,3
28046102578498,-1.0576276,7.9298143,5.474778,3
28046104957508,-1.0815558,7.82453,5.532206,3
28046107336518,-1.1533405,7.570891,5.6614184,3
28046109715529,-1.1724831,7.4656067,5.8193445,3
28046112094591,-1.1772687,7.408179,5.905486,3
28046114473602,-1.1676974,7.331609,5.9724855,3
28046116852612,-1.1724831,7.2789664,5.9916277,3
28046119231623,-1.1150553,7.2693954,5.9724855,3
28046121610685,-1.1006985,7.274181,6.0107703,3
28046123989696,-1.2729816,7.245467,6.111269,3
28046126368706,-1.5122639,7.283752,6.283552,3
28046128747716,-1.7706888,7.5086775,6.422336,3
28046131126727,-1.9142581,7.752745,6.513263,3
28046133505789,-2.0721843,7.9633136,6.503692,3
28046135884800,-2.009971,7.9776707,6.5515485,3
28046138263810,-2.0578275,7.733603,6.719046,3
28046140642821,-2.201397,7.3842506,6.910472,3
28046143021831,-2.2779672,7.1688967,6.991828,3
28046145400893,-2.158326,7.0492554,7.0875406,3
28046147779904,-2.1966112,6.9248285,7.135397,3
28046150158914,-2.455036,6.771688,7.135397,3
28046152537925,-2.656033,6.8099732,7.1784678,3
28046154916935,-2.7326035,6.920043,7.159325,3
28046157295998,-2.7996025,7.058827,7.140183,3
28046159675008,-2.8570302,7.274181,7.1449685,3
28046162054018,-2.8809586,7.4943204,7.1210403,3
28046164433029,-2.8570302,7.719246,7.068398,3
28046166812091,-2.804388,7.877172,6.991828,3
28046169191102,-2.737389,7.944171,6.9152575,3
28046171570112,-2.684747,7.9106717,6.8195443,3
28046173949123,-2.6416762,7.9011,6.690332,3
28046176328133,-2.5698915,7.8293157,6.556334,3
28046178707196,-2.5698915,7.8197446,6.422336,3
28046181086206,-2.5698915,7.8197446,6.3314085,3
28046183465216,-2.5603201,7.8149586,6.2883377,3
28046185844227,-2.5507488,7.838887,6.273981,3
28046188223237,-2.5316064,7.877172,6.283552,3
28046190602300,-2.536392,7.8580294,6.302695,3
28046192981310,-2.5316064,7.8293157,6.3218374,3
28046195360321,-2.5507488,7.800602,6.3074803,3
28046197739331,-2.5507488,7.771888,6.206982,3
28046200118393,-2.498107,7.733603,6.0634127,3
28046202497404,-2.4311078,7.704889,5.9724855,3
28046204876414,-2.416751,7.685746,5.962914,3
28046207255425,-2.4454648,7.6666036,5.986842,3
28046209634435,-2.440679,7.676175,6.0011992,3
28046212013498,-2.4071796,7.6666036,5.9916277,3
28046214392508,-2.4215364,7.6139617,6.0155563,3
28046216771518,-2.4454648,7.5756764,5.9916277,3
28046219150529,-2.4263222,7.594819,5.9294147,3
28046221529539,-2.3306093,7.5996046,5.871987,3
28046223908602,-2.201397,7.63789,5.800202,3
28046226287612,-2.0673988,7.647461,5.7188463,3
28046228666623,-1.942972,7.6713896,5.6709895,3
28046231045633,-1.7994026,7.6953177,5.6279187,3
28046233424643,-1.6941184,7.7096744,5.613562,3
28046235803706,-1.6175481,7.7240314,5.6709895,3
28046238182716,-1.564906,7.7623167,5.8193445,3
28046240561727,-1.5170496,7.8197446,6.0107703,3
28046242940737,-1.402194,7.8197446,6.1974106,3
28046245319800,-1.2873386,7.810173,6.326623,3
28046247698810,-1.1916257,7.795816,6.422336,3
28046250077821,-1.0815558,7.800602,6.474978,3
28046252456831,-0.9810573,7.7910304,6.4845495,3
28046254835841,-0.8566305,7.7814593,6.431907,3
28046257214904,-0.7848458,7.795816,6.34098,3
28046259593914,-0.80877405,7.776674,6.192625,3
28046261972925,-0.8997013,7.776674,6.0155563,3
28046264351883,-0.9810573,7.8149586,5.8767724,3
28046266730946,-1.0959128,7.8149586,5.7762737,3
28046269110008,-1.1772687,7.8053875,5.6997037,3
28046271489018,-1.3016955,7.7910304,5.5896335,3
28046273868029,-1.4261223,7.7814593,5.474778,3
28046276247039,-1.550549,7.786245,5.326423,3
28046278626102,-1.6127625,7.7623167,5.1206403,3
28046281005112,-1.6845472,7.719246,4.996214,3
28046283384123,-1.7611175,7.728817,4.9579287,3
28046285763133,-1.7706888,7.7623167,4.8382874,3
28046288142143,-1.7563318,7.704889,5.1589255,3
28046290521206,-1.7994026,7.580462,6.1304116,3
28046292900216,-1.942972,7.5517483,7.1210403,3
28046295279227,-1.9525433,7.6331043,7.4656067,3
28046297658237,-1.8137596,7.6666036,7.2933235,3
28046300037300,-1.7850457,7.7096744,7.0492554,3
28046302416310,-2.009971,7.52782,6.786045,3
28046304795321,-2.349752,7.4512496,6.216553,3
28046307174331,-2.5986054,7.3746796,5.4460645,3
28046309553341,-3.0197423,7.092326,5.1924253,3
28046311932404,-3.5174494,6.7764735,4.790431,3
28046314311414,-5.2737813,6.1447687,4.5655055,3
28046316690425,-9.116654,1.0241281,4.9674997,3
28046319069435,-10.461421,-2.2731814,6.0921264,3
28046321448498,-10.073783,4.2687955,7.6809607,3
28046323827508,-8.3174515,9.734002,9.513863,3
28046326206518,-6.987042,10.49492,10.671989,3
28046328585529,-6.111269,9.178867,11.519048,3
28046330964487,-5.9916277,7.6713896,11.150554,3
28046333343602,-6.15434,7.015756,9.772287,3
28046335722612,-5.962914,6.987042,7.623533,3
28046338101623,-5.761917,7.3363943,5.4556355,3
28046340480633,-5.6039906,7.704889,4.024728,3
28046342859696,-5.493921,8.001599,3.7136607,3
28046345238706,-5.058427,7.7383885,4.3932223,3
28046347617716,-4.4171505,7.1976104,5.426922,3
28046349996727,-3.991228,6.9822564,6.4271216,3
28046352375737,-3.9481573,7.1545396,7.4129643,3
28046354754800,-4.0965123,7.355537,8.346166,3
28046357133810,-4.254439,7.393822,9.135797,3
28046359512821,-4.254439,7.1545396,9.45165,3
28046361891831,-4.173083,7.0875406,9.5665045,3
28046364270893,-4.197011,7.245467,9.5665045,3
28046366649904,-4.063013,7.542177,9.523434,3
28046369028914,-3.6370904,7.877172,9.202796,3
28046371407925,-3.0005996,8.202596,8.647661,3
28046373786935,-2.0291135,8.01117,7.5613194,3
28046376165998,-1.0001999,7.570891,5.8672013,3
28046378545008,-0.33499518,7.685746,4.173083,3
28046380924018,0.0047856453,8.188239,2.6368906,3
28046383303029,0.4833502,8.49452,1.2251252,3
28046385682039,0.9236295,8.49452,0.05742774,3
28046388061102,1.2969099,8.279166,-0.52163535,3
28046390440112,1.7084754,8.015956,-0.6364908,3
28046392819123,1.9573289,7.9011,-0.4977071,3
28046395198133,2.158326,8.2456665,-0.16749759,3
28046397577196,2.4933212,8.733803,0.2009971,3
28046399956206,3.0197423,9.097511,0.6125626,3
28046402335216,3.6275191,9.169296,1.105484,3
28046404714227,4.0677986,9.245867,1.5840486,3
28046407093237,4.1778684,9.265009,2.07697,3
28046409472300,4.1922255,9.083155,2.565106,3
28046411851310,4.0965123,8.949157,3.0053852,3
28046414230321,3.8093736,8.939586,3.3882368,3
28046416609331,3.4887354,8.992228,3.7136607,3
28046418988393,3.1633115,9.0544405,4.0151563,3
28046421367404,2.8809586,9.0544405,4.249653,3
28046423746414,2.603391,9.097511,4.45065,3
28046426125425,2.498107,9.040084,4.5894337,3
28046428504435,2.5986054,8.843872,4.685147,3
28046430883446,2.6321049,8.719446,4.7952166,3
28046433262508,2.4933212,8.685946,4.800002,3
28046435641518,2.158326,8.642876,4.7425747,3
28046438020529,1.7611175,8.489735,4.694718,3
28046440399591,1.268196,8.360522,4.699504,3
28046442778602,0.6843473,8.260024,4.7952166,3
28046445157612,0.11964113,8.178668,4.8526444,3
28046447536623,-0.37806597,8.130812,4.9052863,3
28046449915685,-0.79920274,8.111669,4.914858,3
28046452294696,-1.2059826,8.059027,4.996214,3
28046454673706,-1.5888343,7.9633136,5.072784,3
28046457052716,-1.9477576,7.877172,5.1732826,3
28046459431727,-2.3162522,7.7910304,5.211568,3
28046461810789,-2.6225336,7.7671022,5.221139,3
28046464189800,-2.8474588,7.8197446,5.144569,3
28046466568810,-2.9431717,7.948957,5.058427,3
28046468947821,-2.9048867,8.035098,4.9531426,3
28046471326831,-2.8809586,8.025527,4.8191447,3
28046473705893,-2.8905299,7.9393854,4.6372905,3
28046476084904,-2.952743,7.8484583,4.3788652,3
28046478463914,-3.101098,7.810173,4.1108694,3
28046480842925,-3.2638102,7.7671022,3.9194436,3
28046483221987,-3.4456646,7.757531,3.8476589,3
28046485600998,-3.5892339,7.7240314,3.8907297,3
28046487980008,-3.694518,7.6713896,4.048656,3
28046490359018,-3.7854455,7.623533,4.287938,3
28046492738081,-3.8763726,7.5996046,4.5559344,3
28046495117091,-4.058227,7.6331043,4.8622155,3
28046497496102,-4.493721,7.63789,4.938786,3
28046499875112,-5.0440702,7.408179,4.6564326,3
28046502254123,-5.2642097,7.298109,4.9435716,3
28046504633185,-5.508278,7.4416785,5.800202,3
28046507012196,-4.9770713,7.408179,6.518049,3
28046509391206,-4.546363,7.618747,6.9822564,3
28046511770216,-4.211368,7.9106717,7.274181,3
28046514149279,-3.8907297,8.030313,7.4656067,3
28046516528289,-3.4983068,7.8963146,7.379465,3
28046518907300,-3.196811,7.8053875,7.0301127,3
28046521286310,-3.062813,7.8436728,6.518049,3
28046523665321,-2.9958138,7.8963146,5.9820566,3
28046526044383,-2.9383862,7.853244,5.4843497,3
28046528423393,-2.8713872,7.8628154,5.111069,3
28046530802404,-2.8283165,7.8867435,4.8861437,3
28046533181414,-2.7756743,7.9346,4.7856455,3
28046535560477,-2.6943183,7.948957,4.790431,3
28046537939487,-2.5698915,7.9968133,4.871787,3
28046540318498,-2.359323,8.097312,4.9674997,3
28046542697508,-2.0386848,8.240881,4.895715,3
28046545076571,-2.0961127,7.905886,5.6949177,3
28046547455581,-2.2875385,7.853244,5.3790655,3
28046549834591,-2.172683,7.944171,5.0823555,3
28046552213602,-2.0291135,7.9968133,5.0775695,3
28046554592612,-2.091327,7.944171,5.211568,3
28046556971675,-2.1391835,7.8197446,5.4412785,3
28046559350685,-2.07697,7.719246,5.613562,3
28046561729696,-1.9381863,7.661818,5.7427745,3
28046564108706,-1.7802601,7.661818,5.8911295,3
28046566487768,-1.6749759,7.690532,6.0729837,3
28046568866779,-1.5840486,7.733603,6.1878395,3
28046571245789,-1.5170496,7.757531,6.273981,3
28046573624800,-1.4404793,7.743174,6.2548385,3
28046576003810,-1.3543376,7.690532,6.0921264,3
28046578382873,-1.4117653,7.6713896,5.9964137,3
28046580761883,-1.5314065,7.676175,6.005985,3
28046583140893,-1.6654046,7.661818,6.0490556,3
28046585519904,-1.7611175,7.6570325,6.111269,3
28046587898966,-1.942972,7.6426754,6.1830535,3
28046590277977,-2.1678972,7.6713896,6.317052,3
28046592656987,-2.3401806,7.6426754,6.3696938,3
28046595035998,-2.416751,7.594819,6.355337,3
28046597415060,-2.4885356,7.618747,6.350551,3
28046599794071,-2.4885356,7.652247,6.2644095,3
28046602173081,-2.4598217,7.6953177,6.1399827,3
28046604552091,-2.3928227,7.7001033,6.096912,3
28046606931102,-2.292324,7.7096744,6.053841,3
28046609310164,-2.0865414,7.690532,5.938986,3
28046611689175,-1.8424734,7.685746,6.020342,3
28046614068185,-1.7084754,7.752745,6.0825553,3
28046616447196,-1.5074782,7.7479596,5.9964137,3
28046618826258,-1.2777673,7.652247,5.9342003,3
28046621205268,-1.1389836,7.5230346,6.0107703,3
28046623584279,-0.94755775,7.2933235,6.1495543,3
28046625963289,-0.7322037,7.1066833,6.1830535,3
28046628342300,-0.4881358,6.963114,6.1639113,3
28046630721362,-0.4211368,6.977471,6.0777693,3
28046633100373,-0.5168497,7.216753,6.068198,3
28046635479383,-0.65084773,7.542177,5.9150577,3
28046637858446,-0.76570326,7.800602,5.7140603,3
28046640237456,-0.9092726,7.987242,5.690132,3
28046642616466,-0.94277215,7.9680996,5.790631,3
28046644995477,-0.9810573,7.877172,5.828916,3
28046647374487,-0.9379865,7.8293157,5.761917,3
28046649753550,-0.89491564,7.7671022,5.7667027,3
28046652132560,-0.9523434,7.661818,5.7523456,3
28046654511571,-1.0911272,7.513463,5.761917,3
28046656890581,-1.3543376,7.4512496,5.8767724,3
28046659269643,-1.5457634,7.3698936,5.8337016,3
28046661648654,-1.7084754,7.3172517,5.733203,3
28046664027664,-1.9142581,7.2693954,5.6709895,3
28046666406675,-2.143969,7.2550383,5.757131,3
28046668785685,-2.306681,7.240681,5.8911295,3
28046671164748,-2.3928227,7.2933235,6.0729837,3
28046673543758,-2.455036,7.350751,6.1830535,3
28046675922768,-2.5459633,7.3603225,6.2691956,3
28046678301779,-2.6512475,7.3746796,6.3696938,3
28046680680841,-2.7182465,7.389036,6.556334,3
28046683059852,-2.7469604,7.456035,6.7764735,3
28046685438862,-2.885744,7.556534,6.8913293,3
28046687817873,-3.0053852,7.623533,7.0779696,3
28046690196883,-3.1393833,7.7096744,7.216753,3
28046692575946,-3.1393833,7.719246,7.274181,3
28046694954956,-3.0915267,7.7479596,7.322037,3
28046697333966,-3.0675986,7.7910304,7.475178,3
28046699712977,-3.0197423,7.834101,7.609176,3
28046702092039,-2.9766715,7.8580294,7.685746,3
28046704471050,-2.9431717,7.925029,7.7144604,3
28046706850060,-2.9336007,7.9680996,7.63789,3
28046709229071,-2.9240294,7.925029,7.499106,3
28046711608133,-2.928815,7.838887,7.30768,3
28046713987143,-2.9479575,7.7479596,7.068398,3
28046716366154,-2.9910283,7.6666036,6.7812595,3
28046718745164,-3.0293136,7.63789,6.6711893,3
28046721124227,-3.048456,7.719246,6.5754766,3
28046723503185,-2.9479575,7.771888,6.4941206,3
28046725882248,-2.8426733,7.752745,6.4606214,3
28046728261258,-2.7278178,7.757531,6.4701924,3
28046730640268,-2.5172493,7.810173,6.498906,3
28046733019331,-2.2731814,7.8436728,6.4797635,3
28046735398341,-1.9573289,7.8053875,6.4606214,3
28046737777352,-1.727618,7.757531,6.474978,3
28046740156362,-1.5888343,7.752745,6.4414787,3
28046742535425,-1.4883357,7.771888,6.4127645,3
28046744914435,-1.4452649,7.7479596,6.393622,3
28046747293446,-1.4644074,7.733603,6.3122663,3
28046749672456,-1.5314065,7.7096744,6.1639113,3
28046752051518,-1.6701902,7.6713896,5.919843,3
28046754430529,-1.9142581,7.623533,5.642276,3
28046756809539,-2.210968,7.556534,5.3982077,3
28046759188550,-2.3641088,7.4656067,5.2689953,3
28046761567612,-2.4358935,7.393822,5.087141,3
28046763946623,-2.6656044,7.355537,4.6707897,3
28046766325633,-2.8378878,7.3172517,4.2017965,3
28046768704643,-2.804388,7.245467,4.034299,3
28046771083706,-2.5603201,7.2358956,4.287938,3
28046773462716,-2.091327,7.322037,4.9674997,3
28046775841727,-1.6031911,7.52782,5.288138,3
28046778220737,-1.2873386,7.690532,5.0105705,3
28046780599748,-1.2442678,7.685746,4.8909297,3
28046782978810,-1.2873386,7.580462,4.5894337,3
28046785357821,-1.3351951,7.5613194,4.9531426,3
28046787736831,-1.2203395,7.6139617,5.4173503,3
28046790115841,-1.1437693,7.7479596,5.6183476,3
28046792494904,-1.0241281,7.7814593,5.953343,3
28046794873914,-0.8757731,7.704889,6.647261,3
28046797252925,-0.6795616,7.743174,7.5661054,3
28046799631935,-0.53599226,7.8628154,8.370093,3
28046802010998,-0.43070808,7.972885,8.85823,3
28046804390008,-0.49292147,8.01117,9.0544405,3
28046806769018,-0.7082755,7.9346,8.863015,3
28046809148029,-0.971486,7.7814593,8.26481,3
28046811527039,-1.2634103,7.585248,7.322037,3
28046813906102,-1.5457634,7.288538,6.0490556,3
28046816285112,-1.8376877,6.9535427,4.814359,3
28046818664123,-2.1391835,6.63769,3.900301,3
28046821043185,-2.416751,6.422336,3.4600215,3
28046823422196,-2.6081767,6.326623,3.3643086,3
28046825801206,-2.603391,6.302695,3.4169507,3
28046828180216,-2.4789643,6.4271216,3.8285162,3
28046830559227,-2.2971098,6.6089764,4.45065,3
28046832938289,-2.1535404,6.7908306,5.1062837,3
28046835317300,-1.9716859,7.001399,5.613562,3
28046837696310,-1.8137596,7.2550383,6.2213387,3
28046840075321,-1.564906,7.542177,6.168697,3
28046842454383,-1.2729816,7.7814593,5.4987063,3
28046844833393,-1.2299109,7.982456,5.4795637,3
28046847212404,-1.4500505,8.154739,5.828916,3
28046849591414,-1.7371893,8.212168,6.111269,3
28046851970425,-1.9716859,8.19781,6.2213387,3
28046854349487,-2.115255,8.092526,6.2261243,3
28046856728498,-2.120041,7.9920278,6.1064835,3
28046859107508,-2.0338993,7.9680996,6.005985,3
28046861486571,-1.9669002,7.925029,5.977271,3
28046863865581,-1.9525433,7.925029,5.9581285,3
28046866244591,-1.9716859,7.9633136,5.977271,3
28046868623602,-2.0147567,7.9346,5.9916277,3
28046871002612,-2.0434706,7.834101,6.0107703,3
28046873381675,-2.143969,7.776674,5.919843,3
28046875760685,-2.2061825,7.743174,5.7188463,3
28046878139696,-2.158326,7.5517483,5.503492,3
28046880518706,-2.1631117,7.3986077,5.2929235,3
28046882897768,-2.3162522,7.4033933,5.1014977,3
28046885276779,-2.4598217,7.379465,4.9292145,3
28046887655789,-2.5268207,7.331609,4.7712884,3
28046890034800,-2.589034,7.355537,4.6755753,3
28046892413862,-2.751746,7.503892,4.599005,3
28046894792873,-2.885744,7.6809607,4.6037908,3
28046897171883,-2.9862428,7.800602,4.6372905,3
28046899550893,-3.062813,7.877172,4.6468616,3
28046901929956,-3.129812,7.948957,4.6325045,3
28046904308966,-3.1489546,7.867601,4.5942197,3
28046906687977,-3.182454,7.661818,4.465007,3
28046909066987,-3.2542388,7.4129643,4.4315076,3
28046911445998,-3.330809,7.2119675,4.345366,3
