t_ns,ax,ay,az,accuracy
15973075395047,-0.72263247,9.078369,3.7088752,3
15973077774213,-0.6125626,9.068798,3.694518,3
15973080153328,-0.52163535,9.068798,3.6993039,3
15973082532443,-0.44506502,9.08794,3.6801612,3
15973084911557,-0.41635114,9.08794,3.6897326,3
15973087290672,-0.40677986,9.116654,3.7088752,3
15973089669786,-0.40677986,9.131011,3.723232,3
15973092048901,-0.44506502,9.145369,3.7088752,3
15973094428016,-0.49292147,9.150154,3.7088752,3
15973096807130,-0.57906306,9.15494,3.7136607,3
15973099186297,-0.6556334,9.150154,3.723232,3
15973101565411,-0.7369894,9.159725,3.7567315,3
15973103944526,-0.81834537,9.169296,3.7806597,3
15973106323641,-0.8853444,9.164511,3.804588,3
15973108702755,-0.9523434,9.188439,3.804588,3
15973111081870,-0.971486,9.2075815,3.7854455,3
15973113460984,-0.9954142,9.19801,3.7615173,3
15973115840099,-0.9954142,9.164511,3.7758741,3
15973118219213,-1.0049855,9.193225,3.7806597,3
15973120598328,-1.0001999,9.174082,3.8093736,3
15973122977443,-0.93320084,9.169296,3.8237305,3
15973125356557,-0.91884387,9.15494,3.8237305,3
15973127735724,-0.8757731,9.140582,3.7950168,3
15973130114838,-0.86141616,9.140582,3.7854455,3
15973132493953,-0.8135597,9.12144,3.7950168,3
15973134873068,-0.76570326,9.116654,3.790231,3
15973137252182,-0.7513463,9.116654,3.790231,3
15973139631245,-0.7609176,9.08794,3.804588,3
15973142010411,-0.7752745,9.068798,3.8237305,3
15973144389526,-0.7800602,9.059227,3.8141594,3
15973146768641,-0.7896315,9.078369,3.7710886,3
15973149147755,-0.8279166,9.083155,3.7615173,3
15973151526870,-0.8853444,9.08794,3.7567315,3
15973153906036,-0.9284152,9.097511,3.7710886,3
15973156285151,-0.93320084,9.092726,3.7567315,3
15973158664266,-0.9906286,9.078369,3.737589,3
15973161043380,-0.9810573,9.073584,3.7136607,3
15973163422495,-0.98584294,9.078369,3.6658044,3
15973165801609,-1.0097711,9.078369,3.6610186,3
15973168180724,-1.0097711,9.064013,3.67059,3
15973170559838,-1.0576276,9.073584,3.6753755,3
15973172938953,-1.0767702,9.068798,3.6801612,3
15973175318068,-1.105484,9.0544405,3.694518,3
15973177697182,-1.119841,9.044869,3.6801612,3
15973180076349,-1.1676974,9.020942,3.6897326,3
15973182455463,-1.1629118,9.006584,3.694518,3
15973184834578,-1.134198,8.963513,3.7471602,3
15973187213693,-1.1102697,8.915657,3.751946,3
15973189592807,-1.0480564,8.920443,3.751946,3
15973191971870,-1.0049855,8.9013,3.7567315,3
15973194351036,-0.971486,8.915657,3.737589,3
15973196730151,-0.9379865,8.925228,3.737589,3
15973199109213,-0.94277215,8.920443,3.751946,3
15973201488380,-0.94277215,8.930014,3.7615173,3
15973203867547,-0.9667004,8.9348,3.8093736,3
15973206246661,-1.0145568,8.958728,3.842873,3
15973208625776,-1.0480564,8.958728,3.842873,3
15973211004891,-1.0576276,8.977871,3.8141594,3
15973213384005,-1.0432707,8.977871,3.8141594,3
15973215763120,-1.0289137,9.016156,3.7998023,3
15973218142234,-0.9954142,9.035298,3.804588,3
15973220521349,-0.971486,9.059227,3.8237305,3
15973222900463,-0.9523434,9.049655,3.8237305,3
15973225279578,-0.90448695,9.040084,3.8285162,3
15973227658745,-0.8757731,9.059227,3.871587,3
15973230037807,-0.85184485,9.068798,3.8907297,3
15973232416974,-0.8327023,9.068798,3.8907297,3
15973234796036,-0.86141616,9.035298,3.9050865,3
15973237175203,-0.89013004,9.040084,3.9050865,3
15973239554318,-0.89013004,9.044869,3.8955152,3
15973241933432,-0.91405827,9.035298,3.8620157,3
15973244312547,-0.94755775,9.044869,3.8524444,3
15973246691661,-0.9619147,9.044869,3.8237305,3
15973249070776,-1.0097711,9.040084,3.7806597,3
15973251449891,-1.038485,9.025727,3.7471602,3
15973253829005,-1.0815558,9.016156,3.7423747,3
15973256208120,-1.0911272,8.992228,3.7328033,3
15973258587286,-1.1533405,9.006584,3.7423747,3
15973260966401,-1.2059826,9.030513,3.7663028,3
15973263345516,-1.2442678,9.044869,3.7806597,3
15973265724630,-1.282553,9.068798,3.7806597,3
15973268103745,-1.3208381,9.08794,3.7710886,3
15973270482859,-1.3160524,9.116654,3.7471602,3
15973272861974,-1.268196,9.164511,3.7184465,3
15973275241036,-1.2299109,9.19801,3.751946,3
15973277620203,-1.1676974,9.212367,3.7567315,3
15973279999318,-1.1150553,9.212367,3.7471602,3
15973282378484,-1.0576276,9.202796,3.7423747,3
15973284757599,-1.038485,9.221938,3.723232,3
15973287136713,-0.98584294,9.212367,3.737589,3
15973289515828,-0.9619147,9.19801,3.7710886,3
15973291894943,-0.9906286,9.183653,3.8237305,3
15973294274057,-1.0193424,9.159725,3.818945,3
15973296653172,-1.0193424,9.15494,3.8141594,3
15973299032286,-1.0336994,9.15494,3.7950168,3
15973301411401,-1.038485,9.12144,3.7615173,3
15973303790516,-1.0719845,9.068798,3.7423747,3
15973306169630,-1.105484,9.040084,3.7328033,3
15973308548745,-1.1437693,9.030513,3.723232,3
15973310927859,-1.1820544,9.020942,3.7088752,3
15973313307026,-1.2203395,9.020942,3.6897326,3
15973315686141,-1.268196,9.030513,3.6897326,3
15973318065255,-1.3304094,9.016156,3.6753755,3
15973320444370,-1.3591232,9.016156,3.6801612,3
15973322823484,-1.3782659,9.01137,3.6897326,3
15973325202599,-1.4069797,9.044869,3.7040894,3
15973327581713,-1.4356936,9.083155,3.694518,3
15973329960828,-1.4117653,9.107083,3.6801612,3
15973332339943,-1.3734802,9.097511,3.6658044,3
15973334719057,-1.3543376,9.111869,3.6466618,3
15973337098172,-1.3495519,9.126225,3.656233,3
15973339477286,-1.282553,9.140582,3.6849468,3
15973341856453,-1.253839,9.135797,3.6897326,3
15973344235568,-1.1629118,9.126225,3.6993039,3
15973346614682,-1.0767702,9.12144,3.7088752,3
15973348993797,-0.9954142,9.102298,3.7184465,3
15973351372911,-0.9092726,9.083155,3.7328033,3
15973353752026,-0.8135597,9.0544405,3.737589,3
15973356131141,-0.7322037,9.025727,3.7471602,3
15973358510255,-0.66999036,9.020942,3.7567315,3
15973360889370,-0.6269195,9.030513,3.737589,3
15973363268484,-0.60777694,9.035298,3.723232,3
15973365647599,-0.5982057,9.044869,3.7088752,3
15973368026713,-0.64606214,9.0544405,3.7184465,3
15973370405880,-0.72263247,9.068798,3.7280176,3
15973372784995,-0.7800602,9.111869,3.723232,3
15973375164109,-0.8853444,9.116654,3.7328033,3
15973377543224,-0.9667004,9.140582,3.751946,3
15973379922338,-1.0432707,9.150154,3.7710886,3
15973382301453,-1.119841,9.174082,3.7663028,3
15973384680568,-1.1581261,9.19801,3.7854455,3
15973387059682,-1.1916257,9.202796,3.7854455,3
15973389438797,-1.2107682,9.193225,3.7710886,3
15973391817859,-1.1916257,9.19801,3.751946,3
15973394197026,-1.1676974,9.212367,3.7567315,3
15973396576193,-1.0911272,9.19801,3.737589,3
15973398955307,-1.038485,9.178867,3.7184465,3
15973401334422,-0.971486,9.126225,3.723232,3
15973403713536,-0.8997013,9.107083,3.7184465,3
15973406092651,-0.8327023,9.08794,3.7136607,3
15973408471766,-0.76570326,9.073584,3.7136607,3
15973410850828,-0.6987042,9.068798,3.67059,3
15973413229995,-0.6556334,9.059227,3.6658044,3
15973415609109,-0.6125626,9.049655,3.6514473,3
15973417988224,-0.6221339,9.059227,3.6610186,3
15973420367338,-0.65084773,9.059227,3.6753755,3
15973422746453,-0.6987042,9.064013,3.67059,3
15973425125568,-0.79441714,9.073584,3.6610186,3
15973427504734,-0.8757731,9.116654,3.6897326,3
15973429883849,-0.9810573,9.12144,3.6849468,3
15973432262963,-1.0815558,9.116654,3.7136607,3
15973434642078,-1.2107682,9.140582,3.737589,3
15973437021193,-1.3016955,9.131011,3.7806597,3
15973439400307,-1.3686945,9.126225,3.7758741,3
15973441779422,-1.3974084,9.140582,3.7758741,3
15973444158536,-1.4261223,9.131011,3.7758741,3
15973446537651,-1.3926228,9.140582,3.7758741,3
15973448916766,-1.3351951,9.12144,3.7806597,3
15973451295880,-1.2873386,9.102298,3.7854455,3
15973453674995,-1.1964114,9.078369,3.7950168,3
15973456054109,-1.1246266,9.040084,3.7806597,3
15973458433276,-1.0432707,9.025727,3.7615173,3
15973460812391,-0.94277215,9.006584,3.7328033,3
15973463191505,-0.8566305,9.006584,3.737589,3
15973465570620,-0.76570326,8.992228,3.737589,3
15973467949734,-0.7369894,8.992228,3.7710886,3
15973470328849,-0.72741807,8.963513,3.7950168,3
15973472707963,-0.7465607,8.963513,3.7998023,3
15973475087078,-0.7848458,8.9826565,3.790231,3
15973477466193,-0.8566305,9.01137,3.7615173,3
15973479845307,-0.9379865,9.035298,3.7710886,3
15973482224422,-1.038485,9.020942,3.790231,3
15973484603536,-1.1246266,9.068798,3.7998023,3
15973486982703,-1.1916257,9.059227,3.8093736,3
15973489361766,-1.2490535,9.08794,3.8141594,3
15973491740932,-1.2777673,9.102298,3.818945,3
15973494120047,-1.282553,9.08794,3.8093736,3
15973496499161,-1.2442678,9.083155,3.8093736,3
15973498878276,-1.1772687,9.083155,3.8285162,3
15973501257391,-1.0815558,9.08794,3.8380876,3
15973503636505,-0.98584294,9.068798,3.8141594,3
15973506015620,-0.89013004,9.073584,3.790231,3
15973508394682,-0.7752745,9.064013,3.7758741,3
15973510773849,-0.71306115,9.064013,3.7615173,3
15973513152963,-0.6652047,9.040084,3.7423747,3
15973515532078,-0.6364908,9.040084,3.737589,3
15973517911193,-0.65084773,9.068798,3.7423747,3
15973520290359,-0.6987042,9.064013,3.7423747,3
15973522669474,-0.7752745,9.040084,3.751946,3
15973525048588,-0.8470592,9.078369,3.751946,3
15973527427703,-0.91884387,9.097511,3.737589,3
15973529806818,-1.0289137,9.083155,3.7280176,3
15973532185932,-1.119841,9.083155,3.7423747,3
15973534565047,-1.2155539,9.078369,3.7615173,3
15973536944266,-1.2777673,9.092726,3.7615173,3
15973539323276,-1.3112668,9.111869,3.7663028,3
15973541702391,-1.3016955,9.107083,3.7567315,3
15973544081505,-1.2969099,9.107083,3.7328033,3
15973546460620,-1.2442678,9.111869,3.7280176,3
15973548839734,-1.1629118,9.116654,3.7328033,3
15973551218901,-1.0911272,9.092726,3.7280176,3
15973553598016,-1.0193424,9.08794,3.737589,3
15973555977130,-0.9379865,9.073584,3.7471602,3
15973558356245,-0.8279166,9.083155,3.7567315,3
15973560735359,-0.76570326,9.068798,3.7184465,3
15973563114474,-0.72741807,9.059227,3.7280176,3
15973565493588,-0.72263247,9.035298,3.7280176,3
15973567872703,-0.7178468,9.044869,3.7328033,3
15973570251818,-0.74177504,9.044869,3.7567315,3
15973572630932,-0.76570326,9.064013,3.7998023,3
15973575010047,-0.83748794,9.059227,3.8285162,3
15973577389161,-0.9379865,9.078369,3.8285162,3
15973579768276,-1.0336994,9.059227,3.8237305,3
15973582147391,-1.134198,9.059227,3.8237305,3
15973584526505,-1.2107682,9.040084,3.804588,3
15973586905672,-1.268196,9.030513,3.8141594,3
15973589284786,-1.3160524,9.0544405,3.842873,3
15973591663901,-1.3351951,9.064013,3.8380876,3
15973594043016,-1.3399807,9.059227,3.8141594,3
15973596422130,-1.3112668,9.059227,3.7998023,3
15973598801245,-1.3064811,9.049655,3.7663028,3
15973601180359,-1.2394822,9.073584,3.7471602,3
15973603559422,-1.1772687,9.068798,3.7567315,3
15973605938588,-1.0911272,9.083155,3.7806597,3
15973608317703,-1.0193424,9.08794,3.7615173,3
15973610696818,-0.9762716,9.092726,3.751946,3
15973613075932,-0.90448695,9.078369,3.737589,3
15973615455099,-0.83748794,9.097511,3.7280176,3
15973617834213,-0.8135597,9.092726,3.7280176,3
15973620213328,-0.8135597,9.08794,3.751946,3
15973622592443,-0.80877405,9.078369,3.7615173,3
15973624971557,-0.85184485,9.102298,3.7567315,3
15973627350672,-0.89491564,9.111869,3.751946,3
15973629729786,-0.9379865,9.08794,3.7328033,3
15973632108901,-0.971486,9.102298,3.7184465,3
15973634488016,-1.0193424,9.107083,3.7280176,3
15973636867130,-1.038485,9.111869,3.7567315,3
15973639246245,-1.038485,9.097511,3.7615173,3
15973641625307,-1.0097711,9.116654,3.7950168,3
15973644004474,-0.9906286,9.092726,3.7950168,3
15973646383588,-0.94277215,9.08794,3.7998023,3
15973648762703,-0.8997013,9.064013,3.7806597,3
15973651141818,-0.8422736,9.073584,3.7615173,3
15973653520984,-0.7896315,9.078369,3.7615173,3
15973655900099,-0.75613195,9.08794,3.7710886,3
15973658279213,-0.71306115,9.092726,3.7806597,3
15973660658328,-0.70348984,9.068798,3.7854455,3
15973663037443,-0.7082755,9.064013,3.7710886,3
15973665416557,-0.72741807,9.059227,3.7471602,3
15973667795672,-0.7609176,9.049655,3.7615173,3
15973670174786,-0.80877405,9.040084,3.7663028,3
15973672553901,-0.8566305,9.049655,3.7806597,3
15973674932963,-0.94277215,9.040084,3.7758741,3
15973677312130,-1.0336994,9.040084,3.7710886,3
15973679691193,-1.1006985,9.0544405,3.7615173,3
15973682070359,-1.1437693,9.064013,3.7710886,3
15973684449526,-1.1820544,9.064013,3.7854455,3
15973686828641,-1.2299109,9.0544405,3.7710886,3
15973689207755,-1.2442678,9.078369,3.7806597,3
15973691586870,-1.1916257,9.078369,3.7998023,3
15973693965984,-1.1294123,9.059227,3.804588,3
15973696345099,-1.0959128,9.059227,3.804588,3
15973698724213,-1.0241281,9.049655,3.7998023,3
15973701103328,-0.9236295,9.049655,3.7950168,3
15973703482443,-0.8757731,9.059227,3.7758741,3
15973705861557,-0.8135597,9.092726,3.7615173,3
15973708240672,-0.79441714,9.092726,3.7663028,3
15973710619786,-0.7513463,9.092726,3.7471602,3
15973712998901,-0.75613195,9.083155,3.751946,3
15973715378016,-0.7704889,9.08794,3.7423747,3
15973717757130,-0.81834537,9.097511,3.7423747,3
15973720136245,-0.86141616,9.092726,3.7471602,3
15973722515411,-0.8997013,9.107083,3.7567315,3
15973724894526,-0.9379865,9.092726,3.7710886,3
15973727273641,-0.9523434,9.102298,3.7806597,3
15973729652755,-1.0001999,9.097511,3.7806597,3
15973732031870,-0.98584294,9.097511,3.790231,3
15973734410984,-1.0097711,9.097511,3.7950168,3
15973736790099,-1.0193424,9.078369,3.7758741,3
15973739169213,-0.98584294,9.083155,3.7806597,3
15973741548328,-0.9619147,9.073584,3.7567315,3
15973743927443,-0.9284152,9.083155,3.737589,3
15973746306557,-0.8997013,9.107083,3.723232,3
15973748685672,-0.8757731,9.102298,3.7088752,3
15973751064786,-0.8470592,9.102298,3.7280176,3
15973753443901,-0.81834537,9.102298,3.723232,3
15973755823068,-0.80877405,9.111869,3.7423747,3
15973758202182,-0.81834537,9.116654,3.7567315,3
15973760581297,-0.81834537,9.107083,3.7471602,3
15973762960411,-0.8566305,9.111869,3.751946,3
15973765339526,-0.8997013,9.12144,3.790231,3
15973767718641,-0.9284152,9.12144,3.8141594,3
15973770097755,-0.9762716,9.111869,3.8380876,3
15973772476818,-1.0336994,9.102298,3.8572302,3
15973774855984,-1.0576276,9.102298,3.8476589,3
15973777235099,-1.0432707,9.107083,3.7998023,3
15973779614213,-1.0576276,9.08794,3.8093736,3
15973781993328,-1.0097711,9.078369,3.8333018,3
15973784372443,-0.94277215,9.068798,3.8333018,3
15973786751557,-0.8757731,9.049655,3.8333018,3
15973789130672,-0.8279166,9.044869,3.8333018,3
15973791509786,-0.7848458,9.035298,3.8093736,3
15973793888953,-0.7082755,9.044869,3.7615173,3
15973796268068,-0.67477596,9.030513,3.751946,3
15973798647182,-0.6652047,9.030513,3.751946,3
15973801026297,-0.6795616,9.044869,3.7567315,3
15973803405411,-0.7322037,9.049655,3.7471602,3
15973805784526,-0.7800602,9.064013,3.7567315,3
15973808163641,-0.8662018,9.073584,3.737589,3
15973810542755,-0.94755775,9.078369,3.7088752,3
15973812921870,-1.0193424,9.078369,3.6801612,3
15973815300984,-1.105484,9.092726,3.6753755,3
15973817680099,-1.1533405,9.131011,3.6753755,3
15973820059213,-1.18684,9.145369,3.6801612,3
15973822438328,-1.1964114,9.159725,3.6849468,3
15973824817443,-1.1629118,9.164511,3.6897326,3
15973827196557,-1.1294123,9.174082,3.67059,3
15973829575672,-1.0480564,9.2075815,3.67059,3
15973831954838,-0.94755775,9.2075815,3.6897326,3
15973834333953,-0.83748794,9.202796,3.7040894,3
15973836713068,-0.74177504,9.212367,3.7088752,3
15973839092182,-0.66041905,9.178867,3.7088752,3
15973841471297,-0.59342,9.126225,3.7184465,3
15973843850411,-0.5312066,9.135797,3.7328033,3
15973846229526,-0.5072784,9.116654,3.751946,3
15973848608641,-0.55034924,9.083155,3.7663028,3
15973850987755,-0.5982057,9.059227,3.790231,3
15973853366870,-0.6843473,9.035298,3.7950168,3
15973855745984,-0.7896315,9.01137,3.790231,3
15973858125099,-0.91884387,8.992228,3.7950168,3
15973860504213,-1.0432707,9.001799,3.7950168,3
15973862883328,-1.1389836,9.016156,3.8093736,3
15973865262443,-1.2586247,9.006584,3.7998023,3
15973867641557,-1.3304094,9.01137,3.804588,3
15973870020724,-1.3878372,9.025727,3.7998023,3
15973872399838,-1.3926228,9.044869,3.7998023,3
15973874778953,-1.416551,9.068798,3.7758741,3
15973877158068,-1.3830515,9.083155,3.737589,3
15973879537182,-1.3208381,9.102298,3.7423747,3
15973881916297,-1.2729816,9.111869,3.7471602,3
15973884295411,-1.1916257,9.135797,3.7328033,3
15973886674474,-1.1102697,9.159725,3.7040894,3
15973889053641,-1.0289137,9.164511,3.6753755,3
15973891432755,-0.9379865,9.174082,3.6658044,3
15973893811870,-0.8709874,9.174082,3.656233,3
15973896190984,-0.8422736,9.169296,3.6370904,3
15973898570099,-0.7800602,9.15494,3.6275191,3
15973900949213,-0.7465607,9.140582,3.6275191,3
15973903328328,-0.7465607,9.150154,3.6466618,3
15973905707443,-0.7704889,9.126225,3.6466618,3
15973908086557,-0.7848458,9.107083,3.6610186,3
15973910465672,-0.7896315,9.092726,3.6753755,3
15973912844838,-0.8327023,9.102298,3.7040894,3
15973915223953,-0.8662018,9.083155,3.7088752,3
15973917603068,-0.9092726,9.064013,3.7184465,3
15973919982182,-0.9667004,9.040084,3.751946,3
15973922361297,-0.9954142,9.030513,3.7806597,3
15973924740411,-1.038485,9.016156,3.790231,3
15973927119526,-1.0336994,9.030513,3.8237305,3
15973929498641,-1.0432707,9.01137,3.8333018,3
15973931877755,-1.038485,8.992228,3.8380876,3
15973934256870,-1.0336994,8.997013,3.8285162,3
15973936635984,-1.0193424,8.997013,3.8093736,3
15973939015099,-0.971486,9.006584,3.8237305,3
15973941394213,-0.93320084,9.006584,3.8237305,3
15973943773328,-0.89491564,9.030513,3.8380876,3
15973946152443,-0.86141616,9.030513,3.8524444,3
15973948531557,-0.8327023,9.059227,3.8524444,3
15973950910620,-0.79441714,9.049655,3.8333018,3
15973953289838,-0.7704889,9.073584,3.804588,3
15973955668953,-0.7513463,9.092726,3.8093736,3
15973958048068,-0.7465607,9.08794,3.7950168,3
15973960427182,-0.76570326,9.111869,3.790231,3
15973962806297,-0.7465607,9.126225,3.7854455,3
15973965185411,-0.7752745,9.140582,3.7710886,3
15973967564526,-0.79441714,9.15494,3.7758741,3
15973969943641,-0.80877405,9.174082,3.7567315,3
15973972322755,-0.8566305,9.169296,3.7615173,3
15973974701870,-0.8997013,9.159725,3.7663028,3
15973977080984,-0.9092726,9.159725,3.751946,3
15973979460099,-0.8997013,9.150154,3.7615173,3
15973981839213,-0.9236295,9.15494,3.7328033,3
15973984218328,-0.94755775,9.135797,3.723232,3
15973986597443,-0.94277215,9.131011,3.7136607,3
15973988976557,-0.9619147,9.126225,3.7088752,3
15973991355672,-0.9667004,9.078369,3.7088752,3
15973993734786,-0.9954142,9.068798,3.6993039,3
15973996113901,-0.9954142,9.064013,3.6993039,3
15973998493068,-1.0336994,9.068798,3.6897326,3
15974000872182,-1.0480564,9.0544405,3.6323047,3
15974003251297,-1.0863415,9.049655,3.6466618,3
15974005630411,-1.105484,9.040084,3.6610186,3
15974008009526,-1.1150553,9.040084,3.656233,3
15974010388641,-1.134198,9.0544405,3.694518,3
15974012767755,-1.1294123,9.040084,3.7088752,3
15974015146870,-1.1389836,9.025727,3.7136607,3
15974017525984,-1.1581261,9.020942,3.6993039,3
15974019905099,-1.1389836,9.040084,3.6801612,3
15974022284213,-1.1294123,9.064013,3.67059,3
15974024663328,-1.105484,9.068798,3.7088752,3
15974027042443,-1.0241281,8.997013,3.7088752,3
15974029421557,-0.95712906,8.877372,3.6897326,3
15974031800672,-0.8997013,8.800801,3.6610186,3
15974034179786,-0.8135597,9.08794,3.790231,3
15974036558901,-0.76570326,9.317652,3.723232,3
15974038938016,-0.72741807,9.217153,3.6897326,3
15974041317130,-0.53599226,9.08794,3.8093736,3
15974043696297,-0.5838487,9.078369,3.8285162,3
15974046075411,-0.57906306,8.7577305,3.603591,3
15974048454526,-0.4642076,8.834301,3.546163,3
15974050833641,-0.38285163,9.245867,2.9623144,3
15974053212755,-0.65084773,9.475577,2.6512475,3
15974055591870,-0.3684947,9.265009,3.1154552,3
15974057970984,-0.3924229,9.221938,4.1491547,3
15974060350099,-0.5886344,9.169296,4.8765726,3
15974062729213,-0.57906306,9.0544405,4.9196434,3
15974065108328,-0.4546363,9.097511,4.1874394,3
15974067487443,-0.76570326,9.360723,3.359523,3
15974069866557,-0.8279166,9.394221,3.1441689,3
15974072245672,-0.79920274,9.159725,3.6323047,3
15974074624786,-0.9523434,9.030513,4.354937,3
15974077003901,-1.0289137,9.006584,4.766503,3
15974079383016,-1.0336994,8.920443,4.5559344,3
15974081762130,-1.1294123,9.006584,3.9338005,3
15974084141297,-1.2155539,9.08794,3.359523,3
15974086520359,-1.2873386,9.073584,3.2925239,3
15974088899474,-1.4500505,8.973084,3.5796626,3
15974091278641,-1.564906,8.9826565,4.063013,3
15974093657755,-1.5744773,8.944371,4.3788652,3
15974096036870,-1.6510476,8.944371,4.4171505,3
15974098415932,-1.6845472,9.001799,4.1443686,3
15974100795099,-1.6223338,9.092726,3.7950168,3
15974103174213,-1.4931214,9.059227,3.5653057,3
15974105553328,-1.4452649,9.083155,3.5844483,3
15974107932443,-1.268196,9.174082,3.7710886,3
15974110311557,-1.0959128,9.183653,3.9290147,3
15974112690672,-0.9523434,9.150154,3.900301,3
15974115069786,-0.8470592,9.2075815,3.723232,3
15974117448901,-0.7322037,9.236296,3.4648073,3
15974119828016,-0.64606214,9.15494,3.2590244,3
15974122207130,-0.5168497,9.102298,3.2877383,3
15974124586245,-0.4546363,9.111869,3.4887354,3
15974126965359,-0.44027936,9.020942,3.656233,3
15974129344474,-0.41156548,8.925228,3.694518,3
15974131723588,-0.42592242,8.953942,3.5796626,3
15974134102703,-0.526421,9.020942,3.37388,3
15974136481870,-0.59342,9.020942,3.2638102,3
15974138860984,-0.66041905,9.059227,3.3355947,3
15974141240099,-0.7896315,9.068798,3.5413775,3
15974143619213,-0.94755775,9.068798,3.7710886,3
15974145998328,-1.0241281,9.059227,3.9146578,3
15974148377443,-1.1533405,9.111869,3.9338005,3
15974150756557,-1.2107682,9.107083,3.885944,3
15974153135672,-1.2634103,9.131011,3.8285162,3
15974155514786,-1.2873386,9.159725,3.7854455,3
15974157893901,-1.2777673,9.212367,3.790231,3
15974160273016,-1.2299109,9.212367,3.8093736,3
15974162652130,-1.1964114,9.140582,3.8668015,3
15974165031245,-1.1102697,9.116654,3.9720855,3
15974167410359,-1.052842,9.111869,3.991228,3
15974169789474,-1.0336994,9.092726,3.9146578,3
15974172168588,-0.9906286,9.020942,3.8524444,3
15974174547703,-1.0001999,9.073584,3.900301,3
15974176926818,-0.9954142,9.064013,4.0438704,3
15974179305932,-1.0289137,8.977871,4.2017965,3
15974181685099,-1.0145568,8.925228,4.26401,3
15974184064161,-1.0767702,8.9348,4.211368,3
15974186443328,-1.105484,8.953942,4.0438704,3
15974188822391,-1.1102697,8.968299,3.8476589,3
15974191201557,-1.1437693,8.987442,3.6801612,3
15974193580672,-1.1772687,9.049655,3.6753755,3
15974195959786,-1.2299109,9.035298,3.7567315,3
15974198338901,-1.2442678,9.001799,3.8333018,3
15974200718016,-1.2777673,9.01137,3.8333018,3
15974203097130,-1.3016955,9.020942,3.7280176,3
15974205476245,-1.3399807,9.044869,3.5318062,3
15974207855359,-1.3351951,9.020942,3.3930225,3
15974210234474,-1.3256238,9.0544405,3.4169507,3
15974212613588,-1.3160524,9.131011,3.4648073,3
15974214992703,-1.3208381,9.135797,3.5270207,3
15974217371818,-1.18684,9.08794,3.5318062,3
15974219750932,-1.1246266,9.193225,3.4791641,3
15974222130047,-1.0767702,9.284152,3.3690944,3
15974224509161,-0.94755775,9.274581,3.278167,3
15974226888276,-0.8422736,9.159725,3.2590244,3
15974229267391,-0.7752745,9.073584,3.4121652,3
15974231646505,-0.72263247,9.083155,3.5892339,3
15974234025620,-0.72263247,9.049655,3.6275191,3
15974236404786,-0.66041905,9.092726,3.574877,3
15974238783901,-0.6652047,9.188439,3.5030923,3
15974241163016,-0.72741807,9.19801,3.397808,3
15974243542130,-0.7704889,9.15494,3.4504502,3
15974245921245,-0.7513463,9.107083,3.5892339,3
15974248300359,-0.89491564,9.078369,3.7615173,3
15974250679474,-1.0241281,9.040084,3.9338005,3
15974253058588,-1.1389836,9.049655,4.034299,3
15974255437703,-1.268196,9.083155,4.024728,3
15974257816818,-1.3830515,9.064013,4.005585,3
15974260195932,-1.4404793,9.035298,4.034299,3
15974262575047,-1.4835501,9.040084,4.130012,3
15974264954161,-1.4931214,9.107083,4.197011,3
15974267333276,-1.4787644,9.174082,4.15394,3
15974269712391,-1.3878372,9.221938,4.048656,3
15974272091505,-1.2729816,9.19801,4.0007997,3
15974274470620,-1.1485549,9.178867,4.0390844,3
15974276849734,-1.0049855,9.131011,4.15394,3
15974279228849,-0.8470592,9.068798,4.2592244,3
15974281607963,-0.7082755,9.059227,4.249653,3
15974283987078,-0.6029913,9.064013,4.173083,3
15974286366193,-0.5072784,9.097511,4.063013,3
15974288745307,-0.42592242,9.092726,3.9816568,3
15974291124422,-0.38763726,9.0544405,3.9481573,3
15974293503536,-0.37328035,9.020942,3.938586,3
15974295882651,-0.4019942,9.035298,3.9098723,3
15974298261818,-0.47856453,9.035298,3.8333018,3
15974300640932,-0.56470615,9.01137,3.694518,3
15974303020047,-0.6843473,9.035298,3.5844483,3
15974305399161,-0.80877405,9.083155,3.5126636,3
15974307778276,-0.9619147,9.049655,3.4983068,3
15974310157391,-1.052842,9.049655,3.5653057,3
15974312536505,-1.1581261,9.068798,3.6466618,3
15974314915620,-1.2346965,9.064013,3.6466618,3
15974317294734,-1.2490535,9.102298,3.6131623,3
15974319673849,-1.2059826,9.169296,3.5126636,3
15974322052963,-1.1820544,9.174082,3.4217365,3
15974324432078,-1.0959128,9.135797,3.3403804,3
15974326811193,-0.9810573,9.12144,3.4169507,3
15974329190307,-0.8422736,9.126225,3.5796626,3
15974331569422,-0.76570326,9.126225,3.7136607,3
15974333948536,-0.64606214,9.08794,3.6897326,3
15974336327651,-0.56470615,9.131011,3.5270207,3
15974338706766,-0.5168497,9.174082,3.359523,3
15974341085880,-0.5407779,9.169296,3.3403804,3
15974343464943,-0.55513483,9.126225,3.455236,3
15974345844109,-0.6412765,9.12144,3.67059,3
15974348223224,-0.7513463,9.097511,3.8380876,3
15974350602391,-0.8470592,9.111869,3.8907297,3
15974352981453,-0.9667004,9.111869,3.8237305,3
15974355360620,-1.0719845,9.111869,3.7615173,3
15974357739682,-1.1533405,9.107083,3.7280176,3
15974360118849,-1.2203395,9.102298,3.8141594,3
15974362497963,-1.2586247,9.107083,3.9433718,3
15974364877078,-1.2634103,9.092726,4.048656,3
15974367256193,-1.253839,9.102298,4.063013,3
15974369635307,-1.2011969,9.097511,3.9768713,3
15974372014422,-1.1294123,9.12144,3.818945,3
15974374393536,-1.0480564,9.12144,3.6849468,3
15974376772651,-0.9667004,9.107083,3.6753755,3
15974379151766,-0.8566305,9.102298,3.751946,3
15974381530880,-0.7800602,9.030513,3.818945,3
15974383909995,-0.72263247,8.968299,3.8524444,3
15974386289109,-0.6556334,8.9348,3.8141594,3
15974388668224,-0.63170516,8.939586,3.7423747,3
15974391047338,-0.6364908,8.9013,3.6801612,3
15974393426453,-0.66999036,8.891729,3.6849468,3
15974395805568,-0.7369894,8.9108715,3.7184465,3
15974398184630,-0.79920274,8.848659,3.7806597,3
15974400563797,-0.8757731,8.85823,3.8285162,3
15974402942911,-0.9619147,8.906086,3.8285162,3
15974405322026,-1.038485,8.973084,3.7998023,3
15974407701141,-1.0815558,9.044869,3.7950168,3
15974410080255,-1.1389836,9.126225,3.8333018,3
15974412459370,-1.1437693,9.174082,3.9098723,3
15974414838536,-1.1150553,9.2075815,3.9720855,3
15974417217599,-1.0671989,9.269794,3.9577286,3
15974419596766,-1.0049855,9.336794,3.9098723,3
15974421975880,-0.8853444,9.336794,3.8668015,3
15974424354995,-0.7513463,9.322437,3.885944,3
15974426734109,-0.6029913,9.284152,3.9481573,3
15974429113224,-0.4546363,9.212367,4.005585,3
15974431492338,-0.3684947,9.159725,4.0007997,3
15974433871453,-0.26799613,9.08794,3.991228,3
15974436250568,-0.2440679,9.040084,3.9625144,3
15974438629682,-0.27756742,9.020942,3.8955152,3
15974441008797,-0.37806597,9.016156,3.8093736,3
15974443387911,-0.53599226,8.9826565,3.7280176,3
15974445767026,-0.72263247,8.930014,3.6897326,3
15974448146141,-0.9810573,8.896515,3.7854455,3
15974450525255,-1.2107682,8.839087,3.900301,3
15974452904370,-1.4691931,8.805588,3.885944,3
15974455283484,-1.6606189,8.85823,3.7998023,3
15974457662599,-1.9477576,8.796016,3.952943,3
15974460041713,-1.995614,8.7577305,4.1491547,3
15974462420828,-2.143969,9.044869,3.9242291,3
15974464799943,-2.2588246,9.202796,3.3212378,3
15974467179057,-2.172683,9.131011,2.8426733,3
15974469558172,-2.0482562,9.60479,3.0532417,3
15974471937286,-2.0147567,9.877572,3.4121652,3
15974474316401,-1.8041883,9.442079,3.6083765,3
15974476695516,-1.2442678,9.255438,3.4695928,3
15974479074682,-1.105484,9.513863,3.2685957,3
15974481453797,-0.7322037,9.41815,3.1776686,3
15974483832859,-0.27756742,9.164511,3.4360933,3
15974486212026,0.15792629,9.064013,3.751946,3
15974488591141,0.3062813,8.968299,3.8380876,3
15974490970255,0.61734825,8.79123,3.603591,3
15974493349370,0.8135597,8.748159,3.2685957,3
15974495728484,0.8805587,8.786445,3.0963125,3
15974498107599,0.75613195,8.671589,3.1776686,3
15974500486713,0.49292147,8.709874,3.3834512,3
15974502865828,0.12921242,8.882157,3.5270207,3
15974505244943,-0.28235307,8.930014,3.6131623,3
15974507624057,-0.7800602,8.953942,3.7184465,3
15974510003172,-1.2586247,9.116654,3.8333018,3
15974512382286,-1.5840486,9.174082,3.9098723,3
15974514761401,-1.8185452,9.159725,4.048656,3
15974517140516,-2.0147567,9.23151,4.23051,3
15974519519630,-2.0482562,9.293723,4.436293,3
15974521898745,-1.9334008,9.265009,4.536792,3
15974524277859,-1.7228323,9.245867,4.479364,3
15974526656974,-1.4404793,9.288938,4.359723,3
15974529036088,-1.052842,9.241081,4.197011,3
15974531415203,-0.6269195,9.159725,4.0677986,3
15974533794318,-0.2105684,9.116654,4.0151563,3
15974536173432,0.11485548,9.08794,4.0007997,3
15974538552495,0.38763726,9.025727,3.9768713,3
15974540931661,0.5838487,9.020942,3.885944,3
15974543310776,0.6652047,9.035298,3.7328033,3
15974545689838,0.6269195,9.030513,3.5796626,3
15974548069005,0.44506502,9.020942,3.507878,3
15974550448120,0.17706887,9.040084,3.5318062,3
15974552827286,-0.18185452,9.064013,3.6179478,3
15974555206401,-0.55513483,9.073584,3.7136607,3
15974557585463,-0.9619147,9.116654,3.7615173,3
15974559964630,-1.2921243,9.159725,3.7663028,3
15974562343849,-1.5888343,9.183653,3.7710886,3
15974564722859,-1.8185452,9.19801,3.790231,3
15974567101974,-1.9477576,9.245867,3.8380876,3
15974569481088,-1.9908284,9.236296,3.871587,3
15974571860203,-1.9716859,9.260223,3.871587,3
15974574239318,-1.8376877,9.274581,3.8380876,3
15974576618432,-1.6271194,9.2793665,3.7806597,3
15974578997547,-1.3782659,9.23151,3.6897326,3
15974581376661,-1.0624132,9.226724,3.6227336,3
15974583755776,-0.75613195,9.193225,3.5892339,3
15974586134891,-0.4833502,9.174082,3.5988052,3
15974588514005,-0.2632105,9.107083,3.6370904,3
15974590893120,-0.13399807,9.044869,3.6753755,3
15974593272234,-0.047856454,9.025727,3.6849468,3
15974595651349,-0.062213387,8.9826565,3.694518,3
15974598030463,-0.148355,8.958728,3.694518,3
15974600409578,-0.31106696,8.953942,3.7088752,3
15974602788693,-0.5168497,8.958728,3.737589,3
15974605167807,-0.7848458,8.997013,3.7567315,3
15974607546922,-1.0097711,9.049655,3.7758741,3
15974609926036,-1.2251252,9.059227,3.790231,3
15974612305151,-1.4213367,9.059227,3.804588,3
15974614684266,-1.5553347,9.073584,3.8141594,3
15974617063380,-1.5984055,9.078369,3.871587,3
15974619442495,-1.6175481,9.064013,3.8955152,3
15974621821609,-1.5601203,9.064013,3.885944,3
15974624200724,-1.402194,9.059227,3.871587,3
15974626579838,-1.2107682,9.049655,3.8237305,3
15974628958953,-0.9523434,9.044869,3.7710886,3
15974631338068,-0.6891329,9.073584,3.7040894,3
15974633717182,-0.4211368,9.035298,3.67059,3
15974636096297,-0.19621146,9.040084,3.6658044,3
15974638475411,-0.009571291,9.035298,3.656233,3
15974640854526,0.124426775,9.030513,3.6897326,3
15974643233693,0.22013968,9.035298,3.6993039,3
15974645612807,0.21535404,9.020942,3.7088752,3
15974647991922,0.15314065,9.025727,3.7088752,3
15974650371036,0.019142581,9.049655,3.6993039,3
15974652750151,-0.14356937,9.073584,3.6897326,3
15974655129266,-0.3493521,9.078369,3.7088752,3
15974657508380,-0.57427746,9.08794,3.7088752,3
15974659887495,-0.75613195,9.064013,3.6993039,3
15974662266609,-0.91884387,9.078369,3.694518,3
15974664645724,-1.0719845,9.08794,3.6993039,3
15974667024838,-1.1724831,9.083155,3.6849468,3
15974669403953,-1.2394822,9.078369,3.6897326,3
15974671783068,-1.2729816,9.107083,3.694518,3
15974674162182,-1.2634103,9.12144,3.7184465,3
15974676541297,-1.2394822,9.135797,3.737589,3
15974678920411,-1.1485549,9.135797,3.7471602,3
15974681299526,-1.0863415,9.140582,3.7567315,3
15974683678641,-1.0001999,9.08794,3.723232,3
15974686057755,-0.91884387,8.863015,3.6514473,3
15974688436870,-0.8662018,8.513663,3.6514473,3
15974690815984,-0.8422736,8.56152,3.9960139,3
15974693195099,-0.7752745,9.288938,4.4410787,3
15974695574213,-0.9379865,9.533006,4.2975097,3
15974697953328,-0.89491564,9.413364,3.9098723,3
15974700332443,-0.8279166,9.705289,3.4408789,3
15974702711557,-1.0480564,9.848858,3.1250265,3
15974705090672,-1.0432707,9.403793,3.2973096,3
15974707469786,-0.85184485,9.174082,4.0103707,3
15974709848901,-0.94755775,9.116654,4.6612186,3
15974712228016,-1.0671989,8.848659,4.7856455,3
15974714607130,-0.8853444,8.690732,4.3836513,3
15974716986245,-0.8757731,8.796016,3.7423747,3
15974719365359,-0.94755775,8.805588,3.359523,3
15974721744474,-0.9236295,8.71466,3.4360933,3
15974724123588,-0.91884387,8.762517,3.7328033,3
15974726502703,-0.9906286,8.85823,3.8907297,3
15974728881818,-1.0624132,8.848659,3.8093736,3
15974731260932,-1.1724831,8.9108715,3.5413775,3
15974733640047,-1.3064811,9.049655,3.2973096,3
15974736019213,-1.3878372,9.083155,3.2925239,3
15974738398328,-1.5361922,9.111869,3.546163,3
15974740777443,-1.6510476,9.217153,3.952943,3
15974743156557,-1.6701902,9.241081,4.2257247,3
15974745535672,-1.5840486,9.241081,4.197011,3
15974747914786,-1.4835501,9.298509,3.9098723,3
15974750293901,-1.3016955,9.399008,3.6610186,3
15974752673016,-0.98584294,9.360723,3.5318062,3
15974755052130,-0.6939186,9.284152,3.507878,3
15974757431245,-0.44027936,9.284152,3.5796626,3
15974759810359,-0.18664017,9.241081,3.641876,3
15974762189474,0.009571291,9.150154,3.6275191,3
15974764568588,0.09092726,9.131011,3.5413775,3
15974766947703,0.124426775,9.083155,3.4743786,3
15974769326818,0.06699903,9.059227,3.4121652,3
15974771705932,-0.09571291,9.049655,3.4504502,3
15974774085047,-0.28235307,9.016156,3.5557344,3
15974776464161,-0.5024927,9.01137,3.67059,3
15974778843276,-0.7752745,9.030513,3.7328033,3
15974781222391,-1.0289137,9.068798,3.7088752,3
15974783601505,-1.2346965,9.111869,3.6275191,3
15974785980620,-1.4356936,9.164511,3.603591,3
15974788359734,-1.564906,9.183653,3.6658044,3
15974790738849,-1.6510476,9.164511,3.7998023,3
15974793117963,-1.713261,9.164511,3.9290147,3
15974795497078,-1.698904,9.169296,3.9864426,3
15974797876193,-1.6366907,9.178867,3.9625144,3
15974800255307,-1.4979069,9.188439,3.8476589,3
15974802634422,-1.3591232,9.23151,3.804588,3
15974805013536,-1.1581261,9.217153,3.8620157,3
15974807392651,-0.98584294,9.178867,3.9577286,3
15974809771766,-0.7609176,9.12144,3.9720855,3
15974812150880,-0.55513483,9.102298,3.9338005,3
15974814529995,-0.36370903,9.0544405,3.8333018,3
15974816909109,-0.24885355,9.020942,3.737589,3
15974819288224,-0.16271193,8.992228,3.7471602,3
15974821667338,-0.12921242,8.949157,3.790231,3
15974824046453,-0.15792629,8.944371,3.871587,3
15974826425568,-0.26799613,8.958728,3.8811584,3
15974828804682,-0.4211368,9.01137,3.7710886,3
15974831183849,-0.6125626,9.073584,3.641876,3
15974833562911,-0.8135597,9.102298,3.5700915,3
15974835942026,-0.9762716,9.131011,3.6275191,3
15974838321141,-1.1102697,9.111869,3.7136607,3
15974840700307,-1.2011969,9.159725,3.7471602,3
15974843079370,-1.2586247,9.183653,3.7328033,3
15974845458536,-1.2155539,9.159725,3.6370904,3
15974847837651,-1.1676974,9.164511,3.574877,3
15974850216766,-1.052842,9.145369,3.5557344,3
15974852595828,-0.9284152,9.145369,3.5988052,3
15974854974995,-0.7704889,9.126225,3.6179478,3
15974857354109,-0.6364908,9.116654,3.641876,3
15974859733172,-0.51206404,9.092726,3.6514473,3
15974862112338,-0.4354937,9.030513,3.641876,3
15974864491453,-0.36370903,9.025727,3.6275191,3
15974866870568,-0.34456646,9.040084,3.6227336,3
15974869249682,-0.35413775,9.025727,3.6610186,3
15974871628797,-0.40677986,9.030513,3.7184465,3
15974874007911,-0.47856453,9.040084,3.804588,3
15974876387026,-0.55034924,9.016156,3.900301,3
15974878766141,-0.6029913,9.006584,3.9720855,3
15974881145255,-0.7369894,9.040084,3.9816568,3
15974883524370,-0.82313097,9.08794,3.9242291,3
15974885903484,-0.89491564,9.12144,3.8380876,3
15974888282599,-0.94755775,9.169296,3.8093736,3
15974890661713,-0.971486,9.178867,3.8763726,3
15974893040828,-0.94755775,9.169296,3.9433718,3
15974895419943,-0.8709874,9.164511,3.9864426,3
15974897799057,-0.81834537,9.159725,3.9481573,3
15974900178172,-0.7178468,9.174082,3.8333018,3
15974902557286,-0.6412765,9.188439,3.7471602,3
15974904936401,-0.5599205,9.140582,3.694518,3
15974907315516,-0.47856453,9.140582,3.7471602,3
15974909694630,-0.44985065,9.12144,3.8285162,3
15974912073745,-0.41635114,9.102298,3.8572302,3
15974914452859,-0.4354937,9.083155,3.8380876,3
15974916831974,-0.45942193,9.073584,3.723232,3
15974919211088,-0.52163535,9.08794,3.656233,3
15974921590203,-0.59342,9.035298,3.6466618,3
15974923969318,-0.66999036,9.001799,3.7184465,3
15974926348432,-0.7752745,9.016156,3.7806597,3
15974928727547,-0.8709874,9.035298,3.7950168,3
15974931106661,-0.94277215,9.044869,3.723232,3
15974933485776,-1.0289137,9.126225,3.6849468,3
15974935864891,-1.0719845,9.116654,3.6227336,3
15974938244005,-1.0767702,9.12144,3.6227336,3
15974940623120,-1.0289137,9.164511,3.6083765,3
15974943002234,-0.9810573,9.150154,3.641876,3
15974945381349,-0.91405827,9.111869,3.694518,3
15974947760463,-0.8135597,9.111869,3.7136607,3
15974950139578,-0.71306115,9.107083,3.6849468,3
15974952518693,-0.60777694,9.08794,3.6753755,3
15974954897807,-0.4977071,9.064013,3.7280176,3
15974957276922,-0.44027936,9.0544405,3.8237305,3
15974959655984,-0.3589234,9.0544405,3.8763726,3
15974962035151,-0.33499518,9.035298,3.8668015,3
15974964414213,-0.3493521,8.9826565,3.8620157,3
15974966793380,-0.3924229,8.977871,3.8572302,3
15974969172495,-0.51206404,9.01137,3.8285162,3
15974971551609,-0.6412765,9.020942,3.7663028,3
15974973930724,-0.7513463,9.020942,3.751946,3
15974976309838,-0.8470592,9.01137,3.8285162,3
15974978688953,-0.9810573,8.9826565,3.938586,3
15974981068068,-1.0767702,9.01137,4.0534415,3
15974983447182,-1.119841,9.030513,4.058227,3
15974985826297,-1.119841,9.040084,3.9768713,3
15974988205411,-1.1246266,9.068798,3.8763726,3
15974990584578,-1.0576276,9.083155,3.8285162,3
15974992963693,-0.95712906,9.08794,3.842873,3
15974995342807,-0.8662018,9.111869,3.9050865,3
15974997721870,-0.7752745,9.159725,3.9290147,3
15975000100984,-0.67477596,9.183653,3.8333018,3
15975002480151,-0.5838487,9.217153,3.6897326,3
15975004859266,-0.5168497,9.212367,3.5940197,3
15975007238380,-0.4977071,9.164511,3.6466618,3
15975009617495,-0.4881358,9.131011,3.7758741,3
15975011996609,-0.51206404,9.107083,3.8763726,3
15975014375724,-0.5694918,9.111869,3.900301,3
15975016754838,-0.6891329,9.092726,3.8093736,3
15975019133953,-0.79920274,9.08794,3.6466618,3
15975021513068,-0.9523434,9.068798,3.5653057,3
15975023892182,-1.1150553,9.006584,3.5988052,3
15975026271297,-1.2634103,9.001799,3.723232,3
15975028650359,-1.3878372,9.016156,3.7710886,3
15975031029526,-1.4691931,9.0544405,3.6370904,3
15975033408641,-1.5074782,9.092726,3.4983068,3
15975035787755,-1.5314065,9.040084,3.455236,3
15975038166870,-1.4739788,9.016156,3.5892339,3
15975040545984,-1.4356936,9.025727,3.7280176,3
15975042925099,-1.3447664,9.08794,3.7998023,3
15975045304213,-1.2299109,9.131011,3.7136607,3
15975047683328,-1.0959128,9.164511,3.5557344,3
15975050062443,-0.95712906,9.2075815,3.4169507,3
15975052441557,-0.8470592,9.202796,3.4456646,3
15975054820672,-0.7465607,9.15494,3.5892339,3
15975057199734,-0.6843473,9.150154,3.7710886,3
15975059578901,-0.66041905,9.145369,3.804588,3
15975061958016,-0.6891329,9.116654,3.7758741,3
15975064337130,-0.7082755,9.097511,3.7280176,3
15975066716245,-0.7848458,9.092726,3.751946,3
15975069095359,-0.8805587,9.083155,3.8333018,3
15975071474474,-0.9523434,9.102298,3.8907297,3
15975073853588,-1.0576276,9.116654,3.8907297,3
15975076232703,-1.1246266,9.107083,3.8955152,3
15975078611818,-1.2107682,9.064013,3.8907297,3
15975080990932,-1.2873386,9.040084,3.9194436,3
15975083370047,-1.2873386,9.0544405,3.9577286,3
15975085749161,-1.282553,9.016156,4.0103707,3
15975088128276,-1.2155539,9.006584,4.0773697,3
15975090507391,-1.134198,9.068798,4.072584,3
15975092886505,-1.0193424,9.097511,3.9864426,3
15975095265620,-0.9284152,9.116654,3.871587,3
15975097644734,-0.7800602,9.131011,3.7806597,3
15975100023849,-0.63170516,9.135797,3.7806597,3
15975102402963,-0.4881358,9.08794,3.8476589,3
15975104782078,-0.38285163,9.049655,3.9290147,3
15975107161193,-0.28713873,9.073584,3.8811584,3
15975109540307,-0.23928227,9.131011,3.6897326,3
15975111919422,-0.22013968,9.150154,3.507878,3
15975114298536,-0.2440679,9.116654,3.5270207,3
15975116677651,-0.28235307,9.083155,3.790231,3
15975119056766,-0.37328035,9.068798,3.9816568,3
15975121435880,-0.45942193,9.111869,3.9146578,3
15975123814995,-0.57427746,9.135797,3.7663028,3
15975126194109,-0.66999036,9.107083,3.6370904,3
15975128573224,-0.7322037,9.150154,3.5365918,3
15975130952338,-0.81834537,9.23151,3.574877,3
15975133331453,-0.8709874,9.135797,3.7328033,3
15975135710568,-0.90448695,9.08794,3.8668015,3
15975138089682,-0.9523434,9.15494,3.8907297,3
15975140468797,-0.91884387,9.126225,3.7998023,3
15975142847911,-0.8566305,9.102298,3.641876,3
15975145227026,-0.8135597,9.19801,3.4839497,3
15975147606141,-0.74177504,9.23151,3.4313076,3
15975149985255,-0.6269195,9.159725,3.5700915,3
15975152364370,-0.5455636,9.102298,3.6993039,3
15975154743484,-0.47377887,9.15494,3.7950168,3
15975157122599,-0.42592242,9.107083,3.7663028,3
15975159501713,-0.35413775,9.044869,3.7040894,3
15975161880828,-0.3493521,9.092726,3.6466618,3
15975164259943,-0.3589234,9.150154,3.6514473,3
15975166639057,-0.4019942,9.135797,3.7471602,3
15975169018172,-0.46899325,9.107083,3.818945,3
15975171397286,-0.5694918,9.126225,3.8811584,3
15975173776401,-0.66999036,9.145369,3.8811584,3
15975176155516,-0.7513463,9.102298,3.7854455,3
15975178534630,-0.8662018,9.169296,3.656233,3
15975180913745,-0.91405827,9.164511,3.656233,3
15975183292859,-0.9906286,9.126225,3.7710886,3
15975185671974,-1.0097711,9.116654,3.938586,3
15975188051088,-0.9762716,9.131011,4.0295134,3
15975190430203,-0.9284152,9.111869,3.9720855,3
15975192809318,-0.8662018,9.140582,3.8380876,3
15975195188432,-0.76570326,9.140582,3.723232,3
15975197567547,-0.6843473,9.111869,3.7088752,3
15975199946661,-0.5838487,9.126225,3.818945,3
15975202325776,-0.5072784,9.111869,3.938586,3
15975204704891,-0.45942193,9.068798,3.9433718,3
15975207084005,-0.44985065,9.064013,3.8620157,3
15975209463120,-0.44027936,9.078369,3.7758741,3
15975211842234,-0.47377887,9.078369,3.7040894,3
15975214221349,-0.526421,9.068798,3.694518,3
15975216600463,-0.57906306,9.044869,3.7854455,3
15975218979578,-0.65084773,9.044869,3.8572302,3
15975221358693,-0.7513463,9.078369,3.8620157,3
15975223737807,-0.8279166,9.078369,3.8285162,3
15975226116922,-0.89491564,9.107083,3.7758741,3
15975228495984,-0.9379865,9.131011,3.737589,3
15975230875151,-0.971486,9.15494,3.737589,3
15975233254266,-0.9762716,9.150154,3.7663028,3
15975235633380,-0.971486,9.169296,3.8093736,3
15975238012495,-0.9379865,9.164511,3.8333018,3
15975240391609,-0.8709874,9.145369,3.8237305,3
15975242770724,-0.79441714,9.159725,3.751946,3
15975245149838,-0.6843473,9.193225,3.67059,3
15975247528953,-0.6029913,9.19801,3.641876,3
15975249908068,-0.49292147,9.19801,3.6610186,3
15975252287182,-0.43070808,9.202796,3.7136607,3
15975254666297,-0.34456646,9.221938,3.67059,3
15975257045411,-0.3062813,9.102298,3.4648073,3
15975259424526,-0.28713873,9.040084,3.4456646,3
15975261803641,-0.28713873,8.997013,3.67059,3
15975264182755,-0.30149564,9.064013,3.8955152,3
15975266561870,-0.4211368,9.135797,3.8620157,3
15975268940984,-0.44027936,9.08794,3.6658044,3
15975271320099,-0.526421,9.12144,3.4695928,3
15975273699161,-0.6125626,9.202796,3.4695928,3
15975276078328,-0.6891329,9.188439,3.5940197,3
15975278457495,-0.6987042,9.102298,3.751946,3
15975280836609,-0.79441714,9.092726,3.7998023,3
15975283215672,-0.83748794,9.145369,3.7088752,3
15975285594786,-0.7896315,9.164511,3.5030923,3
15975287973901,-0.75613195,9.217153,3.3499517,3
15975290353068,-0.71306115,9.221938,3.3882368,3
15975292732130,-0.6556334,9.169296,3.546163,3
15975295111245,-0.56470615,9.131011,3.7471602,3
15975297490359,-0.4881358,9.12144,3.818945,3
15975299869474,-0.4354937,9.107083,3.7806597,3
15975302248588,-0.37806597,9.083155,3.6370904,3
15975304627755,-0.37328035,9.08794,3.5700915,3
15975307006818,-0.37328035,9.064013,3.6179478,3
15975309385984,-0.4354937,9.059227,3.7710886,3
15975311765047,-0.51206404,9.040084,3.9098723,3
15975314144213,-0.5982057,9.044869,3.9720855,3
15975316523276,-0.66041905,9.030513,3.8907297,3
15975318902443,-0.7848458,9.0544405,3.7710886,3
15975321281557,-0.8662018,9.107083,3.6658044,3
15975323660672,-0.93320084,9.102298,3.6897326,3
15975326039786,-1.0145568,9.107083,3.8093736,3
15975328418901,-1.0719845,9.107083,3.938586,3
15975330797963,-1.105484,9.116654,3.9864426,3
15975333177078,-1.0671989,9.12144,3.938586,3
15975335556193,-1.0241281,9.15494,3.842873,3
15975337935359,-0.971486,9.150154,3.7758741,3
15975340314474,-0.8566305,9.164511,3.7710886,3
15975342693588,-0.7609176,9.126225,3.804588,3
15975345072703,-0.6652047,9.145369,3.8763726,3
15975347451818,-0.6125626,9.145369,3.9050865,3
15975349830932,-0.5312066,9.131011,3.8524444,3
15975352210047,-0.4881358,9.111869,3.751946,3
15975354589161,-0.46899325,9.097511,3.6849468,3
15975356968276,-0.45942193,9.092726,3.6514473,3
15975359347391,-0.46899325,9.064013,3.7184465,3
15975361726505,-0.4881358,9.025727,3.7806597,3
15975364105568,-0.55034924,9.020942,3.7998023,3
15975366484734,-0.6364908,9.035298,3.7663028,3
15975368863849,-0.6987042,9.059227,3.7136607,3
15975371242963,-0.7800602,9.049655,3.6323047,3
15975373622078,-0.81834537,9.0544405,3.5892339,3
15975376001141,-0.8327023,9.083155,3.5892339,3
15975378380307,-0.83748794,9.097511,3.6514473,3
15975380759370,-0.83748794,9.092726,3.6801612,3
15975383138536,-0.79920274,9.073584,3.6993039,3
15975385517599,-0.7704889,9.08794,3.694518,3
15975387896713,-0.71306115,9.092726,3.6658044,3
15975390275880,-0.61734825,9.083155,3.6514473,3
15975392654995,-0.5312066,9.064013,3.67059,3
15975395034109,-0.42592242,9.059227,3.7088752,3
15975397413172,-0.34456646,9.049655,3.751946,3
15975399792338,-0.2727818,9.0544405,3.7471602,3
15975402171453,-0.2009971,9.083155,3.7136607,3
15975404550568,-0.19621146,9.08794,3.6801612,3
15975406929682,-0.22013968,9.116654,3.6753755,3
15975409308797,-0.24885355,9.135797,3.6993039,3
15975411687911,-0.29671,9.140582,3.7471602,3
15975414066974,-0.3589234,9.131011,3.7806597,3
15975416446141,-0.4354937,9.150154,3.8093736,3
15975418825203,-0.5168497,9.126225,3.8333018,3
15975421204370,-0.60777694,9.140582,3.8572302,3
15975423583432,-0.6939186,9.135797,3.8620157,3
15975425962599,-0.7704889,9.145369,3.871587,3
15975428341713,-0.80877405,9.150154,3.8811584,3
15975430720776,-0.8662018,9.135797,3.9050865,3
15975433099943,-0.89491564,9.131011,3.9146578,3
15975435479057,-0.8805587,9.135797,3.9194436,3
15975437858120,-0.8470592,9.107083,3.9146578,3
15975440237234,-0.8470592,9.092726,3.9050865,3
15975442616401,-0.83748794,9.08794,3.8811584,3
15975444995516,-0.8327023,9.102298,3.8763726,3
15975447374578,-0.7800602,9.107083,3.8955152,3
15975449753693,-0.7465607,9.092726,3.8907297,3
15975452132859,-0.6987042,9.097511,3.8668015,3
15975454511974,-0.67477596,9.097511,3.871587,3
15975456891036,-0.6556334,9.097511,3.8476589,3
15975459270151,-0.6269195,9.102298,3.8141594,3
15975461649266,-0.6269195,9.111869,3.8141594,3
15975464028380,-0.60777694,9.107083,3.790231,3
15975466407443,-0.6029913,9.12144,3.790231,3
15975468786661,-0.6029913,9.126225,3.7663028,3
15975471165724,-0.6029913,9.15494,3.751946,3
15975473544891,-0.5982057,9.15494,3.7136607,3
15975475923953,-0.57906306,9.15494,3.7040894,3
15975478303068,-0.59342,9.135797,3.6993039,3
15975480682182,-0.57906306,9.135797,3.7040894,3
15975483061349,-0.57906306,9.126225,3.723232,3
15975485440411,-0.55513483,9.12144,3.7136607,3
15975487819526,-0.56470615,9.092726,3.694518,3
15975490198641,-0.55513483,9.078369,3.7136607,3
15975492577755,-0.5455636,9.078369,3.723232,3
15975494956870,-0.5312066,9.064013,3.737589,3
15975497335984,-0.526421,9.078369,3.7328033,3
15975499715099,-0.526421,9.073584,3.7471602,3
15975502094213,-0.52163535,9.068798,3.751946,3
15975504473328,-0.526421,9.073584,3.737589,3
15975506852443,-0.5024927,9.083155,3.751946,3
15975509231557,-0.49292147,9.059227,3.7423747,3
15975511610672,-0.5072784,9.068798,3.7423747,3
15975513989734,-0.5072784,9.068798,3.723232,3
15975516368901,-0.4881358,9.068798,3.737589,3
15975518748016,-0.4881358,9.092726,3.7423747,3
15975521127130,-0.46899325,9.097511,3.7471602,3
15975523506245,-0.47856453,9.073584,3.7328033,3
15975525885359,-0.44027936,9.107083,3.7567315,3
15975528264474,-0.44027936,9.111869,3.7615173,3
15975530643588,-0.43070808,9.102298,3.7758741,3
15975533022703,-0.39720857,9.083155,3.7663028,3
15975535401818,-0.40677986,9.083155,3.7423747,3
15975537780932,-0.3924229,9.097511,3.7423747,3
15975540160047,-0.39720857,9.083155,3.7423747,3
15975542539161,-0.38763726,9.068798,3.7280176,3
15975544918276,-0.38763726,9.083155,3.7280176,3
15975547297391,-0.3924229,9.08794,3.737589,3
15975549676505,-0.40677986,9.078369,3.7184465,3
15975552055620,-0.4211368,9.08794,3.7184465,3
15975554434734,-0.47377887,9.08794,3.723232,3
15975556813849,-0.5024927,9.092726,3.7471602,3
15975559192963,-0.55034924,9.08794,3.7615173,3
15975561572078,-0.5838487,9.102298,3.7758741,3
15975563951193,-0.6221339,9.111869,3.7806597,3
15975566330307,-0.66999036,9.092726,3.7854455,3
15975568709422,-0.6939186,9.073584,3.804588,3
15975571088536,-0.71306115,9.068798,3.7998023,3
15975573467651,-0.7369894,9.08794,3.790231,3
15975575846766,-0.72263247,9.116654,3.804588,3
15975578225880,-0.7465607,9.102298,3.7998023,3
15975580604995,-0.7369894,9.097511,3.7950168,3
15975582984109,-0.7322037,9.097511,3.790231,3
15975585363224,-0.7322037,9.107083,3.804588,3
15975587742338,-0.72263247,9.116654,3.8093736,3
15975590121453,-0.7082755,9.12144,3.804588,3
15975592500568,-0.67477596,9.116654,3.804588,3
15975594879682,-0.66041905,9.140582,3.7854455,3
15975597258797,-0.65084773,9.140582,3.7710886,3
15975599637911,-0.6269195,9.15494,3.7806597,3
15975602017026,-0.6221339,9.145369,3.7710886,3
15975604396141,-0.6125626,9.174082,3.804588,3
15975606775255,-0.60777694,9.183653,3.790231,3
15975609154370,-0.6029913,9.193225,3.7806597,3
15975611533484,-0.6221339,9.159725,3.8141594,3
15975613912599,-0.64606214,9.159725,3.818945,3
15975616291713,-0.6556334,9.131011,3.818945,3
15975618670828,-0.6652047,9.150154,3.7998023,3
15975621049943,-0.66999036,9.145369,3.790231,3
15975623429057,-0.6795616,9.169296,3.7950168,3
15975625808172,-0.70348984,9.135797,3.7854455,3
15975628187286,-0.6843473,9.111869,3.7854455,3
15975630566349,-0.66041905,9.111869,3.804588,3
15975632945516,-0.67477596,9.107083,3.7950168,3
15975635324630,-0.67477596,9.097511,3.790231,3
15975637703745,-0.65084773,9.097511,3.790231,3
15975640082859,-0.6269195,9.107083,3.7806597,3
15975642461974,-0.5982057,9.097511,3.7663028,3
15975644841088,-0.59342,9.092726,3.737589,3
15975647220203,-0.5694918,9.102298,3.7280176,3
15975649599318,-0.5455636,9.111869,3.7136607,3
15975651978432,-0.55034924,9.111869,3.723232,3
15975654357547,-0.526421,9.116654,3.7136607,3
15975656736661,-0.4833502,9.111869,3.6993039,3
15975659115776,-0.4881358,9.068798,3.6897326,3
15975661494891,-0.47856453,9.073584,3.6658044,3
15975663874005,-0.4881358,9.102298,3.6610186,3
15975666253068,-0.46899325,9.08794,3.6658044,3
15975668632234,-0.44506502,9.083155,3.6658044,3
15975671011349,-0.4211368,9.102298,3.656233,3
15975673390411,-0.4019942,9.078369,3.6514473,3
15975675769578,-0.38763726,9.092726,3.6610186,3
15975678148641,-0.38285163,9.097511,3.6323047,3
15975680527807,-0.3589234,9.12144,3.6227336,3
15975682906922,-0.31106696,9.116654,3.6370904,3
15975685286036,-0.29192436,9.111869,3.6466618,3
15975687665151,-0.28235307,9.107083,3.6370904,3
15975690044266,-0.2632105,9.12144,3.6610186,3
15975692423380,-0.24885355,9.12144,3.656233,3
15975694802495,-0.26799613,9.107083,3.67059,3
15975697181609,-0.27756742,9.102298,3.67059,3
15975699560724,-0.28713873,9.111869,3.6753755,3
15975701939838,-0.32542387,9.107083,3.694518,3
15975704318953,-0.34456646,9.135797,3.6993039,3
15975706698068,-0.38763726,9.131011,3.7184465,3
15975709077182,-0.41156548,9.126225,3.723232,3
15975711456297,-0.44027936,9.116654,3.7328033,3
15975713835411,-0.4642076,9.126225,3.7328033,3
15975716214526,-0.4881358,9.116654,3.751946,3
15975718593641,-0.5407779,9.111869,3.7806597,3
15975720972755,-0.5599205,9.102298,3.7998023,3
15975723351870,-0.5886344,9.111869,3.8141594,3
15975725730984,-0.6125626,9.102298,3.8093736,3
15975728110099,-0.60777694,9.08794,3.8141594,3
15975730489213,-0.6029913,9.08794,3.8237305,3
15975732868328,-0.5886344,9.111869,3.8380876,3
15975735247443,-0.57906306,9.092726,3.8333018,3
15975737626557,-0.56470615,9.092726,3.8333018,3
15975740005672,-0.5455636,9.08794,3.8380876,3
15975742384734,-0.53599226,9.064013,3.8333018,3
15975744763901,-0.55034924,9.068798,3.8476589,3
15975747143016,-0.53599226,9.068798,3.8333018,3
15975749522130,-0.5407779,9.059227,3.8285162,3
15975751901245,-0.53599226,9.068798,3.8141594,3
15975754280359,-0.52163535,9.083155,3.8093736,3
15975756659474,-0.53599226,9.073584,3.804588,3
15975759038588,-0.5455636,9.083155,3.7998023,3
15975761417703,-0.55513483,9.073584,3.790231,3
15975763796766,-0.5599205,9.059227,3.7950168,3
15975766175880,-0.55034924,9.0544405,3.790231,3
15975768554995,-0.55034924,9.049655,3.7854455,3
15975770934161,-0.526421,9.078369,3.7615173,3
15975773313224,-0.5312066,9.059227,3.737589,3
15975775692338,-0.5455636,9.059227,3.7136607,3
15975778071453,-0.5312066,9.073584,3.7088752,3
15975780450568,-0.51206404,9.073584,3.7136607,3
15975782829630,-0.5024927,9.078369,3.7136607,3
15975785208797,-0.47856453,9.102298,3.6993039,3
15975787587911,-0.45942193,9.131011,3.6801612,3
15975789967026,-0.42592242,9.116654,3.6658044,3
15975792346141,-0.41156548,9.111869,3.6658044,3
15975794725255,-0.39720857,9.107083,3.6610186,3
15975797104370,-0.39720857,9.107083,3.6801612,3
15975799483484,-0.39720857,9.107083,3.6993039,3
15975801862599,-0.38285163,9.083155,3.7040894,3
15975804241713,-0.37328035,9.078369,3.6993039,3
15975806620828,-0.36370903,9.068798,3.7040894,3
15975808999943,-0.3589234,9.0544405,3.7088752,3
15975811379057,-0.3589234,9.064013,3.6993039,3
15975813758120,-0.36370903,9.064013,3.7136607,3
15975816137286,-0.3589234,9.059227,3.7040894,3
15975818516401,-0.36370903,9.040084,3.7280176,3
15975820895516,-0.32063824,9.020942,3.723232,3
15975823274630,-0.28235307,9.064013,3.7423747,3
15975825653745,-0.26799613,9.040084,3.7184465,3
15975828032859,-0.2440679,9.016156,3.7184465,3
15975830411974,-0.22971097,9.001799,3.7184465,3
15975832791088,-0.22492532,8.992228,3.7088752,3
15975835170203,-0.19621146,8.992228,3.7136607,3
15975837549318,-0.18664017,9.001799,3.7136607,3
15975839928432,-0.18185452,9.016156,3.7136607,3
15975842307547,-0.20578274,9.020942,3.6993039,3
15975844686661,-0.21535404,9.016156,3.7088752,3
15975847065776,-0.2105684,9.016156,3.6993039,3
15975849444891,-0.23449662,9.030513,3.723232,3
15975851824005,-0.2440679,9.030513,3.7471602,3
15975854203120,-0.2440679,9.049655,3.7328033,3
15975856582234,-0.25842485,9.059227,3.7328033,3
15975858961349,-0.23928227,9.107083,3.737589,3
15975861340463,-0.2440679,9.131011,3.7471602,3
15975863719578,-0.22013968,9.150154,3.7758741,3
15975866098693,-0.17706887,9.174082,3.7758741,3
15975868477807,-0.16749759,9.2075815,3.7758741,3
15975870856922,-0.16271193,9.221938,3.7758741,3
15975873236036,-0.13399807,9.221938,3.7567315,3
15975875615151,-0.11485548,9.245867,3.7663028,3
15975877994266,-0.12921242,9.2793665,3.7567315,3
15975880373328,-0.1052842,9.312865,3.7758741,3
15975882752495,-0.124426775,9.327223,3.7998023,3
15975885131609,-0.148355,9.327223,3.8333018,3
15975887510724,-0.16749759,9.2793665,3.8524444,3
15975889889838,-0.2009971,9.298509,3.871587,3
15975892268901,-0.22013968,9.293723,3.871587,3
15975894648068,-0.28713873,9.30808,3.8524444,3
15975897027182,-0.3397808,9.30808,3.8572302,3
15975899406297,-0.3684947,9.298509,3.885944,3
15975901785359,-0.42592242,9.303294,3.885944,3
15975904164526,-0.46899325,9.322437,3.8907297,3
15975906543641,-0.52163535,9.312865,3.8668015,3
15975908922755,-0.5407779,9.303294,3.8237305,3
15975911301870,-0.5312066,9.312865,3.7998023,3
15975913680984,-0.51206404,9.317652,3.7854455,3
15975916060099,-0.5024927,9.30808,3.7710886,3
15975918439213,-0.4833502,9.312865,3.7615173,3
15975920818328,-0.4354937,9.269794,3.7471602,3
15975923197443,-0.42592242,9.265009,3.7136607,3
15975925576557,-0.3924229,9.255438,3.6849468,3
15975927955672,-0.3589234,9.284152,3.6658044,3
15975930334786,-0.3397808,9.2793665,3.6466618,3
15975932713901,-0.31106696,9.2793665,3.6370904,3
15975935093016,-0.2727818,9.265009,3.6323047,3
15975937472130,-0.3062813,9.250652,3.6275191,3
15975939851193,-0.32063824,9.255438,3.6227336,3
15975942230359,-0.37806597,9.236296,3.6179478,3
15975944609474,-0.4354937,9.250652,3.6227336,3
15975946988536,-0.47377887,9.255438,3.641876,3
15975949367651,-0.5024927,9.269794,3.6514473,3
15975951746766,-0.5168497,9.293723,3.6466618,3
15975954125880,-0.5599205,9.298509,3.6897326,3
15975956504995,-0.57427746,9.303294,3.7040894,3
15975958884109,-0.5886344,9.336794,3.7136607,3
15975961263224,-0.55513483,9.336794,3.7184465,3
15975963642338,-0.55034924,9.332008,3.7184465,3
15975966021453,-0.5024927,9.298509,3.7328033,3
15975968400516,-0.47856453,9.250652,3.7423747,3
15975970779630,-0.45942193,9.202796,3.7710886,3
15975973158797,-0.41156548,9.145369,3.7663028,3
15975975537911,-0.3589234,9.111869,3.790231,3
15975977917026,-0.31106696,9.068798,3.8093736,3
15975980296141,-0.2727818,8.992228,3.8285162,3
15975982675255,-0.23928227,8.958728,3.8763726,3
15975985054370,-0.2536392,8.9108715,3.8955152,3
15975987433484,-0.28713873,8.891729,3.9050865,3
15975989812599,-0.34456646,8.886943,3.9290147,3
15975992191713,-0.4019942,8.906086,3.9194436,3
15975994570828,-0.4881358,8.958728,3.9481573,3
15975996949943,-0.55034924,8.992228,3.9338005,3
15975999329057,-0.61734825,9.025727,3.9242291,3
15976001708172,-0.70348984,9.068798,3.9098723,3
15976004087286,-0.7896315,9.107083,3.900301,3
15976006466401,-0.8279166,9.116654,3.8811584,3
15976008845516,-0.86141616,9.131011,3.8524444,3
15976011224630,-0.8566305,9.135797,3.8380876,3
15976013603745,-0.86141616,9.145369,3.8237305,3
15976015982859,-0.85184485,9.140582,3.8237305,3
15976018361974,-0.80877405,9.111869,3.8141594,3
15976020741088,-0.75613195,9.097511,3.790231,3
15976023120203,-0.6939186,9.083155,3.7710886,3
15976025499318,-0.6412765,9.049655,3.7328033,3
15976027878432,-0.6221339,9.040084,3.6849468,3
15976030257547,-0.5886344,9.030513,3.6658044,3
15976032636661,-0.5886344,9.025727,3.6610186,3
15976035015776,-0.61734825,9.020942,3.6131623,3
15976037394891,-0.64606214,9.044869,3.5988052,3
15976039774005,-0.7082755,9.049655,3.5844483,3
15976042153120,-0.7513463,9.073584,3.5700915,3
15976044532234,-0.7800602,9.08794,3.5653057,3
15976046911349,-0.85184485,9.107083,3.5605202,3
15976049290463,-0.8662018,9.097511,3.5557344,3
15976051669578,-0.89013004,9.131011,3.5653057,3
15976054048693,-0.9523434,9.126225,3.5557344,3
15976056427807,-0.91884387,9.126225,3.5557344,3
15976058806922,-0.8997013,9.140582,3.5700915,3
15976061186036,-0.8662018,9.12144,3.5605202,3
15976063565151,-0.83748794,9.140582,3.574877,3
15976065944266,-0.7896315,9.126225,3.6083765,3
15976068323380,-0.72263247,9.107083,3.6179478,3
15976070702443,-0.6556334,9.102298,3.6370904,3
15976073081609,-0.57427746,9.078369,3.6801612,3
15976075460724,-0.5072784,9.073584,3.6993039,3
15976077839838,-0.4546363,9.068798,3.7088752,3
15976080218953,-0.42592242,9.068798,3.7136607,3
15976082598068,-0.3924229,9.0544405,3.7328033,3
15976084977182,-0.38763726,9.059227,3.7280176,3
15976087356297,-0.38763726,9.059227,3.7471602,3
15976089735359,-0.4211368,9.064013,3.7758741,3
15976092114474,-0.4546363,9.059227,3.7950168,3
15976094493588,-0.5024927,9.092726,3.8333018,3
15976096872703,-0.526421,9.08794,3.8524444,3
15976099251818,-0.5407779,9.116654,3.8668015,3
15976101630932,-0.5599205,9.111869,3.8811584,3
15976104010047,-0.5838487,9.107083,3.885944,3
15976106389161,-0.5982057,9.107083,3.8907297,3
15976108768276,-0.5838487,9.107083,3.8811584,3
15976111147391,-0.55513483,9.102298,3.8763726,3
15976113526505,-0.5455636,9.107083,3.842873,3
15976115905620,-0.5024927,9.116654,3.8380876,3
15976118284734,-0.45942193,9.135797,3.842873,3
15976120663849,-0.44506502,9.131011,3.804588,3
15976123042963,-0.43070808,9.145369,3.7950168,3
15976125422078,-0.40677986,9.145369,3.804588,3
15976127801193,-0.4211368,9.140582,3.7950168,3
15976130180255,-0.4546363,9.12144,3.751946,3
15976132559422,-0.4881358,9.097511,3.737589,3
15976134938536,-0.53599226,9.126225,3.7136607,3
15976137317651,-0.6029913,9.131011,3.694518,3
15976139696766,-0.66999036,9.116654,3.6849468,3
15976142075880,-0.7369894,9.107083,3.6801612,3
15976144454995,-0.83748794,9.083155,3.6849468,3
15976146834109,-0.91884387,9.078369,3.694518,3
15976149213224,-0.9762716,9.083155,3.6753755,3
15976151592338,-1.0001999,9.073584,3.6610186,3
15976153971453,-1.0432707,9.083155,3.641876,3
15976156350568,-1.0432707,9.097511,3.6323047,3
15976158729682,-1.0336994,9.078369,3.6323047,3
15976161108797,-0.9954142,9.073584,3.6275191,3
15976163487911,-0.95712906,9.083155,3.6370904,3
15976165867026,-0.89491564,9.078369,3.6323047,3
15976168246141,-0.8327023,9.0544405,3.6370904,3
15976170625255,-0.75613195,9.049655,3.6610186,3
15976173004370,-0.6939186,9.035298,3.6610186,3
15976175383484,-0.66041905,9.044869,3.6849468,3
15976177762599,-0.60777694,9.030513,3.7088752,3
15976180141713,-0.5599205,9.025727,3.7471602,3
15976182520828,-0.55034924,9.020942,3.7615173,3
15976184899943,-0.53599226,9.020942,3.751946,3
15976187279057,-0.55513483,9.016156,3.7758741,3
15976189658172,-0.5886344,9.030513,3.7950168,3
15976192037286,-0.61734825,9.006584,3.8093736,3
15976194416401,-0.66041905,9.016156,3.8380876,3
15976196795516,-0.6891329,9.016156,3.8476589,3
15976199174630,-0.7369894,8.987442,3.8380876,3
15976201553745,-0.7513463,9.001799,3.8333018,3
15976203932807,-0.7513463,9.001799,3.8476589,3
15976206311974,-0.7465607,9.01137,3.8668015,3
15976208691036,-0.72741807,9.025727,3.8620157,3
15976211070151,-0.7369894,9.040084,3.871587,3
15976213449266,-0.6891329,9.044869,3.871587,3
15976215828380,-0.6652047,9.035298,3.8763726,3
15976218207495,-0.64606214,9.068798,3.8524444,3
15976220586609,-0.6269195,9.083155,3.8237305,3
15976222965724,-0.56470615,9.131011,3.7998023,3
15976225344838,-0.5407779,9.145369,3.8237305,3
15976227723953,-0.5407779,9.159725,3.7998023,3
15976230103068,-0.5455636,9.159725,3.7998023,3
15976232482182,-0.5694918,9.183653,3.7998023,3
15976234861297,-0.56470615,9.2075815,3.8093736,3
15976237240411,-0.5982057,9.2075815,3.7854455,3
15976239619526,-0.6412765,9.217153,3.7758741,3
15976241998641,-0.6364908,9.2075815,3.7806597,3
15976244377755,-0.6987042,9.212367,3.790231,3
15976246756870,-0.7178468,9.202796,3.7806597,3
15976249135984,-0.7465607,9.202796,3.7615173,3
15976251515099,-0.72741807,9.19801,3.7663028,3
15976253894213,-0.72741807,9.202796,3.7567315,3
15976256273328,-0.72263247,9.188439,3.7615173,3
15976258652443,-0.71306115,9.2075815,3.7567315,3
15976261031557,-0.67477596,9.178867,3.7423747,3
15976263410672,-0.63170516,9.169296,3.7615173,3
15976265789734,-0.60777694,9.159725,3.751946,3
15976268168901,-0.5407779,9.145369,3.7710886,3
15976270548016,-0.5168497,9.131011,3.7710886,3
15976272927130,-0.4881358,9.140582,3.7758741,3
15976275306245,-0.44027936,9.126225,3.7854455,3
15976277685359,-0.42592242,9.150154,3.7950168,3
15976280064474,-0.38763726,9.145369,3.804588,3
15976282443588,-0.35413775,9.111869,3.7854455,3
15976284822703,-0.37328035,9.12144,3.790231,3
15976287201818,-0.37806597,9.097511,3.804588,3
15976289580932,-0.3684947,9.107083,3.7950168,3
15976291960047,-0.3924229,9.116654,3.7998023,3
15976294339109,-0.4211368,9.08794,3.8237305,3
15976296718276,-0.4211368,9.078369,3.818945,3
15976299097391,-0.44027936,9.097511,3.818945,3
15976301476505,-0.4546363,9.097511,3.790231,3
15976303855620,-0.4211368,9.102298,3.7950168,3
15976306234734,-0.42592242,9.078369,3.7806597,3
15976308613849,-0.41635114,9.068798,3.7950168,3
15976310992963,-0.4019942,9.059227,3.790231,3
15976313372026,-0.38763726,9.044869,3.7854455,3
15976315751193,-0.37806597,9.059227,3.7663028,3
15976318130255,-0.36370903,9.0544405,3.7663028,3
15976320509370,-0.35413775,9.059227,3.7471602,3
15976322888484,-0.37328035,9.040084,3.7328033,3
15976325267547,-0.38763726,9.044869,3.7280176,3
15976327646713,-0.40677986,9.044869,3.723232,3
15976330025828,-0.44506502,9.049655,3.7328033,3
15976332404943,-0.4881358,9.068798,3.723232,3
15976334784057,-0.4881358,9.078369,3.7184465,3
15976337163172,-0.52163535,9.059227,3.6993039,3
15976339542286,-0.56470615,9.059227,3.6897326,3
15976341921401,-0.57427746,9.064013,3.6801612,3
15976344300516,-0.6029913,9.068798,3.6801612,3
15976346679630,-0.63170516,9.083155,3.6993039,3
15976349058745,-0.6221339,9.073584,3.7184465,3
15976351437859,-0.6125626,9.08794,3.7184465,3
15976353816974,-0.6125626,9.097511,3.7184465,3
15976356196088,-0.5982057,9.083155,3.6993039,3
15976358575203,-0.6125626,9.068798,3.7184465,3
15976360954318,-0.61734825,9.073584,3.7136607,3
15976363333432,-0.5838487,9.111869,3.737589,3
15976365712547,-0.5407779,9.107083,3.7615173,3
15976368091661,-0.51206404,9.097511,3.7806597,3
15976370470776,-0.4977071,9.107083,3.790231,3
15976372849891,-0.5168497,9.107083,3.7806597,3
15976375229005,-0.51206404,9.107083,3.7854455,3
15976377608120,-0.5168497,9.078369,3.7854455,3
15976379987234,-0.526421,9.111869,3.7950168,3
15976382366349,-0.5407779,9.12144,3.804588,3
15976384745463,-0.5886344,9.102298,3.8285162,3
15976387124578,-0.5886344,9.12144,3.842873,3
15976389503693,-0.60777694,9.131011,3.8333018,3
15976391882807,-0.61734825,9.116654,3.8333018,3
15976394261922,-0.6412765,9.116654,3.8093736,3
15976396641036,-0.66041905,9.12144,3.818945,3
15976399020151,-0.66041905,9.140582,3.8237305,3
15976401399266,-0.6843473,9.135797,3.818945,3
15976403778380,-0.6987042,9.140582,3.8093736,3
15976406157495,-0.7082755,9.140582,3.7950168,3
15976408536609,-0.71306115,9.145369,3.7854455,3
15976410915724,-0.72263247,9.164511,3.7663028,3
15976413294786,-0.7082755,9.164511,3.751946,3
15976415673901,-0.7178468,9.169296,3.751946,3
15976418053016,-0.7465607,9.150154,3.7328033,3
15976420432130,-0.7082755,9.15494,3.7328033,3
15976422811245,-0.71306115,9.145369,3.723232,3
15976425190359,-0.6939186,9.15494,3.7184465,3
15976427569474,-0.7178468,9.159725,3.7184465,3
15976429948588,-0.70348984,9.15494,3.7088752,3
15976432327703,-0.72741807,9.159725,3.6801612,3
15976434706818,-0.72263247,9.150154,3.6849468,3
15976437085932,-0.71306115,9.131011,3.6849468,3
15976439465047,-0.7178468,9.131011,3.6897326,3
15976441844161,-0.72263247,9.135797,3.694518,3
15976444223276,-0.70348984,9.135797,3.6993039,3
15976446602391,-0.71306115,9.126225,3.7040894,3
15976448981505,-0.6795616,9.12144,3.694518,3
15976451360620,-0.6556334,9.131011,3.7040894,3
15976453739734,-0.64606214,9.116654,3.7280176,3
15976456118849,-0.6269195,9.102298,3.7423747,3
15976458497911,-0.61734825,9.102298,3.7328033,3
15976460877078,-0.6269195,9.126225,3.7328033,3
15976463256193,-0.61734825,9.102298,3.7423747,3
15976465635307,-0.5838487,9.116654,3.7615173,3
15976468014422,-0.6125626,9.126225,3.7710886,3
15976470393536,-0.63170516,9.131011,3.7710886,3
15976472772651,-0.65084773,9.126225,3.790231,3
15976475151766,-0.6556334,9.126225,3.8093736,3
15976477530880,-0.66041905,9.116654,3.8237305,3
15976479909943,-0.6795616,9.12144,3.8093736,3
15976482289109,-0.6891329,9.107083,3.8285162,3
15976484668224,-0.6795616,9.097511,3.8237305,3
15976487047338,-0.66999036,9.116654,3.8093736,3
15976489426453,-0.6843473,9.140582,3.818945,3
15976491805568,-0.66041905,9.135797,3.790231,3
15976494184682,-0.63170516,9.131011,3.790231,3
15976496563797,-0.6029913,9.174082,3.7758741,3
15976498942911,-0.5982057,9.164511,3.751946,3
15976501322026,-0.5694918,9.15494,3.7280176,3
15976503701141,-0.5407779,9.183653,3.7136607,3
15976506080255,-0.51206404,9.169296,3.7184465,3
15976508459370,-0.5168497,9.178867,3.7280176,3
15976510838484,-0.5024927,9.164511,3.7328033,3
15976513217547,-0.47856453,9.169296,3.723232,3
15976515596713,-0.44506502,9.159725,3.723232,3
15976517975776,-0.4546363,9.150154,3.723232,3
15976520354891,-0.47377887,9.145369,3.7328033,3
15976522734005,-0.4642076,9.12144,3.723232,3
15976525113120,-0.5072784,9.135797,3.7136607,3
15976527492234,-0.5072784,9.12144,3.7136607,3
15976529871349,-0.5599205,9.102298,3.7280176,3
15976532250463,-0.57427746,9.092726,3.7328033,3
15976534629578,-0.5838487,9.102298,3.723232,3
15976537008693,-0.5982057,9.078369,3.7423747,3
15976539387807,-0.5838487,9.059227,3.7423747,3
15976541766922,-0.5694918,9.049655,3.7663028,3
15976544146036,-0.57427746,9.049655,3.7854455,3
15976546525151,-0.56470615,9.068798,3.7710886,3
15976548904266,-0.5455636,9.078369,3.7567315,3
15976551283380,-0.5312066,9.08794,3.751946,3
15976553662495,-0.526421,9.092726,3.7615173,3
15976556041609,-0.5024927,9.08794,3.7615173,3
15976558420724,-0.49292147,9.107083,3.7663028,3
15976560799838,-0.4881358,9.097511,3.7567315,3
15976563178953,-0.4833502,9.08794,3.7615173,3
15976565558068,-0.47856453,9.111869,3.737589,3
15976567937182,-0.4546363,9.111869,3.723232,3
15976570316297,-0.47377887,9.08794,3.694518,3
15976572695411,-0.51206404,9.107083,3.7040894,3
15976575074526,-0.5072784,9.102298,3.694518,3
15976577453641,-0.5168497,9.107083,3.694518,3
15976579832755,-0.5407779,9.102298,3.6849468,3
15976582211870,-0.53599226,9.092726,3.6658044,3
15976584590984,-0.56470615,9.083155,3.656233,3
15976586970099,-0.56470615,9.068798,3.6658044,3
15976589349213,-0.56470615,9.073584,3.6801612,3
15976591728328,-0.5694918,9.068798,3.7184465,3
15976594107443,-0.5694918,9.073584,3.7280176,3
15976596486557,-0.5838487,9.073584,3.7328033,3
15976598865672,-0.5838487,9.0544405,3.7280176,3
15976601244786,-0.5886344,9.064013,3.7328033,3
15976603623849,-0.6125626,9.064013,3.751946,3
15976606002963,-0.6269195,9.035298,3.7663028,3
15976608382078,-0.64606214,9.049655,3.7758741,3
15976610761193,-0.63170516,9.073584,3.7758741,3
15976613140307,-0.63170516,9.102298,3.7758741,3
15976615519422,-0.6556334,9.107083,3.7806597,3
15976617898536,-0.66999036,9.111869,3.7806597,3
15976620277651,-0.66041905,9.126225,3.7663028,3
15976622656766,-0.6795616,9.126225,3.7806597,3
15976625035880,-0.6891329,9.135797,3.7854455,3
15976627414995,-0.6843473,9.145369,3.7806597,3
15976629794109,-0.65084773,9.131011,3.7854455,3
15976632173224,-0.6412765,9.140582,3.790231,3
15976634552338,-0.6029913,9.164511,3.7806597,3
15976636931453,-0.59342,9.140582,3.7950168,3
15976639310568,-0.57427746,9.150154,3.7854455,3
15976641689682,-0.56470615,9.12144,3.7950168,3
15976644068797,-0.57427746,9.131011,3.7950168,3
15976646447911,-0.5455636,9.126225,3.8141594,3
15976648827026,-0.5407779,9.135797,3.804588,3
15976651206141,-0.5455636,9.145369,3.790231,3
15976653585255,-0.55034924,9.116654,3.7806597,3
15976655964370,-0.5455636,9.116654,3.7854455,3
15976658343484,-0.55513483,9.126225,3.7806597,3
15976660722599,-0.5599205,9.12144,3.7710886,3
15976663101713,-0.56470615,9.107083,3.7710886,3
15976665480828,-0.57906306,9.150154,3.751946,3
15976667859943,-0.5838487,9.164511,3.7328033,3
15976670239057,-0.59342,9.15494,3.7328033,3
15976672618172,-0.5982057,9.131011,3.751946,3
15976674997286,-0.5982057,9.12144,3.7567315,3
15976677376401,-0.6029913,9.159725,3.7615173,3
15976679755516,-0.5982057,9.140582,3.7471602,3
15976682134630,-0.5982057,9.12144,3.737589,3
15976684513745,-0.5982057,9.135797,3.7280176,3
15976686892859,-0.5838487,9.111869,3.737589,3
15976689271922,-0.5599205,9.116654,3.751946,3
15976691651036,-0.57427746,9.107083,3.7615173,3
15976694030151,-0.5599205,9.12144,3.7758741,3
15976696409266,-0.5694918,9.107083,3.7663028,3
15976698788380,-0.5599205,9.102298,3.7471602,3
15976701167495,-0.56470615,9.097511,3.723232,3
15976703546609,-0.55034924,9.107083,3.7280176,3
15976705925724,-0.55034924,9.12144,3.7663028,3
15976708304838,-0.55034924,9.12144,3.7710886,3
15976710683953,-0.5838487,9.107083,3.7663028,3
15976713063068,-0.57427746,9.102298,3.7615173,3
15976715442182,-0.53599226,9.107083,3.7471602,3
15976717821297,-0.55034924,9.107083,3.723232,3
15976720200411,-0.53599226,9.097511,3.7280176,3
15976722579526,-0.52163535,9.097511,3.7423747,3
15976724958641,-0.51206404,9.102298,3.7423747,3
15976727337755,-0.4833502,9.107083,3.7423747,3
15976729716870,-0.45942193,9.116654,3.751946,3
15976732095984,-0.44985065,9.116654,3.7663028,3
15976734475047,-0.44506502,9.126225,3.7615173,3
15976736854213,-0.4642076,9.131011,3.7471602,3
15976739233276,-0.44985065,9.150154,3.790231,3
15976741612443,-0.44506502,9.12144,3.7854455,3
15976743991557,-0.4546363,9.135797,3.7854455,3
15976746370672,-0.47377887,9.140582,3.7758741,3
15976748749786,-0.47377887,9.116654,3.7854455,3
15976751128901,-0.5072784,9.116654,3.7567315,3
15976753508016,-0.5407779,9.102298,3.7854455,3
15976755887130,-0.57906306,9.107083,3.7854455,3
15976758266245,-0.5599205,9.116654,3.7758741,3
15976760645359,-0.59342,9.111869,3.7758741,3
15976763024474,-0.6364908,9.111869,3.7950168,3
15976765403588,-0.6412765,9.08794,3.7998023,3
15976767782703,-0.66041905,9.068798,3.7998023,3
15976770161766,-0.66041905,9.073584,3.8093736,3
15976772540932,-0.6795616,9.08794,3.8141594,3
15976774919995,-0.6891329,9.08794,3.804588,3
15976777299109,-0.6556334,9.08794,3.804588,3
15976779678224,-0.6269195,9.092726,3.7998023,3
15976782057338,-0.59342,9.102298,3.7998023,3
15976784436453,-0.5599205,9.12144,3.790231,3
15976786815568,-0.5312066,9.116654,3.7663028,3
15976789194682,-0.53599226,9.131011,3.7663028,3
15976791573797,-0.5168497,9.140582,3.7615173,3
15976793952911,-0.51206404,9.12144,3.7663028,3
15976796332026,-0.47856453,9.126225,3.7471602,3
15976798711141,-0.42592242,9.126225,3.7471602,3
15976801090255,-0.44027936,9.126225,3.7184465,3
15976803469370,-0.44027936,9.111869,3.7040894,3
15976805848484,-0.44985065,9.092726,3.723232,3
15976808227599,-0.47377887,9.08794,3.7184465,3
15976810606713,-0.4881358,9.08794,3.7184465,3
15976812985828,-0.47856453,9.068798,3.7040894,3
15976815364943,-0.4881358,9.059227,3.6849468,3
15976817744057,-0.5024927,9.078369,3.6993039,3
15976820123172,-0.5072784,9.083155,3.6993039,3
15976822502286,-0.5072784,9.08794,3.7040894,3
15976824881401,-0.52163535,9.068798,3.7088752,3
15976827260516,-0.5168497,9.078369,3.7088752,3
15976829639630,-0.4977071,9.083155,3.7088752,3
15976832018745,-0.51206404,9.08794,3.6993039,3
15976834397859,-0.5072784,9.097511,3.6897326,3
15976836776974,-0.5072784,9.064013,3.6897326,3
15976839156088,-0.4977071,9.083155,3.6897326,3
15976841535203,-0.5024927,9.08794,3.7088752,3
15976843914318,-0.46899325,9.111869,3.7040894,3
15976846293432,-0.4881358,9.092726,3.723232,3
15976848672547,-0.4833502,9.08794,3.737589,3
15976851051661,-0.4642076,9.092726,3.737589,3
15976853430724,-0.49292147,9.107083,3.7663028,3
15976855809838,-0.47377887,9.102298,3.7615173,3
15976858188953,-0.47856453,9.102298,3.7663028,3
15976860568068,-0.4833502,9.097511,3.7758741,3
15976862947182,-0.4977071,9.116654,3.751946,3
15976865326297,-0.47377887,9.116654,3.7710886,3
15976867705411,-0.4833502,9.111869,3.7806597,3
15976870084526,-0.49292147,9.102298,3.7758741,3
15976872463641,-0.47377887,9.131011,3.7710886,3
15976874842755,-0.4833502,9.126225,3.7758741,3
15976877221870,-0.46899325,9.145369,3.7806597,3
15976879600984,-0.46899325,9.15494,3.7567315,3
15976881980099,-0.47856453,9.15494,3.7567315,3
15976884359213,-0.4833502,9.169296,3.7758741,3
15976886738328,-0.4546363,9.178867,3.7806597,3
15976889117443,-0.44506502,9.174082,3.7806597,3
15976891496557,-0.44985065,9.188439,3.7806597,3
15976893875672,-0.44985065,9.178867,3.7854455,3
15976896254786,-0.44027936,9.174082,3.7806597,3
15976898633901,-0.44027936,9.174082,3.790231,3
15976901013016,-0.4546363,9.178867,3.804588,3
15976903392130,-0.4354937,9.169296,3.8093736,3
15976905771245,-0.42592242,9.150154,3.8093736,3
15976908150359,-0.44027936,9.15494,3.8093736,3
15976910529474,-0.41635114,9.135797,3.804588,3
15976912908588,-0.42592242,9.145369,3.7854455,3
15976915287703,-0.4354937,9.116654,3.7806597,3
15976917666818,-0.46899325,9.107083,3.7758741,3
15976920045932,-0.5024927,9.102298,3.7615173,3
15976922425047,-0.5072784,9.111869,3.7615173,3
15976924804161,-0.5168497,9.111869,3.7471602,3
15976927183276,-0.53599226,9.097511,3.737589,3
15976929562338,-0.55513483,9.08794,3.7280176,3
15976931941505,-0.56470615,9.092726,3.694518,3
15976934320568,-0.55513483,9.111869,3.7040894,3
15976936699682,-0.55513483,9.102298,3.6753755,3
15976939078797,-0.53599226,9.097511,3.6753755,3
15976941457911,-0.55034924,9.097511,3.6801612,3
15976943837026,-0.5455636,9.107083,3.6897326,3
15976946216141,-0.5024927,9.107083,3.694518,3
15976948595255,-0.44506502,9.131011,3.67059,3
15976950974370,-0.4546363,9.111869,3.6801612,3
15976953353484,-0.40677986,9.12144,3.6993039,3
15976955732599,-0.3924229,9.102298,3.6993039,3
15976958111713,-0.34456646,9.107083,3.7040894,3
15976960490828,-0.3062813,9.08794,3.7280176,3
15976962869943,-0.3062813,9.092726,3.751946,3
15976965249057,-0.26799613,9.097511,3.751946,3
15976967628172,-0.2727818,9.102298,3.7423747,3
15976970007286,-0.27756742,9.116654,3.7615173,3
15976972386401,-0.28235307,9.092726,3.7758741,3
15976974765516,-0.31585258,9.08794,3.7854455,3
15976977144630,-0.31585258,9.078369,3.7950168,3
15976979523745,-0.32063824,9.102298,3.7806597,3
15976981902859,-0.32063824,9.107083,3.7710886,3
15976984281974,-0.31106696,9.107083,3.7710886,3
15976986661088,-0.3397808,9.111869,3.7806597,3
15976989040203,-0.36370903,9.140582,3.7710886,3
15976991419318,-0.37328035,9.150154,3.7710886,3
15976993798432,-0.38763726,9.140582,3.7710886,3
15976996177547,-0.41156548,9.12144,3.7567315,3
15976998556661,-0.4211368,9.107083,3.7663028,3
15977000935776,-0.44027936,9.126225,3.7950168,3
15977003314891,-0.4354937,9.111869,3.790231,3
15977005694005,-0.44506502,9.12144,3.7710886,3
15977008073068,-0.4211368,9.116654,3.7567315,3
15977010452182,-0.4211368,9.107083,3.7567315,3
15977012831297,-0.4354937,9.107083,3.7471602,3
15977015210411,-0.4354937,9.126225,3.723232,3
15977017589526,-0.4642076,9.131011,3.737589,3
15977019968641,-0.45942193,9.131011,3.723232,3
15977022347755,-0.44985065,9.131011,3.6993039,3
15977024726870,-0.45942193,9.116654,3.6993039,3
15977027105984,-0.46899325,9.111869,3.7040894,3
15977029485099,-0.47377887,9.102298,3.6993039,3
15977031864213,-0.47377887,9.135797,3.7136607,3
15977034243328,-0.4977071,9.150154,3.7040894,3
15977036622443,-0.53599226,9.140582,3.7088752,3
15977039001557,-0.5407779,9.126225,3.7280176,3
15977041380672,-0.5599205,9.12144,3.723232,3
15977043759786,-0.5407779,9.107083,3.7280176,3
15977046138901,-0.5455636,9.111869,3.723232,3
15977048518016,-0.5599205,9.126225,3.737589,3
15977050897130,-0.57906306,9.131011,3.737589,3
15977053276245,-0.5694918,9.131011,3.737589,3
15977055655307,-0.55513483,9.135797,3.737589,3
15977058034474,-0.53599226,9.126225,3.7423747,3
15977060413588,-0.53599226,9.135797,3.751946,3
15977062792703,-0.526421,9.131011,3.751946,3
15977065171818,-0.51206404,9.131011,3.7615173,3
15977067550932,-0.5072784,9.145369,3.7567315,3
15977069930047,-0.5024927,9.150154,3.7663028,3
15977072309161,-0.49292147,9.140582,3.7615173,3
15977074688276,-0.5024927,9.12144,3.7567315,3
15977077067391,-0.5024927,9.135797,3.7854455,3
15977079446505,-0.526421,9.131011,3.7854455,3
15977081825620,-0.49292147,9.111869,3.7950168,3
15977084204734,-0.5168497,9.135797,3.790231,3
15977086583849,-0.53599226,9.135797,3.804588,3
15977088962911,-0.5694918,9.126225,3.7710886,3
15977091342026,-0.5599205,9.135797,3.7758741,3
15977093721141,-0.5455636,9.135797,3.7950168,3
15977096100255,-0.5599205,9.15494,3.7950168,3
15977098479370,-0.57427746,9.15494,3.790231,3
15977100858484,-0.56470615,9.131011,3.790231,3
15977103237599,-0.5407779,9.116654,3.7998023,3
15977105616713,-0.55513483,9.092726,3.7758741,3
15977107995828,-0.5694918,9.068798,3.7471602,3
15977110374943,-0.55513483,9.078369,3.7423747,3
15977112754057,-0.55513483,9.097511,3.7471602,3
15977115133172,-0.5455636,9.068798,3.7615173,3
15977117512286,-0.5455636,9.092726,3.7615173,3
15977119891401,-0.5072784,9.08794,3.7758741,3
15977122270516,-0.51206404,9.092726,3.7471602,3
15977124649630,-0.51206404,9.097511,3.7423747,3
15977127028745,-0.49292147,9.126225,3.7328033,3
15977129407859,-0.4833502,9.131011,3.7328033,3
15977131786974,-0.5168497,9.12144,3.737589,3
15977134166088,-0.5168497,9.092726,3.7471602,3
15977136545203,-0.4833502,9.111869,3.7423747,3
15977138924318,-0.4881358,9.111869,3.7471602,3
15977141303432,-0.47377887,9.102298,3.7423747,3
15977143682547,-0.46899325,9.102298,3.7806597,3
15977146061661,-0.45942193,9.12144,3.7663028,3
15977148440776,-0.4354937,9.12144,3.7328033,3
15977150819891,-0.4354937,9.116654,3.751946,3
15977153199005,-0.41156548,9.102298,3.7567315,3
15977155578120,-0.42592242,9.097511,3.7663028,3
15977157957234,-0.39720857,9.102298,3.751946,3
15977160336297,-0.38285163,9.116654,3.7423747,3
15977162715463,-0.38763726,9.12144,3.7280176,3
15977165094578,-0.40677986,9.12144,3.7040894,3
15977167473641,-0.40677986,9.126225,3.694518,3
15977169852755,-0.4211368,9.107083,3.7088752,3
15977172231870,-0.44506502,9.12144,3.7088752,3
15977174610984,-0.4546363,9.12144,3.7040894,3
15977176990099,-0.4881358,9.111869,3.7136607,3
15977179369213,-0.526421,9.126225,3.7136607,3
15977181748328,-0.56470615,9.116654,3.7088752,3
15977184127443,-0.5694918,9.135797,3.6993039,3
15977186506557,-0.5982057,9.126225,3.7136607,3
15977188885672,-0.61734825,9.135797,3.7136607,3
15977191264786,-0.61734825,9.116654,3.7136607,3
15977193643849,-0.6125626,9.12144,3.7136607,3
15977196023016,-0.60777694,9.107083,3.723232,3
15977198402130,-0.60777694,9.097511,3.7280176,3
15977200781245,-0.59342,9.083155,3.7471602,3
15977203160359,-0.55034924,9.073584,3.7471602,3
15977205539474,-0.4977071,9.097511,3.7615173,3
15977207918588,-0.4642076,9.097511,3.7758741,3
15977210297703,-0.4211368,9.12144,3.790231,3
15977212676818,-0.40677986,9.111869,3.7854455,3
15977215055932,-0.38285163,9.107083,3.7854455,3
15977217435047,-0.37328035,9.12144,3.804588,3
15977219814161,-0.35413775,9.135797,3.7950168,3
15977222193276,-0.36370903,9.131011,3.7998023,3
15977224572391,-0.37806597,9.111869,3.8093736,3
15977226951505,-0.38763726,9.111869,3.804588,3
15977229330620,-0.40677986,9.102298,3.7854455,3
15977231709734,-0.42592242,9.126225,3.790231,3
15977234088797,-0.4642076,9.116654,3.7998023,3
15977236467911,-0.49292147,9.126225,3.7950168,3
15977238847026,-0.51206404,9.126225,3.790231,3
15977241226141,-0.52163535,9.116654,3.7710886,3
15977243605255,-0.5312066,9.135797,3.751946,3
15977245984370,-0.53599226,9.140582,3.7663028,3
15977248363484,-0.5407779,9.131011,3.7806597,3
15977250742599,-0.5694918,9.107083,3.7567315,3
15977253121713,-0.57906306,9.111869,3.7615173,3
15977255500828,-0.5838487,9.12144,3.7615173,3
15977257879943,-0.5838487,9.135797,3.7758741,3
15977260259057,-0.5694918,9.111869,3.7663028,3
15977262638172,-0.5886344,9.111869,3.7710886,3
15977265017286,-0.5982057,9.12144,3.7615173,3
15977267396349,-0.5886344,9.140582,3.7615173,3
15977269775516,-0.56470615,9.135797,3.7615173,3
15977272154630,-0.55034924,9.140582,3.7758741,3
15977274533745,-0.5407779,9.140582,3.7663028,3
15977276912859,-0.5407779,9.126225,3.7567315,3
15977279291974,-0.5455636,9.111869,3.7663028,3
15977281671088,-0.51206404,9.12144,3.7758741,3
15977284050203,-0.5024927,9.111869,3.7758741,3
15977286429318,-0.47856453,9.116654,3.7615173,3
15977288808432,-0.44027936,9.107083,3.7615173,3
15977291187547,-0.43070808,9.126225,3.7471602,3
15977293566661,-0.4211368,9.126225,3.7328033,3
15977295945776,-0.42592242,9.140582,3.7328033,3
15977298324891,-0.39720857,9.116654,3.7040894,3
15977300704005,-0.38285163,9.111869,3.7040894,3
15977303083120,-0.3684947,9.116654,3.7184465,3
15977305462234,-0.37806597,9.116654,3.7136607,3
15977307841297,-0.3684947,9.116654,3.6993039,3
15977310220463,-0.37806597,9.107083,3.7040894,3
15977312599526,-0.37328035,9.097511,3.6993039,3
15977314978693,-0.37328035,9.107083,3.6993039,3
15977317357755,-0.37328035,9.116654,3.6993039,3
15977319736870,-0.3684947,9.12144,3.6993039,3
15977322115984,-0.36370903,9.116654,3.7136607,3
15977324495099,-0.38763726,9.102298,3.7280176,3
15977326874213,-0.38763726,9.092726,3.7040894,3
15977329253328,-0.4019942,9.092726,3.7040894,3
15977331632443,-0.43070808,9.102298,3.6993039,3
15977334011557,-0.44985065,9.073584,3.7040894,3
15977336390672,-0.47856453,9.092726,3.7136607,3
15977338769786,-0.5024927,9.107083,3.723232,3
15977341148901,-0.5407779,9.111869,3.7280176,3
15977343528016,-0.5455636,9.116654,3.7423747,3
15977345907130,-0.5407779,9.102298,3.7280176,3
15977348286245,-0.5694918,9.107083,3.7184465,3
15977350665359,-0.57906306,9.107083,3.737589,3
15977353044474,-0.57906306,9.097511,3.7567315,3
15977355423588,-0.53599226,9.12144,3.7710886,3
15977357802703,-0.55034924,9.116654,3.7758741,3
15977360181818,-0.52163535,9.08794,3.7758741,3
15977362560932,-0.51206404,9.092726,3.7854455,3
15977364940047,-0.4881358,9.08794,3.818945,3
15977367319161,-0.4833502,9.078369,3.8141594,3
15977369698276,-0.47377887,9.08794,3.804588,3
15977372077391,-0.44027936,9.083155,3.7854455,3
15977374456505,-0.4211368,9.08794,3.7854455,3
15977376835568,-0.4019942,9.078369,3.7854455,3
15977379214734,-0.41635114,9.092726,3.7854455,3
15977381593797,-0.44985065,9.083155,3.7663028,3
15977383972911,-0.44985065,9.116654,3.7710886,3
15977386352026,-0.4642076,9.126225,3.7950168,3
15977388731141,-0.49292147,9.145369,3.7758741,3
15977391110255,-0.51206404,9.145369,3.7806597,3
15977393489370,-0.5168497,9.131011,3.7615173,3
15977395868484,-0.5024927,9.135797,3.7567315,3
15977398247599,-0.5168497,9.145369,3.7615173,3
15977400626713,-0.52163535,9.135797,3.7806597,3
15977403005828,-0.526421,9.131011,3.7950168,3
15977405384943,-0.53599226,9.116654,3.7758741,3
15977407764057,-0.526421,9.140582,3.7567315,3
15977410143172,-0.52163535,9.135797,3.7567315,3
15977412522286,-0.5072784,9.131011,3.7567315,3
15977414901401,-0.51206404,9.116654,3.751946,3
15977417280516,-0.5024927,9.107083,3.7471602,3
15977419659630,-0.5168497,9.097511,3.737589,3
15977422038745,-0.51206404,9.111869,3.7567315,3
15977424417859,-0.5024927,9.116654,3.751946,3
15977426796974,-0.5072784,9.12144,3.7710886,3
15977429176088,-0.51206404,9.12144,3.7567315,3
15977431555203,-0.53599226,9.092726,3.7423747,3
15977433934318,-0.52163535,9.102298,3.7328033,3
15977436313432,-0.5072784,9.102298,3.7567315,3
15977438692547,-0.52163535,9.097511,3.7615173,3
15977441071661,-0.51206404,9.08794,3.7471602,3
15977443450776,-0.49292147,9.102298,3.737589,3
15977445829891,-0.47377887,9.107083,3.7280176,3
15977448209005,-0.47377887,9.126225,3.7184465,3
15977450588120,-0.4354937,9.116654,3.7136607,3
15977452967182,-0.4019942,9.12144,3.7136607,3
15977455346349,-0.36370903,9.102298,3.7184465,3
15977457725411,-0.34456646,9.111869,3.723232,3
15977460104526,-0.32063824,9.111869,3.7280176,3
15977462483641,-0.31106696,9.107083,3.7184465,3
15977464862755,-0.3062813,9.08794,3.7280176,3
15977467241870,-0.29192436,9.097511,3.737589,3
15977469620984,-0.28713873,9.126225,3.737589,3
15977472000099,-0.28713873,9.107083,3.7328033,3
15977474379213,-0.28713873,9.111869,3.751946,3
15977476758328,-0.27756742,9.107083,3.7423747,3
15977479137443,-0.28235307,9.102298,3.7471602,3
15977481516505,-0.31585258,9.126225,3.7567315,3
15977483895672,-0.31585258,9.131011,3.7758741,3
15977486274786,-0.30149564,9.150154,3.7663028,3
15977488653901,-0.32542387,9.12144,3.7710886,3
15977491033016,-0.31106696,9.12144,3.7806597,3
15977493412130,-0.32542387,9.145369,3.7806597,3
15977495791245,-0.29671,9.135797,3.7758741,3
15977498170359,-0.30149564,9.15494,3.7854455,3
15977500549474,-0.29671,9.174082,3.7950168,3
15977502928588,-0.29671,9.159725,3.7950168,3
15977505307703,-0.29192436,9.140582,3.7806597,3
15977507686818,-0.29671,9.135797,3.7854455,3
15977510065932,-0.3062813,9.126225,3.7710886,3
15977512445047,-0.32542387,9.150154,3.7615173,3
15977514824161,-0.33020952,9.145369,3.7758741,3
15977517203276,-0.32542387,9.135797,3.751946,3
15977519582391,-0.3493521,9.145369,3.7663028,3
15977521961453,-0.37328035,9.126225,3.7615173,3
15977524340568,-0.38763726,9.135797,3.7567315,3
15977526719682,-0.40677986,9.135797,3.751946,3
15977529098797,-0.43070808,9.116654,3.7423747,3
15977531477911,-0.43070808,9.102298,3.737589,3
15977533857026,-0.41635114,9.126225,3.751946,3
15977536236141,-0.40677986,9.12144,3.751946,3
15977538615255,-0.38763726,9.12144,3.7328033,3
15977540994370,-0.38285163,9.097511,3.7280176,3
15977543373484,-0.37328035,9.111869,3.7280176,3
15977545752599,-0.38763726,9.15494,3.7184465,3
15977548131713,-0.3684947,9.145369,3.7328033,3
15977550510828,-0.35413775,9.150154,3.723232,3
15977552889943,-0.37328035,9.140582,3.7184465,3
15977555269057,-0.38285163,9.140582,3.737589,3
15977557648172,-0.38763726,9.126225,3.7423747,3
15977560027286,-0.3684947,9.12144,3.751946,3
15977562406401,-0.38285163,9.083155,3.7567315,3
15977564785516,-0.37328035,9.083155,3.7567315,3
15977567164630,-0.3924229,9.116654,3.751946,3
15977569543745,-0.40677986,9.12144,3.7567315,3
15977571922859,-0.41156548,9.111869,3.7615173,3
15977574301974,-0.39720857,9.126225,3.7471602,3
15977576681088,-0.37806597,9.135797,3.7663028,3
15977579060203,-0.3684947,9.12144,3.7471602,3
15977581439318,-0.37328035,9.140582,3.7423747,3
15977583818432,-0.3589234,9.135797,3.7423747,3
15977586197547,-0.38285163,9.126225,3.7567315,3
15977588576661,-0.38285163,9.135797,3.7615173,3
15977590955776,-0.37806597,9.140582,3.751946,3
15977593334891,-0.37806597,9.140582,3.7471602,3
15977595713953,-0.37328035,9.131011,3.751946,3
15977598093068,-0.37328035,9.111869,3.7471602,3
15977600472182,-0.40677986,9.135797,3.7615173,3
15977602851297,-0.38763726,9.126225,3.7663028,3
15977605230411,-0.38763726,9.135797,3.7663028,3
15977607609526,-0.41635114,9.150154,3.7806597,3
15977609988641,-0.4019942,9.159725,3.7710886,3
15977612367755,-0.41635114,9.15494,3.7615173,3
15977614746870,-0.4211368,9.150154,3.7615173,3
15977617125984,-0.4211368,9.126225,3.7663028,3
15977619505099,-0.41635114,9.131011,3.7854455,3
15977621884213,-0.40677986,9.159725,3.7758741,3
15977624263328,-0.39720857,9.150154,3.7758741,3
15977626642443,-0.38285163,9.126225,3.7710886,3
15977629021557,-0.38763726,9.12144,3.7663028,3
15977631400672,-0.38285163,9.111869,3.737589,3
15977633779786,-0.3684947,9.111869,3.7423747,3
15977636158901,-0.3684947,9.116654,3.737589,3
15977638538016,-0.39720857,9.111869,3.723232,3
15977640917130,-0.4019942,9.107083,3.7136607,3
15977643296245,-0.43070808,9.107083,3.7136607,3
15977645675359,-0.4354937,9.12144,3.7328033,3
15977648054474,-0.44027936,9.111869,3.737589,3
15977650433588,-0.44027936,9.116654,3.7088752,3
15977652812703,-0.47856453,9.126225,3.7040894,3
15977655191818,-0.4833502,9.135797,3.7040894,3
15977657570932,-0.49292147,9.145369,3.7136607,3
15977659950047,-0.5024927,9.140582,3.723232,3
15977662329161,-0.5072784,9.131011,3.7280176,3
15977664708224,-0.52163535,9.097511,3.7136607,3
15977667087391,-0.4977071,9.140582,3.7184465,3
15977669466505,-0.4546363,9.135797,3.7136607,3
15977671845568,-0.45942193,9.12144,3.7328033,3
15977674224682,-0.46899325,9.126225,3.737589,3
15977676603797,-0.46899325,9.131011,3.723232,3
15977678982911,-0.46899325,9.107083,3.7280176,3
15977681362026,-0.45942193,9.116654,3.7423747,3
15977683741141,-0.45942193,9.092726,3.7471602,3
15977686120255,-0.46899325,9.08794,3.7423747,3
15977688499370,-0.47856453,9.116654,3.7471602,3
15977690878484,-0.5024927,9.111869,3.7567315,3
15977693257599,-0.49292147,9.102298,3.7615173,3
15977695636713,-0.4977071,9.097511,3.7471602,3
15977698015828,-0.49292147,9.12144,3.7615173,3
15977700394943,-0.49292147,9.116654,3.7854455,3
15977702774057,-0.45942193,9.12144,3.7758741,3
15977705153172,-0.45942193,9.126225,3.7758741,3
15977707532286,-0.4354937,9.131011,3.7710886,3
15977709911349,-0.4019942,9.126225,3.7710886,3
15977712290516,-0.4019942,9.126225,3.7710886,3
15977714669630,-0.37806597,9.135797,3.7758741,3
15977717048745,-0.34456646,9.140582,3.7615173,3
15977719427859,-0.34456646,9.116654,3.7423747,3
15977721806974,-0.31585258,9.126225,3.7567315,3
15977724186088,-0.32063824,9.107083,3.7471602,3
15977726565203,-0.32063824,9.092726,3.751946,3
15977728944318,-0.3062813,9.08794,3.7615173,3
15977731323432,-0.31106696,9.116654,3.7423747,3
15977733702547,-0.33020952,9.135797,3.7471602,3
15977736081661,-0.35413775,9.116654,3.751946,3
15977738460724,-0.36370903,9.135797,3.7615173,3
15977740839838,-0.40677986,9.126225,3.7663028,3
15977743218953,-0.42592242,9.126225,3.7471602,3
15977745598068,-0.4211368,9.126225,3.751946,3
15977747977182,-0.4546363,9.126225,3.7615173,3
15977750356297,-0.46899325,9.126225,3.7615173,3
15977752735411,-0.47377887,9.12144,3.7663028,3
15977755114526,-0.4833502,9.116654,3.7567315,3
15977757493641,-0.5168497,9.116654,3.7758741,3
15977759872755,-0.4881358,9.092726,3.7567315,3
15977762251870,-0.47377887,9.092726,3.7758741,3
15977764630984,-0.4833502,9.092726,3.7615173,3
15977767010099,-0.47377887,9.102298,3.7663028,3
15977769389213,-0.4833502,9.092726,3.751946,3
15977771768328,-0.47856453,9.092726,3.7567315,3
15977774147443,-0.4546363,9.08794,3.737589,3
15977776526557,-0.44985065,9.092726,3.7615173,3
15977778905672,-0.44506502,9.102298,3.7423747,3
15977781284786,-0.44985065,9.116654,3.7423747,3
15977783663901,-0.44985065,9.116654,3.7184465,3
15977786043016,-0.44985065,9.116654,3.7136607,3
15977788422130,-0.46899325,9.135797,3.723232,3
15977790801245,-0.45942193,9.150154,3.7184465,3
15977793180359,-0.46899325,9.15494,3.723232,3
15977795559474,-0.4546363,9.150154,3.7136607,3
15977797938588,-0.4354937,9.131011,3.7423747,3
15977800317703,-0.44027936,9.140582,3.7328033,3
15977802696818,-0.40677986,9.145369,3.723232,3
15977805075932,-0.38763726,9.15494,3.751946,3
15977807455047,-0.37328035,9.131011,3.7471602,3
15977809834161,-0.3589234,9.107083,3.7423747,3
15977812213224,-0.34456646,9.116654,3.7423747,3
15977814592338,-0.31106696,9.131011,3.7471602,3
15977816971453,-0.32063824,9.12144,3.7423747,3
15977819350568,-0.32542387,9.107083,3.737589,3
15977821729682,-0.28713873,9.116654,3.737589,3
15977824108797,-0.28713873,9.092726,3.7423747,3
15977826487911,-0.28713873,9.102298,3.7471602,3
15977828867026,-0.3062813,9.12144,3.7471602,3
15977831246141,-0.32542387,9.135797,3.7423747,3
15977833625255,-0.38285163,9.159725,3.7567315,3
15977836004370,-0.39720857,9.135797,3.7806597,3
15977838383484,-0.4211368,9.131011,3.7806597,3
15977840762599,-0.44985065,9.150154,3.7710886,3
15977843141713,-0.47377887,9.145369,3.751946,3
15977845520828,-0.5024927,9.145369,3.7758741,3
15977847899943,-0.5072784,9.145369,3.7710886,3
15977850279057,-0.51206404,9.145369,3.7758741,3
15977852658172,-0.5024927,9.145369,3.7806597,3
15977855037286,-0.51206404,9.12144,3.7567315,3
15977857416401,-0.47856453,9.131011,3.7471602,3
15977859795516,-0.46899325,9.12144,3.7471602,3
15977862174630,-0.44506502,9.12144,3.7423747,3
15977864553745,-0.41635114,9.140582,3.751946,3
15977866932859,-0.4211368,9.15494,3.7423747,3
15977869311974,-0.43070808,9.131011,3.7471602,3
15977871691088,-0.41635114,9.126225,3.7663028,3
15977874070203,-0.41156548,9.116654,3.737589,3
15977876449266,-0.41635114,9.102298,3.737589,3
15977878828380,-0.4211368,9.107083,3.7567315,3
15977881207495,-0.4546363,9.107083,3.7615173,3
15977883586609,-0.4642076,9.116654,3.7615173,3
15977885965724,-0.47377887,9.097511,3.7567315,3
15977888344838,-0.4833502,9.08794,3.7663028,3
15977890723953,-0.5072784,9.08794,3.7567315,3
15977893103068,-0.5072784,9.102298,3.7423747,3
15977895482182,-0.5072784,9.126225,3.723232,3
15977897861297,-0.4881358,9.135797,3.7136607,3
15977900240411,-0.4881358,9.126225,3.7280176,3
15977902619526,-0.4833502,9.150154,3.723232,3
15977904998641,-0.47377887,9.145369,3.7328033,3
15977907377755,-0.4642076,9.12144,3.7088752,3
15977909756870,-0.44027936,9.126225,3.694518,3
15977912135984,-0.4211368,9.126225,3.7088752,3
15977914515099,-0.39720857,9.111869,3.7280176,3
15977916894213,-0.3684947,9.126225,3.7471602,3
15977919273328,-0.36370903,9.116654,3.723232,3
15977921652443,-0.33020952,9.131011,3.737589,3
15977924031557,-0.3493521,9.107083,3.7328033,3
15977926410672,-0.3493521,9.097511,3.751946,3
15977928789786,-0.33020952,9.111869,3.7423747,3
15977931168901,-0.34456646,9.092726,3.7471602,3
15977933548016,-0.35413775,9.08794,3.7567315,3
15977935927130,-0.3589234,9.08794,3.7328033,3
15977938306245,-0.3684947,9.111869,3.7280176,3
15977940685307,-0.38763726,9.111869,3.7280176,3
15977943064474,-0.3924229,9.08794,3.737589,3
15977945443588,-0.40677986,9.102298,3.7328033,3
15977947822703,-0.3924229,9.097511,3.737589,3
15977950201818,-0.40677986,9.092726,3.7328033,3
15977952580932,-0.38763726,9.102298,3.7328033,3
15977954960047,-0.39720857,9.116654,3.723232,3
15977957339109,-0.41156548,9.102298,3.737589,3
15977959718224,-0.41156548,9.107083,3.751946,3
15977962097338,-0.40677986,9.135797,3.7615173,3
15977964476453,-0.41635114,9.135797,3.7615173,3
15977966855568,-0.44027936,9.111869,3.7663028,3
15977969234682,-0.45942193,9.102298,3.7663028,3
15977971613797,-0.44985065,9.111869,3.7567315,3
15977973992911,-0.47377887,9.116654,3.7615173,3
15977976372026,-0.5024927,9.097511,3.7854455,3
15977978751141,-0.526421,9.107083,3.7758741,3
15977981130255,-0.526421,9.097511,3.7950168,3
15977983509370,-0.526421,9.111869,3.804588,3
15977985888484,-0.526421,9.135797,3.804588,3
15977988267599,-0.53599226,9.131011,3.790231,3
15977990646713,-0.5312066,9.140582,3.7854455,3
15977993025828,-0.4977071,9.164511,3.7710886,3
15977995404943,-0.5072784,9.135797,3.7615173,3
15977997784057,-0.4881358,9.126225,3.7615173,3
15978000163172,-0.49292147,9.140582,3.7663028,3
15978002542286,-0.44506502,9.15494,3.751946,3
15978004921401,-0.44027936,9.159725,3.737589,3
15978007300516,-0.44027936,9.164511,3.737589,3
15978009679630,-0.44027936,9.145369,3.7567315,3
15978012058745,-0.4211368,9.140582,3.751946,3
15978014437859,-0.41156548,9.126225,3.7615173,3
15978016816922,-0.41635114,9.135797,3.751946,3
15978019196088,-0.40677986,9.107083,3.7328033,3
15978021575203,-0.41156548,9.083155,3.7328033,3
15978023954266,-0.4019942,9.111869,3.7328033,3
15978026333380,-0.39720857,9.131011,3.7328033,3
15978028712495,-0.39720857,9.12144,3.7328033,3
15978031091609,-0.4019942,9.102298,3.7040894,3
15978033470724,-0.40677986,9.092726,3.7184465,3
15978035849838,-0.41156548,9.116654,3.7184465,3
15978038228953,-0.4019942,9.111869,3.723232,3
15978040608068,-0.40677986,9.102298,3.7184465,3
15978042987182,-0.41635114,9.12144,3.7328033,3
15978045366297,-0.39720857,9.131011,3.7328033,3
15978047745411,-0.37806597,9.12144,3.7280176,3
15978050124526,-0.40677986,9.092726,3.7423747,3
15978052503641,-0.4211368,9.116654,3.737589,3
15978054882755,-0.40677986,9.131011,3.737589,3
15978057261870,-0.38763726,9.107083,3.737589,3
15978059640984,-0.41156548,9.097511,3.7280176,3
15978062020099,-0.41635114,9.111869,3.7328033,3
15978064399213,-0.4019942,9.107083,3.7471602,3
15978066778328,-0.40677986,9.08794,3.737589,3
15978069157443,-0.4211368,9.08794,3.751946,3
15978071536557,-0.41635114,9.092726,3.737589,3
15978073915672,-0.39720857,9.116654,3.737589,3
15978076294786,-0.4019942,9.111869,3.7471602,3
15978078673901,-0.4211368,9.111869,3.7423747,3
15978081053016,-0.4354937,9.12144,3.737589,3
15978083432130,-0.43070808,9.111869,3.7471602,3
15978085811245,-0.40677986,9.116654,3.7471602,3
15978088190359,-0.37806597,9.150154,3.7471602,3
15978090569474,-0.35413775,9.140582,3.7423747,3
15978092948588,-0.3589234,9.140582,3.7471602,3
15978095327651,-0.3493521,9.126225,3.7758741,3
15978097706766,-0.33020952,9.131011,3.7806597,3
15978100085880,-0.32063824,9.126225,3.7806597,3
15978102464995,-0.32063824,9.12144,3.7806597,3
15978104844109,-0.3397808,9.107083,3.7615173,3
15978107223224,-0.3397808,9.107083,3.7471602,3
15978109602338,-0.3397808,9.12144,3.7663028,3
15978111981453,-0.3684947,9.12144,3.7567315,3
15978114360568,-0.3924229,9.12144,3.7471602,3
15978116739682,-0.39720857,9.131011,3.7567315,3
15978119118797,-0.4211368,9.126225,3.7663028,3
15978121497911,-0.41156548,9.116654,3.7615173,3
15978123877026,-0.4354937,9.102298,3.751946,3
15978126256141,-0.44985065,9.116654,3.7328033,3
15978128635255,-0.45942193,9.126225,3.7280176,3
15978131014370,-0.5024927,9.131011,3.7328033,3
15978133393484,-0.4833502,9.131011,3.7280176,3
15978135772599,-0.46899325,9.131011,3.7328033,3
15978138151713,-0.47856453,9.126225,3.737589,3
15978140530828,-0.4642076,9.140582,3.7328033,3
15978142909943,-0.4833502,9.131011,3.723232,3
15978145289057,-0.4833502,9.140582,3.7280176,3
15978147668172,-0.49292147,9.111869,3.737589,3
15978150047286,-0.4977071,9.12144,3.7471602,3
15978152426401,-0.4833502,9.126225,3.7710886,3
15978154805516,-0.46899325,9.116654,3.7710886,3
15978157184630,-0.45942193,9.08794,3.7567315,3
15978159563745,-0.49292147,9.107083,3.7567315,3
15978161942859,-0.45942193,9.102298,3.751946,3
15978164321974,-0.44506502,9.12144,3.751946,3
15978166701036,-0.4546363,9.126225,3.7423747,3
15978169080151,-0.44985065,9.102298,3.737589,3
15978171459266,-0.44506502,9.111869,3.737589,3
15978173838380,-0.42592242,9.102298,3.737589,3
15978176217495,-0.4211368,9.116654,3.7328033,3
15978178596609,-0.3924229,9.102298,3.7328033,3
15978180975724,-0.3684947,9.131011,3.7328033,3
15978183354838,-0.37328035,9.131011,3.723232,3
15978185733953,-0.3493521,9.145369,3.7184465,3
15978188113068,-0.33499518,9.145369,3.7328033,3
15978190492182,-0.32063824,9.102298,3.737589,3
15978192871297,-0.30149564,9.107083,3.751946,3
15978195250411,-0.29192436,9.102298,3.7328033,3
15978197629526,-0.31106696,9.126225,3.751946,3
15978200008641,-0.29671,9.111869,3.7758741,3
15978202387755,-0.28713873,9.145369,3.7663028,3
15978204766870,-0.32063824,9.150154,3.7615173,3
15978207145984,-0.35413775,9.145369,3.751946,3
15978209525099,-0.37806597,9.15494,3.7615173,3
15978211904213,-0.3684947,9.140582,3.7471602,3
15978214283328,-0.37328035,9.12144,3.7471602,3
15978216662443,-0.38285163,9.131011,3.751946,3
15978219041557,-0.42592242,9.164511,3.7423747,3
15978221420672,-0.44506502,9.140582,3.751946,3
15978223799786,-0.45942193,9.116654,3.751946,3
15978226178901,-0.47856453,9.131011,3.7471602,3
15978228558016,-0.49292147,9.140582,3.751946,3
15978230937130,-0.5168497,9.107083,3.7663028,3
15978233316245,-0.4977071,9.111869,3.7710886,3
15978235695307,-0.4881358,9.12144,3.7710886,3
15978238074422,-0.47856453,9.12144,3.7615173,3
15978240453536,-0.4546363,9.111869,3.7615173,3
15978242832651,-0.4354937,9.135797,3.7710886,3
15978245211766,-0.39720857,9.145369,3.7663028,3
15978247590880,-0.3684947,9.135797,3.7615173,3
15978249969995,-0.35413775,9.140582,3.7615173,3
15978252349109,-0.33020952,9.150154,3.7710886,3
15978254728224,-0.29192436,9.150154,3.751946,3
15978257107338,-0.2632105,9.150154,3.7567315,3
15978259486453,-0.2632105,9.135797,3.7567315,3
15978261865568,-0.2727818,9.12144,3.737589,3
15978264244682,-0.2727818,9.116654,3.737589,3
15978266623797,-0.28713873,9.092726,3.751946,3
15978269002911,-0.31585258,9.083155,3.751946,3
15978271382026,-0.34456646,9.078369,3.7471602,3
15978273761141,-0.3684947,9.111869,3.7663028,3
15978276140255,-0.39720857,9.12144,3.7615173,3
15978278519370,-0.4019942,9.131011,3.7567315,3
15978280898484,-0.41156548,9.140582,3.7423747,3
15978283277599,-0.4354937,9.126225,3.7471602,3
15978285656713,-0.44506502,9.135797,3.7280176,3
15978288035828,-0.44027936,9.126225,3.7471602,3
15978290414943,-0.43070808,9.135797,3.7471602,3
15978292794057,-0.41156548,9.135797,3.723232,3
15978295173172,-0.42592242,9.145369,3.7328033,3
15978297552286,-0.4211368,9.131011,3.7184465,3
15978299931401,-0.41156548,9.126225,3.7136607,3
15978302310516,-0.40677986,9.140582,3.723232,3
15978304689630,-0.38285163,9.131011,3.7136607,3
15978307068745,-0.37328035,9.135797,3.7136607,3
15978309447807,-0.3589234,9.150154,3.7184465,3
15978311826922,-0.35413775,9.12144,3.7184465,3
15978314206036,-0.36370903,9.111869,3.7184465,3
15978316585151,-0.37806597,9.107083,3.7136607,3
15978318964266,-0.39720857,9.111869,3.7280176,3
15978321343380,-0.38285163,9.102298,3.7423747,3
15978323722495,-0.38763726,9.12144,3.7471602,3
15978326101609,-0.3924229,9.116654,3.751946,3
15978328480724,-0.41635114,9.131011,3.751946,3
15978330859838,-0.3924229,9.097511,3.7615173,3
15978333238953,-0.38763726,9.111869,3.7710886,3
15978335618068,-0.37328035,9.111869,3.7663028,3
15978337997182,-0.37806597,9.12144,3.7854455,3
15978340376297,-0.38285163,9.12144,3.7663028,3
15978342755411,-0.37806597,9.116654,3.7567315,3
15978345134526,-0.3589234,9.111869,3.751946,3
15978347513641,-0.35413775,9.12144,3.7471602,3
15978349892755,-0.35413775,9.12144,3.7423747,3
15978352271870,-0.3397808,9.116654,3.7471602,3
15978354650984,-0.32542387,9.111869,3.7471602,3
15978357030099,-0.3397808,9.116654,3.7567315,3
15978359409213,-0.31585258,9.126225,3.7615173,3
15978361788328,-0.3493521,9.102298,3.7471602,3
15978364167443,-0.37806597,9.102298,3.7471602,3
15978366546557,-0.36370903,9.126225,3.7423747,3
15978368925672,-0.4019942,9.116654,3.7471602,3
15978371304786,-0.42592242,9.092726,3.7615173,3
15978373683901,-0.43070808,9.092726,3.7328033,3
15978376062963,-0.44506502,9.116654,3.7328033,3
15978378442078,-0.43070808,9.12144,3.7328033,3
15978380821245,-0.4354937,9.116654,3.737589,3
15978383200307,-0.4546363,9.097511,3.7471602,3
15978385579422,-0.47377887,9.116654,3.7280176,3
15978387958536,-0.47377887,9.140582,3.7423747,3
15978390337651,-0.4546363,9.116654,3.7280176,3
15978392716766,-0.47856453,9.12144,3.723232,3
15978395095880,-0.47856453,9.111869,3.7280176,3
15978397474995,-0.46899325,9.12144,3.7423747,3
15978399854109,-0.47856453,9.135797,3.7423747,3
15978402233224,-0.4833502,9.135797,3.751946,3
15978404612338,-0.47377887,9.126225,3.7471602,3
15978406991453,-0.47377887,9.097511,3.7423747,3
15978409370568,-0.44506502,9.126225,3.7615173,3
15978411749682,-0.4546363,9.135797,3.7567315,3
15978414128797,-0.4354937,9.126225,3.7663028,3
15978416507911,-0.4211368,9.15494,3.7710886,3
15978418887026,-0.40677986,9.164511,3.7615173,3
15978421266141,-0.4019942,9.164511,3.7615173,3
15978423645255,-0.41156548,9.150154,3.7758741,3
15978426024370,-0.3684947,9.140582,3.7854455,3
15978428403484,-0.33020952,9.135797,3.7950168,3
15978430782599,-0.31106696,9.140582,3.790231,3
15978433161713,-0.31585258,9.135797,3.8093736,3
15978435540828,-0.31106696,9.107083,3.804588,3
15978437919943,-0.30149564,9.12144,3.7950168,3
15978440299057,-0.3062813,9.135797,3.7950168,3
15978442678172,-0.31585258,9.131011,3.790231,3
15978445057286,-0.32063824,9.097511,3.7854455,3
15978447436401,-0.32542387,9.111869,3.7663028,3
15978449815516,-0.33020952,9.092726,3.751946,3
15978452194578,-0.3397808,9.08794,3.751946,3
15978454573693,-0.3493521,9.083155,3.7423747,3
15978456952807,-0.34456646,9.097511,3.7184465,3
15978459331870,-0.37806597,9.107083,3.7280176,3
15978461711036,-0.38763726,9.116654,3.7184465,3
15978464090151,-0.4019942,9.145369,3.7184465,3
15978466469266,-0.43070808,9.135797,3.7136607,3
15978468848380,-0.4546363,9.126225,3.7040894,3
15978471227495,-0.46899325,9.140582,3.7280176,3
15978473606557,-0.5024927,9.12144,3.723232,3
15978475985724,-0.5168497,9.116654,3.7088752,3
15978478364838,-0.52163535,9.116654,3.7184465,3
15978480743953,-0.5072784,9.12144,3.7328033,3
15978483123068,-0.52163535,9.116654,3.7423747,3
15978485502182,-0.5407779,9.126225,3.737589,3
15978487881297,-0.5072784,9.126225,3.7328033,3
15978490260411,-0.4977071,9.107083,3.7328033,3
15978492639526,-0.5072784,9.126225,3.7471602,3
15978495018641,-0.5024927,9.116654,3.751946,3
15978497397755,-0.49292147,9.107083,3.7328033,3
15978499776870,-0.4833502,9.12144,3.751946,3
15978502155984,-0.47377887,9.12144,3.7471602,3
15978504535099,-0.43070808,9.126225,3.7567315,3
15978506914213,-0.4211368,9.131011,3.7423747,3
15978509293328,-0.41635114,9.150154,3.723232,3
15978511672443,-0.41635114,9.140582,3.7423747,3
15978514051557,-0.39720857,9.116654,3.7615173,3
15978516430672,-0.38763726,9.131011,3.7615173,3
15978518809786,-0.37806597,9.140582,3.7567315,3
15978521188901,-0.3684947,9.12144,3.7710886,3
15978523568016,-0.3493521,9.083155,3.7663028,3
15978525947130,-0.3493521,9.097511,3.7758741,3
15978528326193,-0.36370903,9.102298,3.790231,3
15978530705307,-0.3493521,9.111869,3.8093736,3
15978533084422,-0.35413775,9.116654,3.7998023,3
15978535463536,-0.34456646,9.107083,3.7950168,3
15978537842651,-0.33020952,9.116654,3.7758741,3
15978540221766,-0.32542387,9.126225,3.7663028,3
15978542600880,-0.32542387,9.126225,3.7663028,3
15978544979995,-0.3062813,9.111869,3.7615173,3
15978547359109,-0.29192436,9.126225,3.7710886,3
15978549738224,-0.28713873,9.131011,3.7615173,3
15978552117338,-0.27756742,9.135797,3.7710886,3
15978554496453,-0.27756742,9.135797,3.737589,3
15978556875568,-0.2727818,9.126225,3.723232,3
15978559254682,-0.27756742,9.107083,3.737589,3
15978561633797,-0.28713873,9.097511,3.737589,3
15978564012911,-0.3062813,9.102298,3.751946,3
15978566392026,-0.31585258,9.092726,3.7423747,3
15978568771141,-0.3493521,9.102298,3.7328033,3
15978571150255,-0.33499518,9.097511,3.7280176,3
15978573529370,-0.31585258,9.092726,3.7423747,3
15978575908484,-0.3684947,9.12144,3.7471602,3
15978578287599,-0.38285163,9.097511,3.737589,3
15978580666713,-0.37806597,9.092726,3.737589,3
15978583045828,-0.38763726,9.107083,3.737589,3
15978585424943,-0.38763726,9.097511,3.7280176,3
15978587804057,-0.3924229,9.111869,3.723232,3
15978590183172,-0.38285163,9.116654,3.723232,3
15978592562286,-0.37328035,9.126225,3.7328033,3
15978594941401,-0.3684947,9.12144,3.7280176,3
15978597320516,-0.37328035,9.150154,3.7280176,3
15978599699630,-0.38285163,9.126225,3.7328033,3
15978602078693,-0.37328035,9.111869,3.7280176,3
15978604457807,-0.33499518,9.12144,3.7328033,3
15978606836922,-0.34456646,9.135797,3.723232,3
15978609216036,-0.3589234,9.150154,3.751946,3
15978611595151,-0.3684947,9.150154,3.751946,3
15978613974266,-0.37806597,9.145369,3.751946,3
15978616353380,-0.3589234,9.150154,3.7615173,3
15978618732495,-0.34456646,9.150154,3.7567315,3
15978621111609,-0.3589234,9.135797,3.7567315,3
15978623490724,-0.3684947,9.111869,3.7615173,3
15978625869838,-0.34456646,9.135797,3.7663028,3
15978628248953,-0.36370903,9.12144,3.7854455,3
15978630628068,-0.3684947,9.116654,3.7710886,3
15978633007182,-0.35413775,9.102298,3.751946,3
15978635386297,-0.3684947,9.145369,3.737589,3
15978637765411,-0.36370903,9.131011,3.7423747,3
15978640144526,-0.3684947,9.145369,3.751946,3
15978642523641,-0.3589234,9.126225,3.7615173,3
15978644902755,-0.34456646,9.135797,3.7471602,3
15978647281870,-0.3493521,9.131011,3.7471602,3
15978649660984,-0.3589234,9.145369,3.7423747,3
15978652040099,-0.32542387,9.126225,3.7471602,3
15978654419213,-0.34456646,9.126225,3.7184465,3
15978656798328,-0.33499518,9.116654,3.7423747,3
15978659177443,-0.33020952,9.131011,3.737589,3
15978661556557,-0.33020952,9.131011,3.7328033,3
15978663935672,-0.3397808,9.111869,3.737589,3
15978666314786,-0.32063824,9.12144,3.7423747,3
15978668693901,-0.33020952,9.12144,3.751946,3
15978671073016,-0.32063824,9.126225,3.7423747,3
15978673452130,-0.31585258,9.126225,3.737589,3
15978675831193,-0.29671,9.111869,3.7471602,3
15978678210307,-0.31106696,9.12144,3.7471602,3
15978680589422,-0.3062813,9.116654,3.751946,3
15978682968536,-0.31585258,9.111869,3.7280176,3
15978685347651,-0.29671,9.126225,3.723232,3
15978687726766,-0.30149564,9.107083,3.7136607,3
15978690105880,-0.31106696,9.097511,3.7328033,3
15978692484995,-0.31106696,9.107083,3.7423747,3
15978694864109,-0.31585258,9.135797,3.723232,3
15978697243224,-0.3397808,9.135797,3.737589,3
15978699622338,-0.35413775,9.116654,3.7567315,3
15978702001453,-0.36370903,9.102298,3.7423747,3
15978704380568,-0.3684947,9.111869,3.7471602,3
15978706759682,-0.38763726,9.111869,3.751946,3
15978709138797,-0.3924229,9.126225,3.7615173,3
15978711517911,-0.39720857,9.107083,3.7758741,3
15978713897026,-0.3924229,9.116654,3.7663028,3
15978716276141,-0.39720857,9.126225,3.7567315,3
15978718655255,-0.3924229,9.131011,3.7806597,3
15978721034370,-0.37806597,9.15494,3.7806597,3
15978723413432,-0.38763726,9.140582,3.7710886,3
15978725792599,-0.3684947,9.135797,3.7663028,3
15978728171713,-0.3684947,9.15494,3.7758741,3
15978730550828,-0.35413775,9.169296,3.7806597,3
15978732929943,-0.3493521,9.15494,3.7663028,3
15978735309057,-0.3397808,9.15494,3.7758741,3
15978737688172,-0.32542387,9.145369,3.751946,3
15978740067286,-0.31585258,9.12144,3.7567315,3
15978742446401,-0.31106696,9.131011,3.7615173,3
15978744825516,-0.30149564,9.131011,3.751946,3
15978747204578,-0.28713873,9.126225,3.7615173,3
15978749583745,-0.28235307,9.126225,3.7423747,3
15978751962859,-0.2727818,9.131011,3.723232,3
15978754341922,-0.27756742,9.135797,3.7328033,3
15978756721036,-0.27756742,9.12144,3.7280176,3
15978759100151,-0.28235307,9.107083,3.7471602,3
15978761479266,-0.28713873,9.131011,3.737589,3
15978763858380,-0.25842485,9.126225,3.7423747,3
15978766237495,-0.29192436,9.102298,3.7423747,3
15978768616609,-0.28713873,9.092726,3.751946,3
15978770995724,-0.28713873,9.107083,3.7423747,3
15978773374838,-0.28235307,9.12144,3.7471602,3
15978775753953,-0.29192436,9.116654,3.7423747,3
15978778133068,-0.3062813,9.12144,3.7471602,3
15978780512182,-0.31585258,9.111869,3.7471602,3
15978782891297,-0.32063824,9.116654,3.7663028,3
15978785270411,-0.33020952,9.116654,3.7423747,3
15978787649526,-0.33499518,9.102298,3.737589,3
15978790028641,-0.3493521,9.08794,3.7663028,3
15978792407755,-0.3589234,9.08794,3.7567315,3
15978794786870,-0.3397808,9.083155,3.7615173,3
15978797165984,-0.35413775,9.107083,3.7567315,3
15978799545099,-0.3397808,9.12144,3.7806597,3
15978801924213,-0.33499518,9.140582,3.7663028,3
15978804303328,-0.36370903,9.140582,3.7710886,3
15978806682443,-0.36370903,9.140582,3.7758741,3
15978809061557,-0.3493521,9.164511,3.7710886,3
15978811440672,-0.3397808,9.15494,3.7806597,3
15978813819786,-0.31106696,9.159725,3.7663028,3
15978816198901,-0.3062813,9.145369,3.7758741,3
15978818578016,-0.31106696,9.159725,3.7758741,3
15978820957078,-0.30149564,9.159725,3.7663028,3
15978823336245,-0.2727818,9.178867,3.7663028,3
15978825715307,-0.25842485,9.131011,3.7328033,3
15978828094422,-0.2536392,9.126225,3.7328033,3
15978830473536,-0.24885355,9.116654,3.7328033,3
15978832852651,-0.23449662,9.135797,3.7280176,3
15978835231766,-0.2105684,9.12144,3.7280176,3
15978837610880,-0.22013968,9.131011,3.723232,3
15978839989995,-0.23928227,9.116654,3.7088752,3
15978842369109,-0.22492532,9.111869,3.7184465,3
15978844748224,-0.2105684,9.116654,3.7184465,3
15978847127338,-0.22971097,9.111869,3.7040894,3
15978849506453,-0.22971097,9.140582,3.7136607,3
15978851885568,-0.22971097,9.131011,3.7280176,3
15978854264682,-0.25842485,9.12144,3.7280176,3
15978856643797,-0.25842485,9.131011,3.7280176,3
15978859022911,-0.3062813,9.140582,3.7184465,3
15978861402026,-0.31106696,9.126225,3.7280176,3
15978863781141,-0.3062813,9.145369,3.7184465,3
15978866160255,-0.33499518,9.145369,3.7136607,3
15978868539370,-0.3589234,9.159725,3.7423747,3
15978870918484,-0.3589234,9.131011,3.7471602,3
15978873297599,-0.37806597,9.12144,3.7567315,3
15978875676713,-0.3684947,9.131011,3.7567315,3
15978878055828,-0.38285163,9.102298,3.7615173,3
15978880434943,-0.3924229,9.107083,3.7615173,3
15978882814057,-0.39720857,9.107083,3.751946,3
15978885193172,-0.38285163,9.116654,3.751946,3
15978887572286,-0.37328035,9.126225,3.7710886,3
15978889951401,-0.35413775,9.12144,3.7998023,3
15978892330516,-0.3589234,9.116654,3.7758741,3
15978894709526,-0.3397808,9.12144,3.7758741,3
15978897088693,-0.3397808,9.107083,3.7663028,3
15978899467859,-0.3397808,9.12144,3.7615173,3
15978901846922,-0.32063824,9.12144,3.7663028,3
15978904226036,-0.28713873,9.12144,3.7615173,3
15978906605151,-0.30149564,9.116654,3.7854455,3
15978908984266,-0.27756742,9.12144,3.7710886,3
15978911363328,-0.2727818,9.12144,3.7854455,3
15978913742495,-0.27756742,9.126225,3.7854455,3
15978916121609,-0.2727818,9.135797,3.7663028,3
15978918500724,-0.24885355,9.140582,3.7615173,3
15978920879838,-0.23928227,9.145369,3.7710886,3
15978923258953,-0.2440679,9.150154,3.7663028,3
15978925638068,-0.23928227,9.150154,3.7567315,3
15978928017182,-0.26799613,9.145369,3.7615173,3
15978930396297,-0.26799613,9.12144,3.7567315,3
15978932775411,-0.26799613,9.116654,3.7663028,3
15978935154526,-0.2632105,9.126225,3.7567315,3
15978937533641,-0.2727818,9.126225,3.751946,3
15978939912755,-0.31585258,9.135797,3.737589,3
15978942291870,-0.3397808,9.131011,3.7423747,3
15978944670984,-0.3684947,9.145369,3.7328033,3
15978947050099,-0.38285163,9.150154,3.7280176,3
15978949429213,-0.38285163,9.150154,3.7136607,3
15978951808328,-0.41156548,9.150154,3.7184465,3
15978954187443,-0.41635114,9.140582,3.7184465,3
15978956566557,-0.41635114,9.126225,3.7088752,3
15978958945672,-0.41635114,9.126225,3.7136607,3
15978961324786,-0.41156548,9.150154,3.7136607,3
15978963703901,-0.39720857,9.159725,3.7136607,3
15978966083016,-0.35413775,9.12144,3.7136607,3
15978968462130,-0.34456646,9.116654,3.723232,3
15978970841245,-0.33020952,9.135797,3.7280176,3
15978973220359,-0.3062813,9.126225,3.7184465,3
15978975599422,-0.29671,9.116654,3.7136607,3
15978977978588,-0.2632105,9.116654,3.7471602,3
15978980357651,-0.26799613,9.097511,3.7471602,3
15978982736766,-0.2440679,9.107083,3.7423747,3
15978985115880,-0.24885355,9.08794,3.7471602,3
15978987494995,-0.21535404,9.08794,3.7471602,3
15978989874109,-0.2105684,9.078369,3.7710886,3
15978992253224,-0.2105684,9.097511,3.7423747,3
15978994632338,-0.22013968,9.12144,3.751946,3
15978997011453,-0.20578274,9.12144,3.7567315,3
15978999390568,-0.22492532,9.131011,3.7663028,3
15979001769682,-0.23928227,9.12144,3.7471602,3
15979004148797,-0.2536392,9.097511,3.7615173,3
15979006527911,-0.2632105,9.111869,3.7663028,3
15979008907026,-0.26799613,9.107083,3.7615173,3
15979011286141,-0.29192436,9.126225,3.751946,3
15979013665255,-0.3062813,9.140582,3.7423747,3
15979016044370,-0.31585258,9.131011,3.737589,3
15979018423484,-0.30149564,9.131011,3.7471602,3
15979020802599,-0.32542387,9.131011,3.7423747,3
15979023181713,-0.32063824,9.140582,3.7328033,3
15979025560828,-0.32063824,9.140582,3.7328033,3
15979027939891,-0.34456646,9.140582,3.751946,3
15979030319057,-0.3684947,9.116654,3.7423747,3
15979032698172,-0.38763726,9.107083,3.7615173,3
15979035077286,-0.37806597,9.12144,3.751946,3
15979037456401,-0.3589234,9.12144,3.7423747,3
15979039835516,-0.3684947,9.107083,3.7423747,3
15979042214630,-0.38763726,9.131011,3.7471602,3
15979044593745,-0.3684947,9.135797,3.737589,3
15979046972859,-0.37328035,9.135797,3.737589,3
15979049351974,-0.38763726,9.135797,3.7423747,3
15979051731036,-0.3924229,9.116654,3.7471602,3
15979054110203,-0.38285163,9.116654,3.737589,3
15979056489318,-0.37328035,9.131011,3.7615173,3
15979058868380,-0.38285163,9.164511,3.7710886,3
15979061247495,-0.3924229,9.126225,3.7567315,3
15979063626609,-0.37806597,9.140582,3.7471602,3
15979066005724,-0.37328035,9.150154,3.751946,3
15979068384838,-0.36370903,9.145369,3.751946,3
15979070763953,-0.3397808,9.135797,3.751946,3
15979073143068,-0.31106696,9.150154,3.7615173,3
15979075522182,-0.3062813,9.164511,3.7710886,3
15979077901297,-0.30149564,9.174082,3.7567315,3
15979080280411,-0.26799613,9.140582,3.751946,3
15979082659526,-0.2536392,9.12144,3.7806597,3
15979085038641,-0.23449662,9.140582,3.7758741,3
15979087417755,-0.23928227,9.12144,3.7663028,3
15979089796870,-0.22492532,9.111869,3.7615173,3
15979092175984,-0.22971097,9.111869,3.7710886,3
15979094555099,-0.22013968,9.111869,3.7663028,3
15979096934213,-0.23449662,9.126225,3.7758741,3
15979099313328,-0.24885355,9.145369,3.7615173,3
15979101692443,-0.26799613,9.145369,3.7710886,3
15979104071557,-0.27756742,9.135797,3.7663028,3
15979106450672,-0.31106696,9.131011,3.7615173,3
15979108829786,-0.30149564,9.116654,3.7423747,3
15979111208901,-0.31585258,9.097511,3.7471602,3
15979113588016,-0.32542387,9.097511,3.737589,3
15979115967130,-0.33499518,9.107083,3.7328033,3
15979118346245,-0.38763726,9.102298,3.7136607,3
15979120725359,-0.3924229,9.102298,3.7088752,3
15979123104474,-0.37328035,9.097511,3.7136607,3
15979125483588,-0.34456646,9.111869,3.7040894,3
15979127862703,-0.34456646,9.12144,3.7040894,3
15979130241818,-0.3493521,9.131011,3.694518,3
15979132620880,-0.3589234,9.126225,3.7088752,3
15979134999995,-0.33499518,9.111869,3.7328033,3
15979137379109,-0.33020952,9.111869,3.7184465,3
