t_ns,ax,ay,az,accuracy
19849503581826,-0.29192436,8.772088,4.5894337,3
19849505960992,-0.3397808,8.776874,4.4985065,3
19849508340055,-0.34456646,8.79123,4.4171505,3
19849510719117,-0.3493521,8.781659,4.4075794,3
19849513098180,-0.32063824,8.7577305,4.469793,3
19849515477242,-0.26799613,8.748159,4.5224347,3
19849517856305,-0.22492532,8.729017,4.546363,3
19849520235420,-0.17228323,8.729017,4.503292,3
19849522614430,-0.1052842,8.743374,4.4315076,3
19849524993492,-0.05742774,8.762517,4.359723,3
19849527372607,-0.02871387,8.762517,4.3357944,3
19849529751670,-0.02871387,8.7673025,4.3932223,3
19849532130732,-0.019142581,8.781659,4.4602213,3
19849534509795,-0.07178468,8.810373,4.5224347,3
19849536888805,-0.11964113,8.796016,4.5224347,3
19849539267920,-0.148355,8.815159,4.493721,3
19849541646982,-0.2105684,8.819944,4.4841495,3
19849544026045,-0.28235307,8.810373,4.479364,3
19849546405107,-0.33020952,8.815159,4.517649,3
19849548784170,-0.3589234,8.786445,4.584648,3
19849551163232,-0.3684947,8.786445,4.627719,3
19849553542295,-0.36370903,8.729017,4.6707897,3
19849555921357,-0.3397808,8.705089,4.666004,3
19849558300472,-0.30149564,8.681161,4.6564326,3
19849560679534,-0.22971097,8.662018,4.6468616,3
19849563058597,-0.15314065,8.63809,4.642076,3
19849565437659,-0.086141616,8.580662,4.6325045,3
19849567816722,-0.06699903,8.575876,4.6229334,3
19849570195784,-0.033499517,8.590233,4.6229334,3
19849572574847,0.0,8.60459,4.618148,3
19849574953909,0.014356935,8.595019,4.6229334,3
19849577332972,-0.023928227,8.623733,4.618148,3
19849579712034,-0.0526421,8.618947,4.6037908,3
19849582091097,-0.124426775,8.662018,4.613362,3
19849584470159,-0.2009971,8.676374,4.618148,3
19849586849222,-0.29671,8.729017,4.6325045,3
19849589228284,-0.40677986,8.743374,4.627719,3
19849591607399,-0.47377887,8.762517,4.651647,3
19849593986461,-0.5599205,8.800801,4.6325045,3
19849596365524,-0.6221339,8.805588,4.627719,3
19849598744586,-0.63170516,8.815159,4.6037908,3
19849601123649,-0.61734825,8.848659,4.5942197,3
19849603502711,-0.55034924,8.819944,4.5798626,3
19849605881774,-0.4546363,8.796016,4.6085763,3
19849608260836,-0.3589234,8.772088,4.5655055,3
19849610639899,-0.22971097,8.748159,4.551149,3
19849613018961,-0.11964113,8.762517,4.503292,3
19849615398024,-0.0047856453,8.738588,4.4458647,3
19849617777086,0.1052842,8.695518,4.4554358,3
19849620156149,0.15792629,8.700303,4.4458647,3
19849622535211,0.20578274,8.705089,4.421936,3
19849624914326,0.2105684,8.709874,4.412365,3
19849627293388,0.15792629,8.719446,4.402794,3
19849629672451,0.076570325,8.729017,4.402794,3
19849632051513,-0.0526421,8.772088,4.398008,3
19849634430576,-0.13878371,8.786445,4.426722,3
19849636809638,-0.31106696,8.810373,4.436293,3
19849639188701,-0.4642076,8.85823,4.4602213,3
19849641567763,-0.6269195,8.877372,4.493721,3
19849643946826,-0.72741807,8.906086,4.508078,3
19849646325836,-0.81834537,8.9348,4.546363,3
19849648704951,-0.8662018,8.915657,4.5942197,3
19849651084013,-0.8997013,8.886943,4.6037908,3
19849653463076,-0.8422736,8.863015,4.6372905,3
19849655842138,-0.7322037,8.834301,4.6564326,3
19849658221253,-0.6269195,8.815159,4.6755753,3
19849660600315,-0.4881358,8.738588,4.666004,3
19849662979378,-0.31585258,8.719446,4.642076,3
19849665358440,-0.12921242,8.685946,4.618148,3
19849667737503,0.033499517,8.666803,4.599005,3
19849670116565,0.18185452,8.652447,4.584648,3
19849672495628,0.25842485,8.642876,4.56072,3
19849674874690,0.29671,8.633304,4.5655055,3
19849677253753,0.32542387,8.657232,4.5415773,3
19849679632763,0.2727818,8.695518,4.5224347,3
19849682011878,0.15314065,8.705089,4.5415773,3
19849684390940,0.02871387,8.733803,4.546363,3
19849686770003,-0.124426775,8.776874,4.551149,3
19849689149065,-0.33499518,8.805588,4.56072,3
19849691528128,-0.49292147,8.819944,4.56072,3
19849693907242,-0.6652047,8.829515,4.5655055,3
19849696286305,-0.83748794,8.839087,4.5894337,3
19849698665367,-0.89491564,8.82473,4.584648,3
19849701044430,-0.90448695,8.819944,4.584648,3
19849703423492,-0.8662018,8.810373,4.570291,3
19849705802555,-0.7848458,8.79123,4.536792,3
19849708181617,-0.65084773,8.776874,4.517649,3
19849710560680,-0.47856453,8.743374,4.4745784,3
19849712939742,-0.32063824,8.695518,4.421936,3
19849715318805,-0.15314065,8.695518,4.398008,3
19849717697867,0.05742774,8.690732,4.3645086,3
19849720076930,0.18664017,8.743374,4.354937,3
19849722456045,0.32542387,8.733803,4.182654,3
19849724835055,0.55034924,8.532805,4.388437,3
19849727214170,0.32063824,8.772088,4.5320063,3
19849729593232,0.15314065,8.776874,4.4841495,3
19849731972295,0.28713873,8.676374,4.536792,3
19849734351357,-0.0047856453,8.752945,4.3357944,3
19849736730420,-0.35413775,8.9348,4.26401,3
19849739109482,-0.38285163,8.810373,4.316652,3
19849741488545,-0.57906306,8.743374,4.4745784,3
19849743867607,-0.89491564,8.877372,4.6325045,3
19849746246670,-0.94755775,8.867801,4.733003,3
19849748625732,-0.8757731,8.776874,4.733003,3
19849751004795,-0.94755775,8.796016,4.5655055,3
19849753383805,-0.9236295,8.834301,4.45065,3
19849755762920,-0.70348984,8.786445,4.4458647,3
19849758141982,-0.5455636,8.743374,4.4841495,3
19849760521097,-0.38285163,8.762517,4.5798626,3
19849762900159,-0.15792629,8.71466,4.6325045,3
19849765279222,0.076570325,8.685946,4.5942197,3
19849767658284,0.19142582,8.700303,4.4889355,3
19849770037347,0.33499518,8.7577305,4.398008,3
19849772416357,0.4354937,8.752945,4.359723,3
19849774795472,0.41156548,8.752945,4.3836513,3
19849777174534,0.3589234,8.781659,4.469793,3
19849779553597,0.2727818,8.800801,4.570291,3
19849781932659,0.124426775,8.800801,4.6037908,3
19849784311722,-0.0526421,8.829515,4.5798626,3
19849786690784,-0.2440679,8.882157,4.5415773,3
19849789069847,-0.43070808,8.9013,4.4889355,3
19849791448961,-0.6221339,8.891729,4.503292,3
19849793828024,-0.72741807,8.906086,4.551149,3
19849796207086,-0.7752745,8.9013,4.599005,3
19849798586149,-0.82313097,8.886943,4.627719,3
19849800965211,-0.7848458,8.877372,4.584648,3
19849803344274,-0.70348984,8.872586,4.517649,3
19849805723336,-0.55513483,8.85823,4.4554358,3
19849808102399,-0.38285163,8.810373,4.426722,3
19849810481461,-0.2009971,8.815159,4.4410787,3
19849812860524,-0.0047856453,8.781659,4.4745784,3
19849815239586,0.14356937,8.748159,4.508078,3
19849817618649,0.27756742,8.724232,4.4985065,3
19849819997659,0.3493521,8.752945,4.465007,3
19849822376774,0.3589234,8.743374,4.421936,3
19849824755836,0.36370903,8.738588,4.388437,3
19849827134899,0.30149564,8.776874,4.4075794,3
19849829514013,0.2009971,8.7577305,4.4410787,3
19849831893076,0.0526421,8.733803,4.465007,3
19849834272138,-0.13399807,8.7577305,4.493721,3
19849836651201,-0.29671,8.79123,4.4745784,3
19849839030263,-0.4546363,8.810373,4.4410787,3
19849841409326,-0.55513483,8.810373,4.4171505,3
19849843788388,-0.6221339,8.805588,4.421936,3
19849846167451,-0.6652047,8.796016,4.4458647,3
19849848546513,-0.65084773,8.796016,4.4841495,3
19849850925576,-0.6125626,8.796016,4.503292,3
19849853304638,-0.5312066,8.796016,4.479364,3
19849855683701,-0.40677986,8.772088,4.4315076,3
19849858062763,-0.28713873,8.762517,4.388437,3
19849860441826,-0.13878371,8.743374,4.398008,3
19849862820888,0.0047856453,8.724232,4.4171505,3
19849865199951,0.124426775,8.709874,4.436293,3
19849867579065,0.2105684,8.729017,4.4745784,3
19849869958128,0.2632105,8.748159,4.465007,3
19849872337190,0.26799613,8.700303,4.4554358,3
19849874716253,0.22013968,8.724232,4.436293,3
19849877095315,0.148355,8.719446,4.4075794,3
19849879474378,0.033499517,8.709874,4.4075794,3
19849881853440,-0.12921242,8.743374,4.4315076,3
19849884232503,-0.29671,8.776874,4.4889355,3
19849886611565,-0.45942193,8.79123,4.4985065,3
19849888990628,-0.5838487,8.79123,4.503292,3
19849891369690,-0.72263247,8.810373,4.479364,3
19849893748701,-0.79920274,8.863015,4.469793,3
19849896127815,-0.8422736,8.872586,4.4841495,3
19849898506930,-0.8470592,8.891729,4.503292,3
19849900885992,-0.79920274,8.877372,4.584648,3
19849903265055,-0.7369894,8.877372,4.6085763,3
19849905644117,-0.6412765,8.863015,4.599005,3
19849908023180,-0.52163535,8.848659,4.5798626,3
19849910402242,-0.37806597,8.819944,4.5655055,3
19849912781305,-0.23928227,8.829515,4.5320063,3
19849915160367,-0.1052842,8.829515,4.536792,3
19849917539430,-0.0047856453,8.815159,4.5559344,3
19849919918492,0.08135597,8.79123,4.570291,3
19849922297555,0.15314065,8.738588,4.584648,3
19849924676617,0.2009971,8.71466,4.584648,3
19849927055680,0.20578274,8.705089,4.546363,3
19849929434742,0.17228323,8.709874,4.536792,3
19849931813805,0.11485548,8.738588,4.5128636,3
19849934192920,0.033499517,8.738588,4.508078,3
19849936571982,-0.06699903,8.772088,4.5224347,3
19849938951045,-0.17706887,8.776874,4.5798626,3
19849941330107,-0.30149564,8.805588,4.5655055,3
19849943709170,-0.38285163,8.834301,4.551149,3
19849946088232,-0.46899325,8.839087,4.5655055,3
19849948467295,-0.55513483,8.848659,4.575077,3
19849950846357,-0.5982057,8.85823,4.584648,3
19849953225420,-0.6029913,8.863015,4.618148,3
19849955604482,-0.57427746,8.85823,4.6229334,3
19849957983545,-0.5168497,8.863015,4.613362,3
19849960362607,-0.4642076,8.843872,4.6037908,3
19849962741670,-0.4019942,8.82473,4.551149,3
19849965120732,-0.3062813,8.819944,4.5128636,3
19849967499795,-0.2105684,8.805588,4.493721,3
19849969878909,-0.11006984,8.810373,4.465007,3
19849972257972,-0.02871387,8.776874,4.4602213,3
19849974637034,0.023928227,8.738588,4.4745784,3
19849977016097,0.047856454,8.700303,4.479364,3
19849979395159,0.047856454,8.709874,4.465007,3
19849981774222,0.023928227,8.700303,4.4745784,3
19849984153284,-0.023928227,8.700303,4.4745784,3
19849986532347,-0.11006984,8.705089,4.4889355,3
19849988911409,-0.19142582,8.676374,4.4841495,3
19849991290472,-0.29192436,8.700303,4.5128636,3
19849993669534,-0.38763726,8.729017,4.5415773,3
19849996048597,-0.47856453,8.729017,4.5559344,3
19849998427659,-0.52163535,8.71466,4.551149,3
19850000806722,-0.5168497,8.719446,4.536792,3
19850003185784,-0.526421,8.695518,4.503292,3
19850005564847,-0.4881358,8.681161,4.479364,3
19850007943909,-0.4211368,8.681161,4.479364,3
19850010323024,-0.31585258,8.695518,4.469793,3
19850012702086,-0.20578274,8.671589,4.469793,3
19850015081149,-0.06699903,8.642876,4.479364,3
19850017460211,0.023928227,8.652447,4.4745784,3
19850019839274,0.11006984,8.681161,4.479364,3
19850022218336,0.18185452,8.719446,4.45065,3
19850024597399,0.20578274,8.738588,4.45065,3
19850026976461,0.18664017,8.7673025,4.4841495,3
19850029355524,0.148355,8.781659,4.546363,3
19850031734586,0.086141616,8.786445,4.575077,3
19850034113649,-0.023928227,8.781659,4.627719,3
19850036492711,-0.13399807,8.810373,4.6372905,3
19850038871774,-0.22013968,8.800801,4.6468616,3
19850041250836,-0.32542387,8.79123,4.6707897,3
19850043629951,-0.4019942,8.781659,4.6755753,3
19850046009013,-0.4546363,8.776874,4.685147,3
19850048388076,-0.4642076,8.772088,4.651647,3
19850050767138,-0.44985065,8.762517,4.613362,3
19850053146201,-0.42592242,8.7673025,4.584648,3
19850055525263,-0.37328035,8.781659,4.56072,3
19850057904326,-0.31106696,8.776874,4.56072,3
19850060283388,-0.23449662,8.7673025,4.5798626,3
19850062662451,-0.16271193,8.781659,4.570291,3
19850065041513,-0.11006984,8.79123,4.5655055,3
19850067420576,-0.076570325,8.796016,4.5415773,3
19850069799638,-0.07178468,8.810373,4.508078,3
19850072178701,-0.076570325,8.839087,4.508078,3
19850074557763,-0.124426775,8.867801,4.5415773,3
19850076936878,-0.18185452,8.867801,4.56072,3
19850079315940,-0.2440679,8.867801,4.5942197,3
19850081695003,-0.3493521,8.872586,4.6085763,3
19850084074065,-0.44027936,8.867801,4.599005,3
19850086453128,-0.49292147,8.843872,4.5798626,3
19850088832190,-0.53599226,8.819944,4.575077,3
19850091211201,-0.55034924,8.79123,4.551149,3
19850093590315,-0.53599226,8.7577305,4.536792,3
19850095969378,-0.47377887,8.743374,4.5415773,3
19850098348440,-0.40677986,8.709874,4.5320063,3
19850100727503,-0.3397808,8.690732,4.503292,3
19850103106565,-0.23928227,8.685946,4.4985065,3
19850105485628,-0.148355,8.690732,4.4745784,3
19850107864690,-0.08135597,8.690732,4.4889355,3
19850110243753,-0.0526421,8.700303,4.4841495,3
19850112622815,-0.019142581,8.700303,4.465007,3
19850115001878,-0.033499517,8.71466,4.503292,3
19850117380992,-0.06699903,8.729017,4.508078,3
19850119760055,-0.15314065,8.743374,4.517649,3
19850122139117,-0.22492532,8.743374,4.546363,3
19850124518180,-0.32542387,8.7577305,4.56072,3
19850126897242,-0.38285163,8.796016,4.56072,3
19850129276305,-0.45942193,8.810373,4.575077,3
19850131655367,-0.5168497,8.79123,4.5894337,3
19850134034430,-0.5407779,8.786445,4.584648,3
19850136413492,-0.5455636,8.7673025,4.570291,3
19850138792555,-0.5168497,8.724232,4.56072,3
19850141171617,-0.44027936,8.700303,4.5320063,3
19850143550680,-0.40677986,8.705089,4.503292,3
19850145929742,-0.35413775,8.700303,4.4841495,3
19850148308805,-0.26799613,8.705089,4.4889355,3
19850150687920,-0.18185452,8.71466,4.4889355,3
19850153066982,-0.1052842,8.724232,4.479364,3
19850155446045,-0.014356935,8.729017,4.4841495,3
19850157825107,0.033499517,8.762517,4.4745784,3
19850160204170,0.07178468,8.772088,4.465007,3
19850162583232,0.0526421,8.79123,4.4602213,3
19850164962295,0.014356935,8.805588,4.469793,3
19850167341357,-0.038285162,8.810373,4.4985065,3
19850169720420,-0.11006984,8.82473,4.5272202,3
19850172099482,-0.18664017,8.839087,4.5655055,3
19850174478545,-0.26799613,8.82473,4.5894337,3
19850176857607,-0.34456646,8.839087,4.584648,3
19850179236670,-0.4019942,8.819944,4.5415773,3
19850181615732,-0.43070808,8.781659,4.5320063,3
19850183994795,-0.41635114,8.738588,4.551149,3
19850186373857,-0.4019942,8.71466,4.6037908,3
19850188752920,-0.36370903,8.71466,4.6037908,3
19850191132034,-0.31106696,8.719446,4.5224347,3
19850193511097,-0.23928227,8.700303,4.412365,3
19850195890159,-0.19621146,8.729017,4.345366,3
19850198269222,-0.13399807,8.743374,4.388437,3
19850200648284,-0.076570325,8.724232,4.469793,3
19850203027347,-0.062213387,8.724232,4.536792,3
19850205406409,-0.08135597,8.748159,4.5415773,3
19850207785472,-0.09571291,8.796016,4.4889355,3
19850210164534,-0.1052842,8.781659,4.45065,3
19850212543597,-0.17706887,8.79123,4.4889355,3
19850214922659,-0.22971097,8.819944,4.536792,3
19850217301722,-0.28713873,8.834301,4.6229334,3
19850219680784,-0.37806597,8.839087,4.6899323,3
19850222059847,-0.37806597,8.829515,4.699504,3
19850224438909,-0.3684947,8.810373,4.685147,3
19850226817972,-0.3397808,8.800801,4.6468616,3
19850229197086,-0.28713873,8.7673025,4.6229334,3
19850231576149,-0.19621146,8.762517,4.627719,3
19850233955211,-0.11006984,8.724232,4.6037908,3
19850236334274,-0.0047856453,8.700303,4.584648,3
19850238713336,0.09571291,8.690732,4.5559344,3
19850241092399,0.18185452,8.685946,4.503292,3
19850243471461,0.26799613,8.700303,4.4315076,3
19850245850524,0.27756742,8.71466,4.359723,3
19850248229586,0.28235307,8.743374,4.345366,3
19850250608649,0.23449662,8.776874,4.3836513,3
19850252987711,0.17706887,8.800801,4.4171505,3
19850255366774,0.0526421,8.800801,4.4315076,3
19850257745836,-0.124426775,8.829515,4.4171505,3
19850260124899,-0.28713873,8.872586,4.4075794,3
19850262503961,-0.43070808,8.863015,4.4171505,3
19850264883024,-0.5838487,8.886943,4.45065,3
19850267262138,-0.66999036,8.877372,4.4985065,3
19850269641201,-0.7704889,8.863015,4.536792,3
19850272020263,-0.76570326,8.834301,4.5415773,3
19850274399326,-0.7322037,8.829515,4.5320063,3
19850276778388,-0.6556334,8.843872,4.517649,3
19850279157451,-0.47377887,8.815159,4.503292,3
19850281536513,-0.29192436,8.781659,4.4985065,3
19850283915524,-0.086141616,8.748159,4.4889355,3
19850286294638,0.11964113,8.719446,4.5128636,3
19850288673701,0.31106696,8.685946,4.5415773,3
19850291052763,0.4546363,8.666803,4.517649,3
19850293431826,0.56470615,8.676374,4.4985065,3
19850295810888,0.57427746,8.671589,4.493721,3
19850298189951,0.55034924,8.681161,4.4841495,3
19850300569013,0.4546363,8.671589,4.493721,3
19850302948076,0.27756742,8.671589,4.4985065,3
19850305327138,0.05742774,8.724232,4.5320063,3
19850307706253,-0.13878371,8.762517,4.5415773,3
19850310085315,-0.34456646,8.7673025,4.5320063,3
19850312464378,-0.5838487,8.776874,4.5272202,3
19850314843440,-0.7800602,8.796016,4.517649,3
19850317222503,-0.8997013,8.800801,4.503292,3
19850319601565,-1.0001999,8.810373,4.503292,3
19850321980628,-1.0145568,8.815159,4.493721,3
19850324359690,-0.9523434,8.843872,4.4889355,3
19850326738753,-0.89013004,8.829515,4.4745784,3
19850329117815,-0.7609176,8.863015,4.45065,3
19850331496878,-0.5838487,8.863015,4.469793,3
19850333875940,-0.3924229,8.863015,4.4458647,3
19850336255003,-0.22013968,8.853444,4.4554358,3
19850338634065,-0.047856454,8.819944,4.469793,3
19850341013128,0.124426775,8.819944,4.4889355,3
19850343392190,0.23449662,8.819944,4.5128636,3
19850345771305,0.31585258,8.762517,4.5272202,3
19850348150367,0.37806597,8.743374,4.536792,3
19850350529430,0.35413775,8.709874,4.5272202,3
19850352908492,0.32542387,8.705089,4.536792,3
19850355287555,0.27756742,8.685946,4.5415773,3
19850357666617,0.15314065,8.676374,4.546363,3
19850360045680,0.05742774,8.671589,4.5655055,3
19850362424742,-0.038285162,8.685946,4.551149,3
19850364803805,-0.16271193,8.695518,4.5415773,3
19850367182867,-0.2632105,8.748159,4.5320063,3
19850369561930,-0.33499518,8.772088,4.5272202,3
19850371940992,-0.37806597,8.772088,4.508078,3
19850374320055,-0.38763726,8.7673025,4.5272202,3
19850376699117,-0.3684947,8.786445,4.546363,3
19850379078180,-0.36370903,8.819944,4.570291,3
19850381457242,-0.33020952,8.800801,4.584648,3
19850383836357,-0.29192436,8.79123,4.5559344,3
19850386215367,-0.2632105,8.805588,4.575077,3
19850388594482,-0.18185452,8.79123,4.5894337,3
19850390973545,-0.07178468,8.829515,4.5942197,3
19850393352607,-0.043070808,8.810373,4.599005,3
19850395731670,0.019142581,8.7673025,4.618148,3
19850398110732,0.10049855,8.719446,4.6085763,3
19850400489795,0.14356937,8.685946,4.584648,3
19850402868857,0.15314065,8.719446,4.536792,3
19850405247920,0.15792629,8.724232,4.5128636,3
19850407626982,0.14356937,8.705089,4.5128636,3
19850410006045,0.12921242,8.709874,4.4889355,3
19850412385107,0.047856454,8.7673025,4.4554358,3
19850414764117,0.014356935,8.752945,4.4410787,3
19850417143232,-0.05742774,8.786445,4.4171505,3
19850419522295,-0.14356937,8.810373,4.4315076,3
19850421901357,-0.2440679,8.872586,4.4410787,3
19850424280420,-0.31106696,8.867801,4.469793,3
19850426659534,-0.4019942,8.85823,4.508078,3
19850429038597,-0.47377887,8.886943,4.5559344,3
19850431417659,-0.5168497,8.882157,4.551149,3
19850433796722,-0.5455636,8.867801,4.56072,3
19850436175784,-0.51206404,8.872586,4.5655055,3
19850438554847,-0.4833502,8.867801,4.5798626,3
19850440933909,-0.43070808,8.843872,4.584648,3
19850443312972,-0.34456646,8.82473,4.6085763,3
19850445692034,-0.22013968,8.776874,4.6325045,3
19850448071097,-0.08135597,8.762517,4.618148,3
19850450450159,0.076570325,8.733803,4.6325045,3
19850452829222,0.2440679,8.724232,4.6325045,3
19850455208284,0.38285163,8.709874,4.642076,3
19850457587347,0.49292147,8.724232,4.6468616,3
19850459966409,0.6125626,8.71466,4.6612186,3
19850462345472,0.6556334,8.700303,4.6612186,3
19850464724586,0.66041905,8.719446,4.6325045,3
19850467103649,0.63170516,8.7577305,4.6085763,3
19850469482711,0.57427746,8.79123,4.5798626,3
19850471861774,0.45942193,8.805588,4.5798626,3
19850474240836,0.31106696,8.810373,4.613362,3
19850476619899,0.18664017,8.819944,4.5894337,3
19850478998961,0.062213387,8.834301,4.5655055,3
19850481378024,-0.043070808,8.834301,4.551149,3
19850483757086,-0.124426775,8.834301,4.5128636,3
19850486136149,-0.18664017,8.819944,4.4985065,3
19850488515211,-0.20578274,8.82473,4.4889355,3
19850490894274,-0.16749759,8.819944,4.4554358,3
19850493273336,-0.11006984,8.834301,4.3836513,3
19850495652399,-0.043070808,8.815159,4.3357944,3
19850498031461,0.019142581,8.810373,4.3070807,3
19850500410524,0.10049855,8.800801,4.316652,3
19850502789586,0.18664017,8.781659,4.331009,3
19850505168701,0.23928227,8.7673025,4.331009,3
19850507547763,0.29192436,8.748159,4.3357944,3
19850509926826,0.31106696,8.762517,4.3070807,3
19850512305888,0.30149564,8.762517,4.302295,3
19850514684951,0.2536392,8.752945,4.321438,3
19850517064013,0.17706887,8.719446,4.3836513,3
19850519443076,0.10049855,8.743374,4.4410787,3
19850521822138,-0.0047856453,8.743374,4.508078,3
19850524201201,-0.08135597,8.729017,4.546363,3
19850526580263,-0.2009971,8.729017,4.5559344,3
19850528959326,-0.28713873,8.733803,4.546363,3
19850531338388,-0.36370903,8.719446,4.5415773,3
19850533717451,-0.4211368,8.709874,4.584648,3
19850536096513,-0.44506502,8.695518,4.6325045,3
19850538475576,-0.4211368,8.690732,4.651647,3
19850540854638,-0.36370903,8.685946,4.6468616,3
19850543233701,-0.2632105,8.671589,4.651647,3
19850545612815,-0.17706887,8.642876,4.613362,3
19850547991878,-0.09092726,8.642876,4.5798626,3
19850550370940,0.047856454,8.63809,4.570291,3
19850552750003,0.148355,8.63809,4.551149,3
19850555129065,0.25842485,8.647661,4.5272202,3
19850557508128,0.33499518,8.671589,4.4985065,3
19850559887190,0.38285163,8.709874,4.4745784,3
19850562266253,0.38285163,8.733803,4.4458647,3
19850564645315,0.36370903,8.762517,4.426722,3
19850567024378,0.32542387,8.800801,4.45065,3
19850569403440,0.2632105,8.819944,4.4458647,3
19850571782503,0.15314065,8.839087,4.465007,3
19850574161565,0.02871387,8.863015,4.4841495,3
19850576540628,-0.07178468,8.853444,4.4985065,3
19850578919742,-0.18185452,8.848659,4.503292,3
19850581298753,-0.3062813,8.853444,4.493721,3
19850583677815,-0.4019942,8.839087,4.4841495,3
19850586056878,-0.4833502,8.853444,4.479364,3
19850588435992,-0.5407779,8.843872,4.4745784,3
19850590815055,-0.53599226,8.82473,4.469793,3
19850593194117,-0.52163535,8.781659,4.493721,3
19850595573180,-0.46899325,8.776874,4.5128636,3
19850597952242,-0.37806597,8.796016,4.479364,3
19850600331305,-0.2632105,8.786445,4.503292,3
19850602710367,-0.14356937,8.776874,4.5128636,3
19850605089430,-0.009571291,8.772088,4.546363,3
19850607468492,0.13399807,8.748159,4.546363,3
19850609847555,0.23928227,8.762517,4.56072,3
19850612226617,0.35413775,8.7673025,4.56072,3
19850614605680,0.43070808,8.781659,4.551149,3
19850616984742,0.49292147,8.800801,4.5415773,3
19850619363805,0.5312066,8.810373,4.517649,3
19850621742867,0.5694918,8.834301,4.536792,3
19850624121930,0.5838487,8.834301,4.5894337,3
19850626501045,0.57427746,8.863015,4.618148,3
19850628880107,0.53599226,8.891729,4.651647,3
19850631259170,0.51206404,8.9013,4.6612186,3
19850633638232,0.44985065,8.9013,4.6468616,3
19850636017295,0.38763726,8.867801,4.613362,3
19850638396357,0.33020952,8.867801,4.613362,3
19850640775420,0.22971097,8.848659,4.613362,3
19850643154482,0.17228323,8.82473,4.6037908,3
19850645533545,0.1052842,8.834301,4.6229334,3
19850647912607,0.038285162,8.834301,4.6085763,3
19850650291670,-0.014356935,8.815159,4.5655055,3
19850652670732,-0.043070808,8.805588,4.4985065,3
19850655049795,-0.07178468,8.786445,4.479364,3
19850657428857,-0.09571291,8.762517,4.479364,3
19850659807920,-0.11006984,8.772088,4.493721,3
19850662186982,-0.1052842,8.7673025,4.508078,3
19850664566045,-0.124426775,8.786445,4.508078,3
19850666945159,-0.13878371,8.805588,4.45065,3
19850669324222,-0.16749759,8.800801,4.421936,3
19850671703284,-0.19621146,8.800801,4.4171505,3
19850674082347,-0.2105684,8.805588,4.4171505,3
19850676461409,-0.2440679,8.772088,4.426722,3
19850678840472,-0.25842485,8.781659,4.436293,3
19850681219534,-0.2727818,8.7577305,4.4315076,3
19850683598597,-0.25842485,8.743374,4.421936,3
19850685977659,-0.23449662,8.724232,4.369294,3
19850688356722,-0.22013968,8.709874,4.3788652,3
19850690735784,-0.18185452,8.676374,4.3740797,3
19850693114847,-0.14356937,8.681161,4.3836513,3
19850695493909,-0.09092726,8.690732,4.3645086,3
19850697872972,-0.047856454,8.695518,4.3405805,3
19850700252034,0.0047856453,8.729017,4.331009,3
19850702631097,0.05742774,8.719446,4.3262234,3
19850705010159,0.086141616,8.738588,4.331009,3
19850707389222,0.11006984,8.752945,4.3645086,3
19850709768284,0.18185452,8.772088,4.4075794,3
19850712147399,0.21535404,8.772088,4.4889355,3
19850714526461,0.22492532,8.303095,4.220939,3
19850716905524,0.2440679,8.288737,4.546363,3
19850719284586,0.59342,9.044869,4.551149,3
19850721663649,0.21535404,9.202796,4.369294,3
19850724042711,0.32542387,8.49452,4.4889355,3
19850726421774,0.71306115,8.3174515,4.6899323,3
19850728800836,0.4019942,8.5423765,4.833502,3
19850731179899,0.57906306,9.016156,4.6899323,3
19850733558961,0.53599226,9.12144,4.23051,3
19850735938024,0.4211368,8.920443,4.2161536,3
19850738317086,0.44027936,8.872586,4.6707897,3
19850740696149,0.47377887,8.886943,5.0823555,3
19850743075211,0.47377887,8.863015,5.15414,3
19850745454274,0.31106696,8.695518,4.938786,3
19850747833336,0.45942193,8.671589,4.3405805,3
19850750212399,0.2105684,8.7577305,4.0965123,3
19850752591513,0.32063824,8.484949,3.871587,3
19850754970576,0.27756742,8.49452,3.8955152,3
19850757349638,0.13399807,8.738588,3.7806597,3
19850759728701,0.15792629,8.867801,3.4983068,3
19850762107763,0.019142581,8.829515,3.641876,3
19850764486826,0.033499517,8.786445,4.019942,3
19850766865888,-0.05742774,8.843872,4.570291,3
19850769244951,-0.0047856453,8.7673025,4.7138605,3
19850771624013,-0.019142581,8.877372,4.469793,3
19850774003076,-0.148355,9.097511,4.220939,3
19850776382138,-0.124426775,9.164511,4.182654,3
19850778761201,-0.22492532,9.107083,4.666004,3
19850781140263,-0.2440679,8.963513,5.1589255,3
19850783519326,-0.33499518,8.9348,5.4412785,3
19850785898388,-0.34456646,8.882157,5.2546387,3
19850788277451,-0.33499518,8.829515,4.7856455,3
19850790656513,-0.3589234,8.839087,4.388437,3
19850793035576,-0.31106696,8.939586,4.2927237,3
19850795414690,-0.4881358,8.953942,4.627719,3
19850797793753,-0.4642076,8.738588,4.8239303,3
19850800172815,-0.6795616,8.800801,5.096712,3
19850802551878,-0.8662018,8.810373,5.0823555,3
19850804930940,-1.0193424,8.705089,4.9722853,3
19850807310003,-1.1294123,8.662018,4.895715,3
19850809689065,-1.1916257,8.657232,4.8909297,3
19850812068128,-1.1533405,8.5423765,5.072784,3
19850814447190,-0.8709874,8.398808,5.316852,3
19850816826253,-0.65084773,8.408379,5.6470613,3
19850819205315,-0.3397808,8.413164,5.608776,3
19850821584378,0.014356935,8.456235,5.3216376,3
19850823963440,0.2727818,8.571091,4.871787,3
19850826342503,0.55034924,8.71466,4.4171505,3
19850828721565,0.6556334,8.772088,4.106084,3
19850831100628,0.80877405,8.7673025,4.0295134,3
19850833479690,0.80877405,8.7673025,4.254439,3
19850835858701,0.8039884,8.71466,4.4315076,3
19850838237867,0.8039884,8.681161,4.517649,3
19850840616930,0.7848458,8.609376,4.4602213,3
19850842995992,0.7369894,8.609376,4.345366,3
19850845375055,0.65084773,8.571091,4.240082,3
19850847754117,0.5886344,8.566305,4.3262234,3
19850850133180,0.45942193,8.595019,4.4841495,3
19850852512242,0.32063824,8.671589,4.6229334,3
19850854891305,0.13399807,8.772088,4.6707897,3
19850857270367,-0.019142581,8.7577305,4.5415773,3
19850859649430,-0.22492532,8.877372,4.4745784,3
19850862028492,-0.42592242,8.9108715,4.5415773,3
19850864407555,-0.53599226,8.815159,4.4841495,3
19850866786617,-0.6795616,8.786445,4.5894337,3
19850869165680,-0.65084773,8.7673025,4.8239303,3
19850871544742,-0.55513483,8.676374,5.0344987,3
19850873923805,-0.4546363,8.623733,5.015356,3
19850876302867,-0.23928227,8.719446,4.800002,3
19850878681982,0.019142581,8.743374,4.465007,3
19850881060992,0.30149564,8.748159,4.211368,3
19850883440107,0.57427746,8.7673025,4.206582,3
19850885819170,0.8135597,8.776874,4.354937,3
19850888198232,0.95712906,8.681161,4.546363,3
19850890577295,1.0863415,8.623733,4.666004,3
19850892956357,1.1102697,8.709874,4.627719,3
19850895335420,1.1150553,8.743374,4.469793,3
19850897714482,1.105484,8.729017,4.2831526,3
19850900093545,1.0432707,8.7673025,4.206582,3
19850902472607,1.0145568,8.748159,4.273581,3
19850904851670,0.95712906,8.705089,4.479364,3
19850907230732,0.94755775,8.671589,4.642076,3
19850909609795,0.91405827,8.724232,4.7042894,3
19850911988857,0.94755775,8.695518,4.5655055,3
19850914367920,0.9762716,8.729017,4.354937,3
19850916746982,1.0049855,8.819944,4.2592244,3
19850919126045,1.0049855,8.810373,4.23051,3
19850921505107,1.0001999,8.729017,4.197011,3
19850923884222,0.98584294,8.772088,4.287938,3
19850926263284,0.9523434,8.752945,4.4554358,3
19850928642347,0.9619147,8.623733,4.5655055,3
19850931021409,0.94277215,8.676374,4.6372905,3
19850933400472,0.8853444,8.7673025,4.56072,3
19850935779534,0.8039884,8.695518,4.3501515,3
19850938158597,0.7369894,8.676374,4.26401,3
19850940537659,0.6221339,8.724232,4.426722,3
19850942916722,0.43070808,8.71466,4.7856455,3
19850945295784,0.2727818,8.618947,5.029713,3
19850947674847,0.1052842,8.676374,5.1206403,3
19850950053909,-0.033499517,8.805588,5.020142,3
19850952432972,-0.16271193,8.810373,4.843073,3
19850954812034,-0.25842485,8.848659,4.642076,3
19850957191097,-0.39720857,8.963513,4.5798626,3
19850959570159,-0.5072784,8.987442,4.6468616,3
19850961949222,-0.57906306,8.886943,4.733003,3
19850964328284,-0.5982057,8.925228,4.761717,3
19850966707347,-0.66041905,8.944371,4.546363,3
19850969086461,-0.75613195,8.848659,4.3262234,3
19850971465524,-0.72741807,8.853444,4.278367,3
19850973844586,-0.8805587,8.815159,4.4554358,3
19850976223649,-0.98584294,8.705089,4.6803613,3
19850978602711,-1.0911272,8.657232,4.7712884,3
19850980981774,-1.2011969,8.609376,4.6085763,3
19850983360836,-1.2634103,8.585447,4.331009,3
19850985739899,-1.2346965,8.647661,4.1635113,3
19850988118961,-1.2059826,8.618947,4.115655,3
19850990498024,-1.1294123,8.623733,4.211368,3
19850992877086,-0.9906286,8.633304,4.287938,3
19850995256149,-0.8662018,8.709874,4.45065,3
19850997635211,-0.72741807,8.695518,4.4554358,3
19851000014274,-0.63170516,8.772088,4.398008,3
19851002393336,-0.5694918,8.843872,4.278367,3
19851004772399,-0.55513483,8.872586,4.2352962,3
19851007151461,-0.5838487,8.877372,4.302295,3
19851009530576,-0.5982057,8.886943,4.493721,3
19851011909586,-0.64606214,8.829515,4.7808595,3
19851014288701,-0.6652047,8.733803,4.991428,3
19851016667763,-0.6795616,8.762517,5.111069,3
19851019046826,-0.6843473,8.79123,5.0009995,3
19851021425888,-0.70348984,8.7673025,4.74736,3
19851023804951,-0.6652047,8.7673025,4.584648,3
19851026184013,-0.66999036,8.79123,4.694718,3
19851028563076,-0.6891329,8.762517,4.9435716,3
19851030942138,-0.7082755,8.690732,5.111069,3
19851033321201,-0.7082755,8.71466,5.178068,3
19851035700263,-0.7322037,8.738588,5.087141,3
19851038079326,-0.6843473,8.786445,4.9435716,3
19851040458388,-0.6221339,8.834301,4.7569313,3
19851042837451,-0.5694918,8.853444,4.5798626,3
19851045216513,-0.44985065,8.82473,4.536792,3
19851047595576,-0.30149564,8.882157,4.723432,3
19851049974638,-0.23928227,8.819944,4.847859,3
19851052353753,-0.22013968,8.834301,4.8765726,3
19851054732763,-0.2009971,8.915657,4.790431,3
19851057111878,-0.24885355,8.958728,4.6372905,3
19851059490940,-0.2727818,8.953942,4.421936,3
19851061870003,-0.27756742,8.977871,4.3357944,3
19851064249065,-0.31585258,8.949157,4.4075794,3
19851066628128,-0.34456646,8.829515,4.56072,3
19851069007190,-0.3062813,8.776874,4.6468616,3
19851071386253,-0.3493521,8.848659,4.5942197,3
19851073765315,-0.4019942,8.772088,4.331009,3
19851076144378,-0.45942193,8.762517,4.1874394,3
19851078523440,-0.55513483,8.85823,4.197011,3
19851080902503,-0.65084773,8.9013,4.321438,3
19851083281565,-0.74177504,8.724232,4.3405805,3
19851085660628,-0.7752745,8.719446,4.2975097,3
19851088039690,-0.9284152,8.776874,4.354937,3
19851090418753,-0.9619147,8.671589,4.5272202,3
19851092797815,-1.0001999,8.618947,4.5942197,3
19851095176878,-1.0576276,8.657232,4.3788652,3
19851097555992,-1.0624132,8.705089,4.125226,3
19851099935003,-1.0336994,8.685946,4.072584,3
19851102314065,-0.9810573,8.729017,4.278367,3
19851104693180,-0.9762716,8.738588,4.517649,3
19851107072242,-0.8853444,8.671589,4.5415773,3
19851109451305,-0.75613195,8.700303,4.4410787,3
19851111830367,-0.61734825,8.7577305,4.254439,3
19851114209430,-0.5312066,8.7577305,4.220939,3
19851116588492,-0.3684947,8.681161,4.278367,3
19851118967555,-0.24885355,8.700303,4.402794,3
19851121346617,-0.16749759,8.705089,4.5415773,3
19851123725680,-0.09092726,8.690732,4.618148,3
19851126104742,-0.0526421,8.695518,4.642076,3
19851128483805,-0.09571291,8.700303,4.56072,3
19851130862867,-0.18185452,8.700303,4.4315076,3
19851133241930,-0.26799613,8.705089,4.359723,3
19851135620992,-0.3589234,8.733803,4.4889355,3
19851138000055,-0.44985065,8.776874,4.694718,3
19851140379117,-0.52163535,8.729017,4.776074,3
19851142758180,-0.526421,8.762517,4.74736,3
19851145137242,-0.47377887,8.810373,4.6755753,3
19851147516305,-0.37328035,8.839087,4.584648,3
19851149895420,-0.2632105,8.82473,4.584648,3
19851152274482,-0.124426775,8.786445,4.618148,3
19851154653545,0.02871387,8.786445,4.642076,3
19851157032607,0.15792629,8.7673025,4.685147,3
19851159411670,0.28713873,8.752945,4.733003,3
19851161790732,0.37806597,8.7673025,4.7282176,3
19851164169795,0.47377887,8.729017,4.642076,3
19851166548857,0.5312066,8.685946,4.5128636,3
19851168927920,0.56470615,8.685946,4.469793,3
19851171306982,0.5455636,8.657232,4.479364,3
19851173686045,0.5455636,8.585447,4.508078,3
19851176065107,0.5455636,8.56152,4.5224347,3
19851178444170,0.49292147,8.585447,4.493721,3
19851180823232,0.44027936,8.590233,4.4171505,3
19851183202295,0.37806597,8.599805,4.3405805,3
19851185581357,0.27756742,8.63809,4.3262234,3
19851187960420,0.16271193,8.82473,4.493721,3
19851190339534,0.043070808,8.489735,4.125226,3
19851192718597,-0.076570325,8.786445,4.4458647,3
19851195097659,-0.11964113,8.776874,4.5272202,3
19851197476722,-0.33499518,8.662018,4.733003,3
19851199855784,-0.18664017,8.642876,4.5559344,3
19851202234847,-0.3924229,8.839087,4.465007,3
19851204613909,-0.28713873,8.7673025,4.254439,3
19851206992972,-0.32063824,8.743374,4.45065,3
19851209372034,-0.22971097,8.752945,4.5224347,3
19851211751045,-0.25842485,8.886943,4.56072,3
19851214130159,-0.22013968,8.748159,4.402794,3
19851216509222,-0.08135597,8.829515,4.359723,3
19851218888284,-0.23449662,8.915657,4.3262234,3
19851221267347,-0.2536392,8.9013,4.2975097,3
19851223646409,-0.3397808,8.819944,4.3118663,3
19851226025472,-0.41156548,8.915657,4.278367,3
19851228404534,-0.57906306,8.930014,4.302295,3
19851230783545,-0.64606214,8.7577305,4.287938,3
19851233162659,-0.6843473,8.85823,4.3932223,3
19851235541774,-0.81834537,8.805588,4.254439,3
19851237920836,-0.80877405,8.839087,4.254439,3
19851240299899,-0.80877405,8.776874,4.206582,3
19851242678961,-0.79920274,8.877372,4.278367,3
19851245058024,-0.7513463,8.819944,4.321438,3
19851247437086,-0.65084773,8.776874,4.3405805,3
19851249816149,-0.5886344,8.872586,4.321438,3
19851252195211,-0.5886344,8.930014,4.287938,3
19851254574274,-0.5168497,8.896515,4.2975097,3
19851256953336,-0.45942193,8.949157,4.321438,3
19851259332399,-0.47377887,9.035298,4.331009,3
19851261711461,-0.4642076,9.001799,4.2927237,3
19851264090524,-0.44985065,9.01137,4.3501515,3
19851266469586,-0.44985065,9.035298,4.3788652,3
19851268848649,-0.46899325,9.064013,4.421936,3
19851271227711,-0.44506502,8.9826565,4.388437,3
19851273606774,-0.4211368,9.044869,4.4075794,3
19851275985836,-0.4019942,9.025727,4.426722,3
19851278364899,-0.30149564,8.997013,4.4745784,3
19851280743961,-0.26799613,8.977871,4.4889355,3
19851283123024,-0.124426775,8.997013,4.436293,3
19851285502138,-0.11485548,8.977871,4.412365,3
19851287881201,0.033499517,8.953942,4.354937,3
19851290260263,0.06699903,8.963513,4.412365,3
19851292639326,0.19142582,8.915657,4.3836513,3
19851295018388,0.27756742,8.886943,4.4171505,3
19851297397451,0.37806597,8.863015,4.398008,3
19851299776513,0.4881358,8.9013,4.4602213,3
19851302155576,0.5838487,8.877372,4.503292,3
19851304534638,0.7322037,8.853444,4.493721,3
19851306913701,0.8327023,8.853444,4.5224347,3
19851309292763,0.971486,8.786445,4.508078,3
19851311671826,1.0336994,8.752945,4.5798626,3
19851314050888,1.0911272,8.705089,4.6037908,3
19851316429951,1.119841,8.690732,4.6468616,3
19851318809013,1.1006985,8.618947,4.6085763,3
19851321188076,1.052842,8.662018,4.627719,3
19851323567138,0.95712906,8.595019,4.642076,3
19851325946253,0.85184485,8.566305,4.694718,3
19851328325263,0.7178468,8.52802,4.718646,3
19851330704378,0.5982057,8.571091,4.694718,3
19851333083440,0.4642076,8.5423765,4.709075,3
19851335462503,0.37328035,8.556734,4.723432,3
19851337841565,0.32063824,8.599805,4.761717,3
19851340220628,0.33020952,8.599805,4.7712884,3
19851342599690,0.3684947,8.590233,4.766503,3
19851344978753,0.36370903,8.595019,4.7712884,3
19851347357815,0.44506502,8.590233,4.776074,3
19851349736878,0.5024927,8.585447,4.761717,3
19851352115940,0.63170516,8.590233,4.761717,3
19851354495003,0.6412765,8.580662,4.7425747,3
19851356874065,0.6891329,8.571091,4.7377887,3
19851359253128,0.6891329,8.551949,4.7425747,3
19851361632190,0.64606214,8.585447,4.7377887,3
19851364011253,0.5407779,8.590233,4.7042894,3
19851366390315,0.40677986,8.599805,4.6803613,3
19851368769378,0.2632105,8.63809,4.666004,3
19851371148440,0.1052842,8.642876,4.685147,3
19851373527555,-0.02871387,8.662018,4.6755753,3
19851375906617,-0.148355,8.700303,4.6707897,3
19851378285680,-0.22492532,8.719446,4.613362,3
19851380664742,-0.30149564,8.752945,4.584648,3
19851383043805,-0.33499518,8.786445,4.5798626,3
19851385422867,-0.35413775,8.805588,4.575077,3
19851387801930,-0.3589234,8.79123,4.546363,3
19851390180992,-0.32063824,8.796016,4.5272202,3
19851392560055,-0.28713873,8.805588,4.5415773,3
19851394939117,-0.28235307,8.82473,4.517649,3
19851397318180,-0.2727818,8.848659,4.508078,3
19851399697242,-0.23449662,8.853444,4.4985065,3
19851402076305,-0.17706887,8.891729,4.465007,3
19851404455367,-0.1052842,8.853444,4.465007,3
19851406834430,-0.023928227,8.85823,4.465007,3
19851409213492,0.06699903,8.872586,4.426722,3
19851411592555,0.19142582,8.863015,4.3645086,3
19851413971617,0.3062813,8.877372,4.331009,3
19851416350680,0.39720857,8.872586,4.331009,3
19851418729742,0.4881358,8.9013,4.316652,3
19851421108805,0.56470615,8.882157,4.321438,3
19851423487920,0.6029913,8.867801,4.331009,3
19851425866930,0.60777694,8.853444,4.321438,3
19851428246045,0.59342,8.843872,4.3262234,3
19851430625107,0.5599205,8.834301,4.3262234,3
19851433004170,0.5168497,8.819944,4.331009,3
19851435383232,0.47377887,8.800801,4.345366,3
19851437762295,0.4019942,8.781659,4.3645086,3
19851440141357,0.38285163,8.786445,4.4075794,3
19851442520420,0.37328035,8.772088,4.4171505,3
19851444899482,0.4019942,8.781659,4.398008,3
19851447278545,0.43070808,8.79123,4.402794,3
19851449657607,0.5168497,8.781659,4.4171505,3
19851452036670,0.5886344,8.776874,4.412365,3
19851454415732,0.6843473,8.7673025,4.4075794,3
19851456794795,0.76570326,8.79123,4.388437,3
19851459173857,0.79441714,8.796016,4.354937,3
19851461552920,0.8470592,8.805588,4.3118663,3
19851463931982,0.8757731,8.805588,4.302295,3
19851466311045,0.8709874,8.819944,4.3118663,3
19851468690159,0.85184485,8.82473,4.3070807,3
19851471069170,0.7848458,8.82473,4.3118663,3
19851473448284,0.7322037,8.815159,4.345366,3
19851475827347,0.66041905,8.843872,4.3405805,3
19851478206409,0.5694918,8.819944,4.331009,3
19851480585472,0.47377887,8.863015,4.321438,3
19851482964534,0.38763726,8.867801,4.359723,3
19851485343597,0.30149564,8.891729,4.3836513,3
19851487722659,0.21535404,8.915657,4.398008,3
19851490101722,0.11964113,8.9348,4.3932223,3
19851492480784,0.043070808,8.944371,4.369294,3
19851494859847,-0.023928227,8.953942,4.345366,3
19851497238909,-0.11006984,8.987442,4.331009,3
19851499617972,-0.14356937,8.987442,4.331009,3
19851501997034,-0.21535404,8.963513,4.345366,3
19851504376097,-0.25842485,8.963513,4.316652,3
19851506755159,-0.31106696,8.997013,4.3262234,3
19851509134222,-0.41156548,8.977871,4.345366,3
19851511513284,-0.4881358,8.944371,4.3740797,3
19851513892347,-0.5455636,8.9108715,4.3932223,3
19851516271409,-0.55513483,8.882157,4.3932223,3
19851518650524,-0.53599226,8.877372,4.4315076,3
19851521029586,-0.4977071,8.882157,4.4554358,3
19851523408649,-0.44985065,8.853444,4.45065,3
19851525787711,-0.41156548,8.82473,4.421936,3
19851528166774,-0.37328035,8.829515,4.4171505,3
19851530545836,-0.31585258,8.834301,4.412365,3
19851532924899,-0.28235307,8.839087,4.4171505,3
19851535303961,-0.2536392,8.853444,4.436293,3
19851537683024,-0.2440679,8.863015,4.4554358,3
19851540062086,-0.25842485,8.872586,4.45065,3
19851542441149,-0.29192436,8.872586,4.4889355,3
19851544820211,-0.34456646,8.882157,4.5272202,3
19851547199274,-0.36370903,8.863015,4.570291,3
19851549578336,-0.3589234,8.843872,4.5894337,3
19851551957399,-0.3589234,8.843872,4.627719,3
19851554336461,-0.36370903,8.839087,4.6372905,3
19851556715524,-0.3397808,8.796016,4.6564326,3
19851559094586,-0.29671,8.7673025,4.666004,3
19851561473701,-0.2105684,8.748159,4.6803613,3
19851563852763,-0.14356937,8.733803,4.7042894,3
19851566231826,-0.043070808,8.71466,4.723432,3
19851568610888,0.0526421,8.681161,4.7282176,3
19851570989951,0.124426775,8.685946,4.685147,3
19851573369013,0.19142582,8.671589,4.6564326,3
19851575748076,0.26799613,8.676374,4.627719,3
19851578127138,0.31106696,8.676374,4.6468616,3
19851580506201,0.34456646,8.666803,4.6612186,3
19851582885263,0.37328035,8.652447,4.6899323,3
19851585264326,0.38763726,8.628518,4.7042894,3
19851587643388,0.3924229,8.628518,4.6899323,3
19851590022451,0.35413775,8.633304,4.6564326,3
19851592401513,0.31585258,8.599805,4.6564326,3
19851594780576,0.28235307,8.566305,4.6707897,3
19851597159638,0.23928227,8.580662,4.694718,3
19851599538701,0.19621146,8.551949,4.718646,3
19851601917763,0.15792629,8.523234,4.7377887,3
19851604296826,0.07178468,8.504091,4.6899323,3
19851606675888,0.047856454,8.52802,4.6468616,3
19851609054951,0.023928227,8.547162,4.6229334,3
19851611434013,-0.009571291,8.551949,4.599005,3
19851613813076,-0.033499517,8.566305,4.6085763,3
19851616192190,-0.023928227,8.6141615,4.642076,3
19851618571253,-0.033499517,8.628518,4.6564326,3
19851620950315,-0.043070808,8.642876,4.6229334,3
19851623329378,-0.0526421,8.695518,4.6085763,3
19851625708440,-0.09571291,8.724232,4.6085763,3
19851628087503,-0.11964113,8.729017,4.6037908,3
19851630466565,-0.14356937,8.733803,4.618148,3
19851632845628,-0.19621146,8.762517,4.618148,3
19851635224690,-0.24885355,8.743374,4.642076,3
19851637603753,-0.31585258,8.752945,4.651647,3
19851639982815,-0.4019942,8.762517,4.618148,3
19851642361878,-0.45942193,8.772088,4.6037908,3
19851644740940,-0.51206404,8.776874,4.5798626,3
19851647120003,-0.56470615,8.7673025,4.570291,3
19851649499065,-0.56470615,8.786445,4.5942197,3
19851651878128,-0.5312066,8.79123,4.5894337,3
19851654257190,-0.5168497,8.79123,4.56072,3
19851656636253,-0.47377887,8.815159,4.5272202,3
19851659015315,-0.41156548,8.819944,4.503292,3
19851661394430,-0.33499518,8.815159,4.4745784,3
19851663773492,-0.2440679,8.815159,4.4554358,3
19851666152555,-0.16271193,8.805588,4.4458647,3
19851668531617,-0.086141616,8.805588,4.436293,3
19851670910680,-0.02871387,8.805588,4.4315076,3
19851673289742,0.009571291,8.810373,4.426722,3
19851675668805,0.009571291,8.805588,4.421936,3
19851678047867,0.014356935,8.79123,4.421936,3
19851680426930,-0.019142581,8.815159,4.4602213,3
19851682805992,-0.05742774,8.815159,4.4602213,3
19851685185055,-0.14356937,8.82473,4.469793,3
19851687564117,-0.2009971,8.839087,4.479364,3
19851689943180,-0.28235307,8.834301,4.4745784,3
19851692322242,-0.35413775,8.829515,4.465007,3
19851694701305,-0.42592242,8.85823,4.479364,3
19851697080367,-0.47856453,8.867801,4.508078,3
19851699459430,-0.5168497,8.896515,4.4889355,3
19851701838492,-0.56470615,8.9108715,4.4985065,3
19851704217555,-0.59342,8.891729,4.493721,3
19851706596617,-0.5599205,8.872586,4.4889355,3
19851708975732,-0.5407779,8.867801,4.493721,3
19851711354795,-0.4977071,8.839087,4.4985065,3
19851713733857,-0.41156548,8.834301,4.4985065,3
19851716112920,-0.3684947,8.805588,4.5128636,3
19851718491982,-0.33499518,8.781659,4.493721,3
19851720871045,-0.25842485,8.7673025,4.493721,3
19851723250107,-0.2105684,8.752945,4.4841495,3
19851725629170,-0.18664017,8.733803,4.479364,3
19851728008232,-0.17706887,8.724232,4.493721,3
19851730387295,-0.17228323,8.671589,4.5272202,3
19851732766357,-0.22971097,8.652447,4.5415773,3
19851735145420,-0.26799613,8.671589,4.546363,3
19851737524482,-0.29192436,8.671589,4.546363,3
19851739903545,-0.36370903,8.695518,4.56072,3
19851742282607,-0.3924229,8.724232,4.551149,3
19851744661670,-0.44506502,8.724232,4.6037908,3
19851747040732,-0.47856453,8.71466,4.6085763,3
19851749419795,-0.45942193,8.71466,4.618148,3
19851751798857,-0.44506502,8.71466,4.6229334,3
19851754177920,-0.4211368,8.733803,4.613362,3
19851756556982,-0.3589234,8.738588,4.6229334,3
19851758936045,-0.29671,8.748159,4.6372905,3
19851761315159,-0.22971097,8.748159,4.642076,3
19851763694222,-0.148355,8.748159,4.6755753,3
19851766073284,-0.062213387,8.724232,4.6755753,3
19851768452347,0.009571291,8.681161,4.6612186,3
19851770831409,0.124426775,8.709874,4.6325045,3
19851773210472,0.2105684,8.700303,4.599005,3
19851775589534,0.27756742,8.685946,4.5942197,3
19851777968597,0.31106696,8.666803,4.599005,3
19851780347659,0.3589234,8.709874,4.6085763,3
19851782726722,0.3684947,8.71466,4.5894337,3
19851785105784,0.3684947,8.719446,4.5655055,3
19851787484847,0.35413775,8.738588,4.5559344,3
19851789863909,0.32063824,8.752945,4.551149,3
19851792242972,0.28235307,8.752945,4.5415773,3
19851794622034,0.23928227,8.7577305,4.5559344,3
19851797001097,0.19621146,8.776874,4.5415773,3
19851799380159,0.16271193,8.781659,4.546363,3
19851801759222,0.13399807,8.762517,4.517649,3
19851804138284,0.11485548,8.7673025,4.508078,3
19851806517347,0.124426775,8.7673025,4.508078,3
19851808896461,0.1052842,8.7673025,4.517649,3
19851811275524,0.10049855,8.752945,4.5272202,3
19851813654586,0.09571291,8.7673025,4.5415773,3
19851816033649,0.124426775,8.776874,4.551149,3
19851818412711,0.15792629,8.776874,4.517649,3
19851820791774,0.18185452,8.79123,4.503292,3
19851823170836,0.22492532,8.781659,4.503292,3
19851825549899,0.24885355,8.752945,4.508078,3
19851827928961,0.2632105,8.748159,4.5224347,3
19851830308024,0.28235307,8.733803,4.536792,3
19851832687086,0.28235307,8.71466,4.517649,3
19851835066149,0.22971097,8.695518,4.517649,3
19851837445211,0.18664017,8.71466,4.5320063,3
19851839824274,0.13878371,8.709874,4.536792,3
19851842203336,0.11485548,8.695518,4.5559344,3
19851844582399,0.0526421,8.705089,4.5798626,3
19851846961409,0.0,8.676374,4.599005,3
19851849340524,-0.023928227,8.63809,4.599005,3
19851851719534,-0.043070808,8.63809,4.613362,3
19851854098649,-0.0526421,8.642876,4.6229334,3
19851856477763,-0.0526421,8.623733,4.618148,3
19851858856826,-0.0526421,8.590233,4.6325045,3
19851861235888,-0.038285162,8.623733,4.642076,3
19851863614899,-0.0047856453,8.633304,4.6468616,3
19851865994013,0.0047856453,8.633304,4.6564326,3
19851868373076,0.023928227,8.623733,4.651647,3
19851870752138,0.033499517,8.647661,4.6564326,3
19851873131201,0.043070808,8.662018,4.6612186,3
19851875510263,0.0526421,8.700303,4.6564326,3
19851877889326,0.038285162,8.733803,4.6707897,3
19851880268388,0.038285162,8.748159,4.666004,3
19851882647451,0.009571291,8.772088,4.6468616,3
19851885026513,-0.009571291,8.796016,4.642076,3
19851887405576,-0.023928227,8.810373,4.6229334,3
19851889784638,-0.02871387,8.815159,4.584648,3
19851892163701,-0.0526421,8.819944,4.5655055,3
19851894542763,-0.12921242,8.810373,4.546363,3
19851896921826,-0.15792629,8.79123,4.5272202,3
19851899300888,-0.148355,8.805588,4.5320063,3
19851901679951,-0.15314065,8.829515,4.4889355,3
19851904059013,-0.15314065,8.810373,4.4602213,3
19851906438128,-0.148355,8.834301,4.45065,3
19851908817190,-0.11964113,8.848659,4.421936,3
19851911196253,-0.076570325,8.863015,4.398008,3
19851913575315,-0.019142581,8.853444,4.3836513,3
19851915954378,0.047856454,8.872586,4.369294,3
19851918333440,0.086141616,8.886943,4.369294,3
19851920712503,0.148355,8.867801,4.3405805,3
19851923091565,0.18664017,8.877372,4.345366,3
19851925470628,0.2440679,8.9348,4.345366,3
19851927849690,0.2632105,8.949157,4.3405805,3
19851930228753,0.28235307,8.9826565,4.3357944,3
19851932607815,0.29671,8.973084,4.3405805,3
19851934986878,0.29192436,8.977871,4.331009,3
19851937365940,0.3062813,9.001799,4.331009,3
19851939745003,0.30149564,8.992228,4.369294,3
19851942124065,0.29192436,8.997013,4.3645086,3
19851944503128,0.31585258,8.987442,4.3740797,3
19851946882190,0.33020952,8.987442,4.3932223,3
19851949261253,0.34456646,8.973084,4.398008,3
19851951640315,0.32542387,8.949157,4.426722,3
19851954019378,0.3589234,8.949157,4.4410787,3
19851956398440,0.3684947,8.9348,4.4554358,3
19851958777555,0.3493521,8.925228,4.4889355,3
19851961156617,0.3493521,8.915657,4.5128636,3
19851963535680,0.3062813,8.877372,4.5272202,3
19851965914742,0.26799613,8.85823,4.5272202,3
19851968293805,0.2105684,8.829515,4.551149,3
19851970672867,0.15792629,8.781659,4.56072,3
19851973051930,0.11964113,8.7673025,4.5559344,3
19851975430992,0.043070808,8.772088,4.5894337,3
19851977810055,-0.033499517,8.719446,4.613362,3
19851980189117,-0.11485548,8.71466,4.6372905,3
19851982568180,-0.2009971,8.705089,4.6468616,3
19851984947242,-0.2632105,8.676374,4.6229334,3
19851987326305,-0.32542387,8.709874,4.6325045,3
19851989705367,-0.3684947,8.705089,4.642076,3
19851992084430,-0.38285163,8.700303,4.666004,3
19851994463492,-0.38285163,8.719446,4.666004,3
19851996842555,-0.33020952,8.719446,4.6707897,3
19851999221617,-0.26799613,8.709874,4.6755753,3
19852001600680,-0.20578274,8.685946,4.6612186,3
19852003979795,-0.1052842,8.685946,4.6468616,3
19852006358857,0.033499517,8.666803,4.6325045,3
19852008737920,0.16271193,8.623733,4.5942197,3
19852011116982,0.27756742,8.628518,4.584648,3
19852013496045,0.41635114,8.633304,4.56072,3
19852015875107,0.5455636,8.63809,4.5272202,3
19852018254170,0.6364908,8.647661,4.503292,3
19852020633232,0.7178468,8.662018,4.4889355,3
19852023012295,0.7752745,8.657232,4.4554358,3
19852025391357,0.8279166,8.666803,4.402794,3
19852027770420,0.8279166,8.666803,4.3932223,3
19852030149482,0.81834537,8.700303,4.3645086,3
19852032528545,0.79441714,8.719446,4.331009,3
19852034907607,0.76570326,8.7577305,4.3262234,3
19852037286670,0.7465607,8.786445,4.3070807,3
19852039665732,0.7322037,8.796016,4.2592244,3
19852042044795,0.6939186,8.800801,4.220939,3
19852044423857,0.6795616,8.839087,4.2257247,3
19852046802920,0.6412765,8.877372,4.206582,3
19852049181982,0.6029913,8.872586,4.168297,3
19852051560992,0.57906306,8.867801,4.125226,3
19852053940107,0.53599226,8.872586,4.0965123,3
19852056319170,0.47856453,8.872586,4.106084,3
19852058698284,0.44506502,8.867801,4.115655,3
19852061077347,0.39720857,8.906086,4.115655,3
19852063456409,0.3589234,8.9348,4.125226,3
19852065835472,0.31106696,8.930014,4.139583,3
19852068214534,0.2536392,8.9348,4.130012,3
19852070593597,0.22013968,8.949157,4.115655,3
19852072972659,0.19621146,8.9348,4.125226,3
19852075351722,0.2009971,8.9348,4.139583,3
19852077730784,0.16271193,8.949157,4.1443686,3
19852080109847,0.17228323,8.958728,4.139583,3
19852082488857,0.20578274,8.963513,4.173083,3
19852084867972,0.2105684,8.973084,4.1635113,3
19852087247034,0.22492532,8.977871,4.15394,3
19852089626045,0.19621146,8.997013,4.1635113,3
19852092005159,0.148355,8.997013,4.197011,3
19852094384222,0.11006984,9.001799,4.206582,3
19852096763284,0.009571291,9.025727,4.211368,3
19852099142347,-0.124426775,9.020942,4.2352962,3
19852101521409,-0.21535404,9.01137,4.278367,3
19852103900472,-0.3493521,9.006584,4.302295,3
19852106279586,-0.47856453,9.006584,4.331009,3
19852108658649,-0.57427746,8.987442,4.3836513,3
19852111037711,-0.6221339,8.9826565,4.412365,3
19852113416774,-0.6364908,8.968299,4.426722,3
19852115795836,-0.6125626,8.963513,4.4458647,3
19852118174899,-0.5024927,8.953942,4.4554358,3
19852120553961,-0.4019942,8.925228,4.4458647,3
19852122933024,-0.2632105,8.896515,4.4554358,3
19852125312086,-0.08135597,8.891729,4.4745784,3
19852127691097,0.07178468,8.863015,4.469793,3
19852130070211,0.20578274,8.843872,4.465007,3
19852132449274,0.32542387,8.810373,4.465007,3
19852134828336,0.41156548,8.781659,4.469793,3
19852137207399,0.47377887,8.748159,4.479364,3
19852139586461,0.49292147,8.724232,4.479364,3
19852141965524,0.4977071,8.685946,4.493721,3
19852144344586,0.4642076,8.666803,4.4985065,3
19852146723649,0.3924229,8.662018,4.503292,3
19852149102711,0.33020952,8.652447,4.5128636,3
19852151481774,0.2727818,8.681161,4.551149,3
19852153860836,0.22013968,8.685946,4.575077,3
19852156239951,0.124426775,8.681161,4.599005,3
19852158619013,0.0526421,8.695518,4.599005,3
19852160998076,-0.019142581,8.681161,4.599005,3
19852163377138,-0.11006984,8.690732,4.5798626,3
19852165756201,-0.16271193,8.733803,4.551149,3
19852168135263,-0.20578274,8.743374,4.551149,3
19852170514326,-0.21535404,8.772088,4.5320063,3
19852172893388,-0.21535404,8.776874,4.546363,3
19852175272451,-0.20578274,8.79123,4.536792,3
19852177651513,-0.15792629,8.819944,4.517649,3
19852180030576,-0.11485548,8.800801,4.503292,3
19852182409638,-0.06699903,8.82473,4.4889355,3
19852184788701,-0.014356935,8.834301,4.4745784,3
19852187167763,0.014356935,8.867801,4.4745784,3
19852189546826,0.02871387,8.872586,4.4602213,3
19852191925888,0.05742774,8.872586,4.469793,3
19852194304951,0.038285162,8.877372,4.465007,3
19852196684013,-0.019142581,8.915657,4.436293,3
19852199063076,-0.05742774,8.9348,4.421936,3
19852201442086,-0.10049855,8.953942,4.4171505,3
19852203821253,-0.124426775,8.953942,4.3836513,3
19852206200315,-0.12921242,8.958728,4.3740797,3
19852208579378,-0.1052842,8.953942,4.3740797,3
19852210958440,-0.09092726,8.944371,4.3740797,3
19852213337503,-0.0526421,8.925228,4.3645086,3
19852215716565,0.014356935,8.906086,4.3405805,3
19852218095628,0.076570325,8.906086,4.3118663,3
19852220474690,0.13878371,8.886943,4.316652,3
19852222853753,0.21535404,8.882157,4.3070807,3
19852225232815,0.25842485,8.872586,4.2975097,3
19852227611878,0.29192436,8.843872,4.3262234,3
19852229990940,0.3397808,8.863015,4.3357944,3
19852232369951,0.36370903,8.863015,4.331009,3
19852234749065,0.39720857,8.848659,4.3118663,3
19852237128128,0.4019942,8.85823,4.302295,3
19852239507190,0.41635114,8.867801,4.321438,3
19852241886253,0.4546363,8.848659,4.321438,3
19852244265315,0.4642076,8.843872,4.3357944,3
19852246644378,0.49292147,8.867801,4.354937,3
19852249023440,0.4833502,8.848659,4.354937,3
19852251402503,0.4977071,8.853444,4.369294,3
19852253781565,0.4642076,8.867801,4.369294,3
19852256160680,0.4354937,8.872586,4.398008,3
19852258539742,0.38763726,8.867801,4.4315076,3
19852260918805,0.36370903,8.872586,4.426722,3
19852263297867,0.31106696,8.853444,4.45065,3
19852265676930,0.26799613,8.848659,4.493721,3
19852268055992,0.2440679,8.815159,4.5224347,3
19852270435055,0.22492532,8.776874,4.5128636,3
19852272814117,0.2536392,8.748159,4.517649,3
19852275193180,0.2727818,8.729017,4.5415773,3
19852277572242,0.3397808,8.695518,4.5655055,3
19852279951305,0.41635114,8.695518,4.5655055,3
19852282330367,0.5072784,8.681161,4.5655055,3
19852284709430,0.5838487,8.657232,4.570291,3
19852287088492,0.6652047,8.657232,4.570291,3
19852289467555,0.7082755,8.681161,4.575077,3
19852291846617,0.7322037,8.671589,4.584648,3
19852294225680,0.71306115,8.700303,4.5894337,3
19852296604742,0.6843473,8.690732,4.6037908,3
19852298983805,0.6221339,8.695518,4.599005,3
19852301362867,0.53599226,8.705089,4.6372905,3
19852303741930,0.45942193,8.671589,4.6612186,3
19852306120992,0.4019942,8.652447,4.6755753,3
19852308500107,0.32542387,8.657232,4.709075,3
19852310879170,0.27756742,8.633304,4.718646,3
19852313258232,0.2536392,8.63809,4.733003,3
19852315637295,0.2440679,8.618947,4.74736,3
19852318016357,0.29192436,8.6141615,4.766503,3
19852320395420,0.33499518,8.595019,4.7712884,3
19852322774482,0.37328035,8.6141615,4.776074,3
19852325153545,0.44506502,8.609376,4.752146,3
19852327532607,0.4833502,8.599805,4.74736,3
19852329911617,0.5599205,8.599805,4.733003,3
19852332290732,0.59342,8.609376,4.7377887,3
19852334669795,0.6364908,8.609376,4.7377887,3
19852337048857,0.66999036,8.618947,4.718646,3
19852339427920,0.6556334,8.633304,4.709075,3
19852341806982,0.6221339,8.63809,4.6899323,3
19852344186045,0.57427746,8.628518,4.6755753,3
19852346565107,0.5168497,8.633304,4.6707897,3
19852348944170,0.46899325,8.657232,4.666004,3
19852351323232,0.4211368,8.671589,4.6707897,3
19852353702347,0.33499518,8.690732,4.666004,3
19852356081409,0.26799613,8.662018,4.6707897,3
19852358460472,0.22492532,8.676374,4.666004,3
19852360839534,0.18664017,8.695518,4.6468616,3
19852363218597,0.12921242,8.709874,4.642076,3
19852365597659,0.13399807,8.695518,4.6372905,3
19852367976722,0.148355,8.705089,4.6229334,3
19852370355784,0.15792629,8.705089,4.6037908,3
19852372734847,0.19621146,8.71466,4.6085763,3
19852375113909,0.2536392,8.729017,4.6037908,3
19852377492972,0.32542387,8.772088,4.5655055,3
19852379872034,0.39720857,8.7577305,4.5655055,3
19852382251097,0.43070808,8.7673025,4.5415773,3
19852384630159,0.4546363,8.786445,4.5224347,3
19852387009222,0.43070808,8.7673025,4.508078,3
19852389388284,0.41156548,8.748159,4.5128636,3
19852391767347,0.35413775,8.7673025,4.5320063,3
19852394146357,0.26799613,8.7673025,4.5320063,3
19852396525472,0.12921242,8.752945,4.5415773,3
19852398904534,0.023928227,8.7673025,4.5415773,3
19852401283649,-0.07178468,8.7673025,4.5272202,3
19852403662659,-0.15314065,8.748159,4.5415773,3
19852406041774,-0.20578274,8.7673025,4.5415773,3
19852408420836,-0.23928227,8.762517,4.5559344,3
19852410799899,-0.22013968,8.7673025,4.546363,3
19852413178961,-0.18185452,8.786445,4.5320063,3
19852415558024,-0.148355,8.805588,4.546363,3
19852417937086,-0.11485548,8.815159,4.5224347,3
19852420316149,-0.062213387,8.819944,4.5224347,3
19852422695211,0.014356935,8.810373,4.5272202,3
19852425074274,0.05742774,8.800801,4.5320063,3
19852427453336,0.11006984,8.800801,4.517649,3
19852429832347,0.15792629,8.800801,4.546363,3
19852432211461,0.18185452,8.796016,4.570291,3
19852434590524,0.17706887,8.805588,4.56072,3
19852436969586,0.17706887,8.810373,4.56072,3
19852439348649,0.17228323,8.810373,4.5798626,3
19852441727711,0.15792629,8.819944,4.5894337,3
19852444106774,0.11006984,8.800801,4.6037908,3
19852446485836,0.05742774,8.805588,4.5942197,3
19852448864899,0.014356935,8.805588,4.6037908,3
19852451243961,-0.014356935,8.834301,4.6229334,3
19852453623024,-0.07178468,8.843872,4.627719,3
19852456002086,-0.124426775,8.834301,4.6085763,3
19852458381201,-0.16749759,8.82473,4.599005,3
19852460760263,-0.19621146,8.853444,4.5894337,3
19852463139326,-0.18185452,8.85823,4.5798626,3
19852465518388,-0.19142582,8.834301,4.584648,3
19852467897451,-0.12921242,8.815159,4.584648,3
19852470276513,-0.086141616,8.800801,4.575077,3
19852472655576,-0.0526421,8.810373,4.5798626,3
19852475034638,-0.014356935,8.800801,4.5798626,3
19852477413701,0.043070808,8.79123,4.5655055,3
19852479792763,0.062213387,8.781659,4.575077,3
19852482171826,0.0526421,8.776874,4.584648,3
19852484550888,0.06699903,8.762517,4.570291,3
19852486929951,0.047856454,8.752945,4.575077,3
19852489309013,0.014356935,8.748159,4.584648,3
19852491688024,-0.023928227,8.724232,4.5798626,3
19852494067138,-0.02871387,8.724232,4.5942197,3
19852496446201,-0.033499517,8.695518,4.6037908,3
19852498825263,-0.02871387,8.700303,4.5942197,3
19852501204326,-0.014356935,8.709874,4.6085763,3
19852503583388,0.047856454,8.71466,4.627719,3
19852505962503,0.1052842,8.685946,4.6372905,3
19852508341565,0.148355,8.690732,4.651647,3
19852510720628,0.19142582,8.690732,4.651647,3
19852513099690,0.29671,8.671589,4.6564326,3
19852515478753,0.33020952,8.666803,4.6803613,3
19852517857815,0.3589234,8.671589,4.7042894,3
19852520236878,0.38763726,8.676374,4.6899323,3
19852522615940,0.3924229,8.63809,4.6899323,3
19852524995003,0.37806597,8.623733,4.694718,3
19852527374065,0.37328035,8.618947,4.6803613,3
19852529753128,0.35413775,8.618947,4.685147,3
19852532132190,0.31106696,8.60459,4.685147,3
19852534511253,0.29192436,8.599805,4.694718,3
19852536890315,0.28235307,8.609376,4.709075,3
19852539269378,0.22971097,8.609376,4.723432,3
19852541648440,0.2009971,8.618947,4.709075,3
19852544027503,0.13878371,8.628518,4.733003,3
19852546406565,0.11485548,8.628518,4.7138605,3
19852548785628,0.09092726,8.623733,4.718646,3
19852551164690,0.07178468,8.652447,4.7282176,3
19852553543753,0.0526421,8.63809,4.709075,3
19852555922867,0.076570325,8.647661,4.7282176,3
19852558301930,0.086141616,8.642876,4.74736,3
19852560680992,0.11006984,8.599805,4.718646,3
19852563060055,0.16271193,8.585447,4.709075,3
19852565439117,0.22013968,8.6141615,4.709075,3
19852567818128,0.2440679,8.633304,4.694718,3
19852570197242,0.2727818,8.652447,4.6755753,3
19852572576305,0.32542387,8.671589,4.694718,3
19852574955367,0.37328035,8.662018,4.6899323,3
19852577334430,0.37328035,8.685946,4.6803613,3
19852579713492,0.38285163,8.724232,4.6612186,3
19852582092555,0.39720857,8.729017,4.642076,3
19852584471617,0.36370903,8.733803,4.6325045,3
19852586850680,0.3589234,8.752945,4.6037908,3
19852589229742,0.3493521,8.762517,4.5894337,3
19852591608805,0.35413775,8.738588,4.570291,3
19852593987867,0.3589234,8.733803,4.5415773,3
19852596366930,0.3684947,8.748159,4.5272202,3
19852598745992,0.37328035,8.733803,4.5128636,3
19852601125055,0.39720857,8.733803,4.4985065,3
19852603504117,0.4354937,8.748159,4.503292,3
19852605883232,0.4546363,8.781659,4.479364,3
19852608262295,0.4546363,8.79123,4.4458647,3
19852610641357,0.44985065,8.800801,4.4458647,3
19852613020420,0.44506502,8.815159,4.4458647,3
19852615399482,0.4546363,8.805588,4.4315076,3
19852617778545,0.44506502,8.82473,4.398008,3
19852620157607,0.4546363,8.82473,4.3932223,3
19852622536670,0.45942193,8.829515,4.402794,3
19852624915732,0.44027936,8.819944,4.3932223,3
19852627294795,0.43070808,8.82473,4.4075794,3
19852629673857,0.41156548,8.843872,4.3932223,3
19852632052920,0.40677986,8.805588,4.388437,3
19852634431982,0.3589234,8.805588,4.3788652,3
19852636811045,0.34456646,8.786445,4.3788652,3
19852639190107,0.30149564,8.796016,4.3740797,3
19852641569170,0.27756742,8.829515,4.3740797,3
19852643948232,0.22492532,8.815159,4.388437,3
19852646327295,0.18185452,8.829515,4.398008,3
19852648706357,0.12921242,8.843872,4.388437,3
19852651085420,0.09571291,8.85823,4.3788652,3
19852653464482,0.05742774,8.863015,4.3788652,3
19852655843545,0.033499517,8.843872,4.398008,3
19852658222659,0.043070808,8.848659,4.398008,3
19852660601722,0.019142581,8.877372,4.3932223,3
19852662980784,0.02871387,8.882157,4.4075794,3
19852665359847,0.019142581,8.863015,4.412365,3
19852667738909,-0.0047856453,8.853444,4.402794,3
19852670117972,0.023928227,8.839087,4.412365,3
19852672497034,0.023928227,8.82473,4.436293,3
19852674876097,0.05742774,8.839087,4.4554358,3
19852677255159,0.062213387,8.815159,4.4458647,3
19852679634222,0.0526421,8.82473,4.45065,3
19852682013284,0.06699903,8.82473,4.469793,3
19852684392347,0.08135597,8.815159,4.4841495,3
19852686771409,0.11485548,8.829515,4.4841495,3
19852689150472,0.086141616,8.810373,4.508078,3
19852691529534,0.08135597,8.800801,4.479364,3
19852693908597,0.11485548,8.815159,4.4745784,3
19852696287659,0.12921242,8.819944,4.479364,3
19852698666722,0.12921242,8.786445,4.465007,3
19852701045784,0.15314065,8.79123,4.465007,3
19852703424899,0.11485548,8.796016,4.4410787,3
19852705803961,0.08135597,8.786445,4.45065,3
19852708182972,0.08135597,8.786445,4.436293,3
19852710562034,0.076570325,8.800801,4.4458647,3
19852712941097,0.08135597,8.800801,4.4315076,3
19852715320211,0.062213387,8.796016,4.421936,3
19852717699274,0.076570325,8.7673025,4.421936,3
19852720078336,0.076570325,8.79123,4.4458647,3
19852722457399,0.062213387,8.781659,4.4458647,3
19852724836461,0.06699903,8.800801,4.4315076,3
19852727215524,0.10049855,8.781659,4.426722,3
19852729594586,0.1052842,8.7673025,4.4315076,3
19852731973649,0.13878371,8.762517,4.398008,3
19852734352711,0.124426775,8.800801,4.388437,3
19852736731774,0.11485548,8.834301,4.3932223,3
19852739110836,0.12921242,8.834301,4.3932223,3
19852741489847,0.13878371,8.829515,4.3740797,3
19852743868961,0.15792629,8.834301,4.354937,3
19852746248024,0.14356937,8.853444,4.3501515,3
19852748627086,0.14356937,8.848659,4.354937,3
19852751006149,0.148355,8.843872,4.3405805,3
19852753385211,0.11964113,8.843872,4.345366,3
19852755764274,0.11485548,8.848659,4.3357944,3
19852758143336,0.07178468,8.843872,4.3118663,3
19852760522451,0.02871387,8.853444,4.2927237,3
19852762901513,0.0,8.877372,4.302295,3
19852765280576,-0.086141616,8.867801,4.2927237,3
19852767659638,-0.16271193,8.896515,4.273581,3
19852770038701,-0.19142582,8.915657,4.2592244,3
19852772417763,-0.2440679,8.939586,4.2448673,3
19852774796826,-0.28713873,8.9826565,4.254439,3
19852777175888,-0.3397808,8.997013,4.26401,3
19852779554951,-0.37328035,9.016156,4.249653,3
19852781934013,-0.38285163,9.020942,4.26401,3
19852784313076,-0.3924229,9.040084,4.26401,3
19852786692138,-0.36370903,9.049655,4.2592244,3
19852789071201,-0.31585258,9.025727,4.240082,3
19852791450263,-0.2632105,9.030513,4.2352962,3
19852793829326,-0.22492532,9.035298,4.220939,3
19852796208388,-0.19621146,9.006584,4.2257247,3
19852798587451,-0.17706887,9.006584,4.220939,3
19852800966513,-0.12921242,8.997013,4.211368,3
19852803345576,-0.1052842,9.001799,4.211368,3
19852805724638,-0.09092726,8.9826565,4.206582,3
19852808103753,-0.06699903,8.987442,4.1922255,3
19852810482763,-0.05742774,8.958728,4.1635113,3
19852812861878,-0.06699903,8.944371,4.15394,3
19852815240940,-0.08135597,8.9348,4.15394,3
19852817620003,-0.10049855,8.949157,4.15394,3
19852819999065,-0.10049855,8.953942,4.1587257,3
19852822378128,-0.11964113,8.953942,4.15394,3
19852824757190,-0.124426775,8.944371,4.168297,3
19852827136253,-0.124426775,8.958728,4.182654,3
19852829515315,-0.13878371,8.963513,4.182654,3
19852831894378,-0.15314065,8.939586,4.168297,3
19852834273440,-0.12921242,8.944371,4.197011,3
19852836652503,-0.1052842,8.944371,4.206582,3
19852839031565,-0.062213387,8.915657,4.2017965,3
19852841410628,-0.043070808,8.9013,4.2017965,3
19852843789690,0.0,8.925228,4.2257247,3
19852846168753,0.038285162,8.925228,4.2352962,3
19852848547815,0.09571291,8.930014,4.2448673,3
19852850926878,0.12921242,8.920443,4.254439,3
19852853305940,0.13399807,8.891729,4.26401,3
19852855685003,0.14356937,8.9013,4.249653,3
19852858064117,0.16271193,8.896515,4.254439,3
19852860443128,0.15792629,8.891729,4.2687955,3
19852862822242,0.15314065,8.872586,4.287938,3
19852865201305,0.13399807,8.867801,4.2927237,3
19852867580367,0.07178468,8.867801,4.287938,3
19852869959430,0.038285162,8.853444,4.3070807,3
19852872338492,0.023928227,8.848659,4.321438,3
19852874717555,0.023928227,8.834301,4.3357944,3
19852877096617,0.019142581,8.834301,4.345366,3
19852879475680,-0.0047856453,8.839087,4.345366,3
19852881854742,-0.02871387,8.85823,4.3740797,3
19852884233805,-0.043070808,8.863015,4.3740797,3
19852886612815,-0.043070808,8.848659,4.398008,3
19852888991930,-0.033499517,8.853444,4.4075794,3
19852891370992,-0.033499517,8.843872,4.4171505,3
19852893750055,-0.043070808,8.85823,4.4315076,3
19852896129117,-0.043070808,8.834301,4.436293,3
19852898508180,-0.02871387,8.843872,4.426722,3
19852900887242,-0.019142581,8.834301,4.426722,3
19852903266305,-0.0047856453,8.810373,4.436293,3
19852905645367,-0.014356935,8.82473,4.465007,3
19852908024482,-0.043070808,8.829515,4.4602213,3
19852910403545,-0.033499517,8.819944,4.45065,3
19852912782607,-0.047856454,8.805588,4.479364,3
19852915161670,-0.0526421,8.819944,4.493721,3
19852917540732,-0.062213387,8.805588,4.503292,3
19852919919795,-0.10049855,8.805588,4.4985065,3
19852922298857,-0.1052842,8.772088,4.517649,3
19852924677920,-0.124426775,8.786445,4.5272202,3
19852927056982,-0.13399807,8.786445,4.5272202,3
19852929436045,-0.124426775,8.781659,4.5272202,3
19852931815107,-0.13399807,8.796016,4.5128636,3
19852934194117,-0.13878371,8.776874,4.517649,3
19852936573232,-0.13878371,8.762517,4.517649,3
19852938952295,-0.14356937,8.762517,4.517649,3
19852941331357,-0.12921242,8.752945,4.493721,3
19852943710420,-0.11006984,8.772088,4.503292,3
19852946089482,-0.12921242,8.7673025,4.503292,3
19852948468545,-0.11485548,8.7577305,4.517649,3
19852950847607,-0.062213387,8.733803,4.517649,3
19852953226722,-0.06699903,8.748159,4.5272202,3
19852955605732,-0.06699903,8.752945,4.5320063,3
19852957984847,-0.038285162,8.7673025,4.536792,3
19852960363909,-0.023928227,8.772088,4.5320063,3
19852962742972,-0.0047856453,8.772088,4.5415773,3
19852965122034,-0.019142581,8.762517,4.5415773,3
19852967501097,-0.033499517,8.762517,4.546363,3
19852969880159,-0.0526421,8.762517,4.546363,3
19852972259222,-0.043070808,8.776874,4.551149,3
19852974638284,-0.062213387,8.805588,4.546363,3
19852977017347,-0.06699903,8.786445,4.536792,3
19852979396409,-0.09571291,8.781659,4.546363,3
19852981775472,-0.11006984,8.800801,4.5272202,3
19852984154534,-0.13399807,8.810373,4.5272202,3
19852986533597,-0.16749759,8.800801,4.5415773,3
19852988912659,-0.19142582,8.79123,4.5272202,3
19852991291722,-0.18185452,8.781659,4.5224347,3
19852993670784,-0.19142582,8.829515,4.5128636,3
19852996049847,-0.23449662,8.810373,4.517649,3
19852998428909,-0.2632105,8.82473,4.5128636,3
19853000807972,-0.28713873,8.800801,4.508078,3
19853003187034,-0.28235307,8.79123,4.517649,3
19853005566149,-0.28235307,8.800801,4.5128636,3
19853007945211,-0.27756742,8.796016,4.503292,3
19853010324274,-0.2536392,8.810373,4.508078,3
19853012703336,-0.2536392,8.800801,4.508078,3
19853015082399,-0.23449662,8.796016,4.517649,3
19853017461461,-0.21535404,8.805588,4.503292,3
19853019840524,-0.2009971,8.800801,4.4841495,3
19853022219586,-0.15314065,8.800801,4.4841495,3
19853024598649,-0.13878371,8.781659,4.493721,3
19853026977711,-0.11485548,8.815159,4.508078,3
19853029356774,-0.09571291,8.810373,4.503292,3
19853031735836,-0.06699903,8.786445,4.4985065,3
19853034114899,-0.05742774,8.772088,4.503292,3
19853036493961,-0.043070808,8.781659,4.508078,3
19853038873024,-0.023928227,8.79123,4.5128636,3
19853041252086,0.0,8.776874,4.508078,3
19853043631149,-0.019142581,8.776874,4.493721,3
19853046010211,-0.033499517,8.776874,4.508078,3
19853048389274,-0.023928227,8.762517,4.508078,3
19853050768336,-0.0047856453,8.762517,4.508078,3
19853053147399,0.0047856453,8.752945,4.4889355,3
19853055526513,-0.0047856453,8.724232,4.493721,3
19853057905576,-0.009571291,8.71466,4.4985065,3
19853060284638,-0.023928227,8.719446,4.4841495,3
19853062663701,-0.038285162,8.71466,4.4841495,3
19853065042763,-0.019142581,8.71466,4.4841495,3
19853067421826,-0.023928227,8.71466,4.493721,3
19853069800888,-0.0047856453,8.71466,4.503292,3
19853072179951,-0.019142581,8.681161,4.508078,3
19853074559013,-0.033499517,8.719446,4.5128636,3
19853076938076,-0.019142581,8.729017,4.5224347,3
19853079317138,-0.014356935,8.7577305,4.536792,3
19853081696201,-0.023928227,8.748159,4.546363,3
19853084075211,-0.02871387,8.752945,4.5415773,3
19853086454326,-0.038285162,8.781659,4.5559344,3
19853088833388,-0.043070808,8.786445,4.5655055,3
19853091212451,-0.038285162,8.79123,4.5559344,3
19853093591513,-0.062213387,8.800801,4.56072,3
19853095970576,-0.076570325,8.786445,4.5655055,3
19853098349638,-0.047856454,8.776874,4.56072,3
19853100728701,-0.076570325,8.800801,4.546363,3
19853103107815,-0.07178468,8.776874,4.546363,3
19853105486878,-0.062213387,8.762517,4.56072,3
19853107865940,-0.02871387,8.7673025,4.5655055,3
19853110245003,-0.023928227,8.772088,4.5798626,3
19853112624065,-0.014356935,8.752945,4.56072,3
19853115003128,-0.0047856453,8.7577305,4.5559344,3
19853117382190,-0.023928227,8.752945,4.570291,3
19853119761253,-0.038285162,8.733803,4.570291,3
19853122140315,-0.033499517,8.738588,4.575077,3
19853124519378,-0.02871387,8.748159,4.575077,3
19853126898440,-0.033499517,8.7673025,4.575077,3
19853129277503,-0.0526421,8.7673025,4.570291,3
19853131656565,-0.047856454,8.7673025,4.575077,3
19853134035628,-0.038285162,8.762517,4.5559344,3
19853136414690,-0.05742774,8.762517,4.5559344,3
19853138793753,-0.06699903,8.7577305,4.551149,3
19853141172815,-0.062213387,8.7577305,4.5559344,3
19853143551878,-0.062213387,8.733803,4.5415773,3
19853145930940,-0.047856454,8.738588,4.536792,3
19853148310003,-0.06699903,8.752945,4.551149,3
19853150689065,-0.05742774,8.762517,4.5559344,3
19853153068180,-0.033499517,8.762517,4.575077,3
19853155447242,-0.014356935,8.748159,4.575077,3
19853157826305,0.0,8.743374,4.575077,3
19853160205367,-0.0047856453,8.743374,4.5415773,3
19853162584430,0.019142581,8.752945,4.536792,3
19853164963492,0.033499517,8.724232,4.551149,3
19853167342555,0.047856454,8.738588,4.5559344,3
19853169721617,0.08135597,8.752945,4.56072,3
19853172100680,0.10049855,8.752945,4.546363,3
19853174479742,0.09571291,8.743374,4.546363,3
19853176858805,0.1052842,8.772088,4.5320063,3
19853179237867,0.11485548,8.776874,4.5320063,3
19853181616930,0.13878371,8.79123,4.5272202,3
19853183995992,0.124426775,8.79123,4.5320063,3
19853186375055,0.11964113,8.7673025,4.5559344,3
19853188754117,0.11485548,8.748159,4.551149,3
19853191133180,0.076570325,8.776874,4.551149,3
19853193512242,0.07178468,8.772088,4.570291,3
19853195891305,0.0526421,8.71466,4.5655055,3
19853198270420,0.05742774,8.733803,4.575077,3
19853200649430,0.043070808,8.738588,4.599005,3
19853203028545,0.014356935,8.733803,4.599005,3
19853205407607,-0.019142581,8.729017,4.6085763,3
19853207786670,-0.047856454,8.71466,4.584648,3
19853210165732,-0.038285162,8.738588,4.584648,3
19853212544795,-0.009571291,8.743374,4.5942197,3
19853214923857,0.0,8.724232,4.599005,3
19853217302920,-0.014356935,8.733803,4.599005,3
19853219681982,0.009571291,8.743374,4.613362,3
19853222061045,0.009571291,8.729017,4.613362,3
19853224440107,0.0,8.738588,4.6085763,3
19853226819170,0.009571291,8.71466,4.6229334,3
19853229198232,0.05742774,8.71466,4.6468616,3
19853231577295,0.06699903,8.71466,4.6468616,3
19853233956357,0.07178468,8.71466,4.651647,3
19853236335420,0.0526421,8.729017,4.651647,3
19853238714482,0.06699903,8.71466,4.6707897,3
19853241093545,0.07178468,8.705089,4.6612186,3
19853243472607,0.076570325,8.709874,4.6707897,3
19853245851670,0.05742774,8.690732,4.6564326,3
19853248230784,0.076570325,8.666803,4.6612186,3
19853250609847,0.062213387,8.709874,4.6707897,3
19853252988909,0.043070808,8.695518,4.6755753,3
19853255367972,0.0526421,8.705089,4.6755753,3
19853257747034,0.047856454,8.705089,4.6707897,3
19853260126097,0.043070808,8.700303,4.666004,3
19853262505159,0.033499517,8.685946,4.6755753,3
19853264884222,0.043070808,8.681161,4.694718,3
19853267263284,0.07178468,8.671589,4.6803613,3
19853269642347,0.06699903,8.671589,4.6755753,3
19853272021409,0.0526421,8.676374,4.6707897,3
19853274400472,0.076570325,8.666803,4.666004,3
19853276779534,0.09571291,8.652447,4.6468616,3
19853279158597,0.11964113,8.676374,4.642076,3
19853281537659,0.11964113,8.685946,4.642076,3
19853283916722,0.13399807,8.657232,4.6372905,3
19853286295784,0.1052842,8.633304,4.6325045,3
19853288674847,0.1052842,8.657232,4.618148,3
19853291053909,0.10049855,8.685946,4.6085763,3
19853293433024,0.10049855,8.695518,4.6037908,3
19853295812034,0.07178468,8.71466,4.6085763,3
19853298191149,0.08135597,8.733803,4.5942197,3
19853300570211,0.08135597,8.743374,4.599005,3
19853302949274,0.05742774,8.762517,4.575077,3
19853305328336,0.076570325,8.7577305,4.575077,3
19853307707399,0.076570325,8.752945,4.570291,3
19853310086461,0.07178468,8.7577305,4.5415773,3
19853312465524,0.076570325,8.786445,4.5320063,3
19853314844586,0.09571291,8.79123,4.5224347,3
19853317223649,0.086141616,8.800801,4.5320063,3
19853319602711,0.09092726,8.772088,4.5128636,3
19853321981774,0.086141616,8.748159,4.508078,3
19853324360836,0.11485548,8.786445,4.503292,3
19853326739899,0.11006984,8.786445,4.4889355,3
19853329118961,0.11964113,8.786445,4.479364,3
19853331498024,0.09571291,8.819944,4.469793,3
19853333877086,0.09092726,8.805588,4.4602213,3
19853336256149,0.09092726,8.800801,4.45065,3
19853338635211,0.062213387,8.819944,4.4410787,3
19853341014274,0.023928227,8.839087,4.421936,3
19853343393388,-0.019142581,8.829515,4.421936,3
19853345772451,-0.033499517,8.819944,4.4171505,3
19853348151513,-0.023928227,8.819944,4.4075794,3
19853350530576,-0.0526421,8.843872,4.4171505,3
19853352909638,-0.0526421,8.848659,4.412365,3
19853355288701,-0.06699903,8.839087,4.4171505,3
19853357667763,-0.076570325,8.863015,4.421936,3
19853360046826,-0.062213387,8.839087,4.4171505,3
19853362425888,-0.06699903,8.863015,4.426722,3
19853364804951,-0.043070808,8.85823,4.426722,3
19853367184013,-0.038285162,8.85823,4.421936,3
19853369563076,-0.009571291,8.834301,4.421936,3
19853371942138,0.0047856453,8.843872,4.4171505,3
19853374321201,-0.02871387,8.853444,4.412365,3
19853376700263,-0.043070808,8.853444,4.4171505,3
19853379079326,-0.019142581,8.853444,4.412365,3
19853381458388,0.0047856453,8.839087,4.412365,3
19853383837451,-0.009571291,8.839087,4.4075794,3
19853386216513,-0.0047856453,8.839087,4.402794,3
19853388595576,0.014356935,8.829515,4.402794,3
19853390974638,-0.009571291,8.805588,4.426722,3
19853393353753,-0.009571291,8.815159,4.4458647,3
19853395732763,-0.023928227,8.800801,4.4410787,3
19853398111878,0.014356935,8.800801,4.4554358,3
19853400490940,-0.0047856453,8.796016,4.4602213,3
19853402870003,0.019142581,8.796016,4.465007,3
19853405249065,0.023928227,8.796016,4.4889355,3
19853407628128,0.062213387,8.786445,4.508078,3
19853410007190,0.06699903,8.800801,4.508078,3
19853412386253,0.08135597,8.79123,4.4985065,3
19853414765315,0.09571291,8.7577305,4.508078,3
19853417144378,0.08135597,8.748159,4.4985065,3
19853419523440,0.11485548,8.752945,4.493721,3
19853421902503,0.124426775,8.748159,4.479364,3
19853424281670,0.11006984,8.748159,4.5128636,3
19853426660628,0.076570325,8.752945,4.536792,3
19853429039690,0.033499517,8.762517,4.5272202,3
19853431418753,0.014356935,8.724232,4.536792,3
19853433797815,-0.023928227,8.729017,4.551149,3
19853436176878,-0.033499517,8.738588,4.570291,3
19853438555940,-0.086141616,8.743374,4.5320063,3
19853440935003,-0.14356937,8.7673025,4.5415773,3
19853443314117,-0.18185452,8.776874,4.551149,3
19853445693180,-0.21535404,8.776874,4.570291,3
19853448072242,-0.22971097,8.7673025,4.5798626,3
19853450451253,-0.23449662,8.772088,4.5559344,3
19853452830367,-0.23928227,8.772088,4.5655055,3
19853455209430,-0.2440679,8.7673025,4.5655055,3
19853457588492,-0.22013968,8.7673025,4.5559344,3
19853459967555,-0.19142582,8.776874,4.536792,3
19853462346617,-0.17228323,8.772088,4.5559344,3
19853464725680,-0.15792629,8.786445,4.5559344,3
19853467104742,-0.10049855,8.776874,4.536792,3
19853469483805,-0.07178468,8.7673025,4.536792,3
19853471862867,-0.023928227,8.752945,4.5559344,3
19853474241930,-0.0047856453,8.7577305,4.546363,3
19853476620992,0.023928227,8.752945,4.546363,3
19853479000055,0.038285162,8.781659,4.551149,3
19853481379117,0.038285162,8.781659,4.5272202,3
19853483758180,0.023928227,8.776874,4.5320063,3
19853486137242,-0.009571291,8.772088,4.536792,3
19853488516357,-0.02871387,8.79123,4.5320063,3
19853490895420,-0.043070808,8.79123,4.5272202,3
19853493274482,-0.09092726,8.781659,4.517649,3
19853495653545,-0.11006984,8.7673025,4.508078,3
19853498032607,-0.09092726,8.796016,4.517649,3
19853500411670,-0.09092726,8.810373,4.517649,3
19853502790732,-0.076570325,8.815159,4.517649,3
19853505169795,-0.06699903,8.810373,4.5272202,3
19853507548857,-0.038285162,8.79123,4.536792,3
19853509927920,-0.014356935,8.781659,4.5320063,3
19853512306982,0.009571291,8.772088,4.5128636,3
19853514686045,0.047856454,8.79123,4.503292,3
19853517065107,0.10049855,8.772088,4.4841495,3
19853519444170,0.13878371,8.7673025,4.493721,3
19853521823232,0.19142582,8.772088,4.5128636,3
19853524202295,0.19621146,8.786445,4.508078,3
19853526581357,0.19621146,8.776874,4.4985065,3
19853528960420,0.19142582,8.7673025,4.4841495,3
19853531339482,0.17228323,8.786445,4.479364,3
19853533718545,0.17228323,8.79123,4.4745784,3
19853536097659,0.14356937,8.810373,4.4889355,3
19853538476722,0.1052842,8.79123,4.4889355,3
19853540855784,0.0526421,8.79123,4.479364,3
19853543234847,0.014356935,8.7673025,4.4745784,3
19853545613909,-0.023928227,8.7673025,4.465007,3
19853547992972,-0.062213387,8.762517,4.465007,3
19853550372034,-0.08135597,8.7673025,4.4841495,3
19853552751097,-0.08135597,8.729017,4.4841495,3
19853555130159,-0.06699903,8.729017,4.5224347,3
19853557509222,-0.08135597,8.733803,4.517649,3
19853559888284,-0.0526421,8.748159,4.5128636,3
19853562267347,-0.02871387,8.729017,4.536792,3
19853564646409,-0.02871387,8.752945,4.5415773,3
19853567025472,0.019142581,8.7577305,4.5415773,3
19853569404534,0.033499517,8.7673025,4.536792,3
19853571783597,0.07178468,8.772088,4.5559344,3
19853574162659,0.076570325,8.776874,4.5415773,3
19853576541722,0.08135597,8.776874,4.536792,3
19853578920784,0.08135597,8.800801,4.5415773,3
19853581299847,0.08135597,8.79123,4.5320063,3
19853583678961,0.08135597,8.776874,4.536792,3
19853586058024,0.033499517,8.781659,4.5224347,3
19853588437086,0.0,8.810373,4.5128636,3
19853590816149,-0.023928227,8.762517,4.5224347,3
19853593195211,-0.05742774,8.752945,4.5128636,3
19853595574274,-0.1052842,8.7673025,4.4985065,3
19853597953336,-0.13399807,8.748159,4.503292,3
19853600332399,-0.13399807,8.772088,4.4841495,3
19853602711461,-0.14356937,8.805588,4.4745784,3
19853605090524,-0.148355,8.776874,4.4985065,3
19853607469586,-0.16749759,8.776874,4.465007,3
19853609848649,-0.17706887,8.810373,4.469793,3
19853612227711,-0.16271193,8.805588,4.4458647,3
19853614606774,-0.13399807,8.810373,4.45065,3
19853616985836,-0.124426775,8.810373,4.4458647,3
19853619364899,-0.11964113,8.82473,4.4410787,3
19853621743961,-0.124426775,8.829515,4.4315076,3
19853624123024,-0.11485548,8.810373,4.426722,3
19853626502086,-0.11006984,8.82473,4.426722,3
19853628881149,-0.124426775,8.829515,4.4315076,3
19853631260263,-0.12921242,8.82473,4.421936,3
19853633639326,-0.17706887,8.829515,4.426722,3
19853636018388,-0.19621146,8.839087,4.426722,3
19853638397451,-0.21535404,8.843872,4.436293,3
19853640776513,-0.23928227,8.834301,4.426722,3
19853643155576,-0.27756742,8.815159,4.426722,3
19853645534638,-0.2727818,8.819944,4.412365,3
19853647913701,-0.26799613,8.829515,4.426722,3
19853650292763,-0.2632105,8.834301,4.4171505,3
19853652671826,-0.22013968,8.786445,4.421936,3
19853655050888,-0.17228323,8.805588,4.4315076,3
19853657429951,-0.148355,8.819944,4.45065,3
19853659809013,-0.12921242,8.805588,4.421936,3
19853662188076,-0.05742774,8.800801,4.436293,3
19853664567138,-0.023928227,8.781659,4.45065,3
19853666946201,0.014356935,8.772088,4.4410787,3
19853669325263,0.0526421,8.776874,4.4410787,3
19853671704326,0.09092726,8.7577305,4.4554358,3
19853674083440,0.086141616,8.752945,4.465007,3
19853676462503,0.09092726,8.748159,4.479364,3
19853678841565,0.062213387,8.752945,4.4889355,3
19853681220628,0.0526421,8.733803,4.4745784,3
19853683599690,-0.019142581,8.752945,4.493721,3
19853685978753,-0.05742774,8.776874,4.508078,3
19853688357815,-0.09092726,8.786445,4.508078,3
19853690736878,-0.15314065,8.800801,4.517649,3
19853693115940,-0.19142582,8.805588,4.5224347,3
19853695495003,-0.22492532,8.79123,4.546363,3
19853697874065,-0.25842485,8.79123,4.5415773,3
19853700253128,-0.26799613,8.805588,4.536792,3
19853702632190,-0.25842485,8.786445,4.5320063,3
19853705011253,-0.25842485,8.79123,4.5128636,3
19853707390315,-0.2440679,8.796016,4.5272202,3
19853709769378,-0.22013968,8.7577305,4.517649,3
19853712148388,-0.16749759,8.772088,4.5272202,3
19853714527503,-0.148355,8.772088,4.536792,3
19853716906565,-0.11485548,8.781659,4.5320063,3
19853719285628,-0.06699903,8.796016,4.503292,3
19853721664742,-0.06699903,8.7673025,4.508078,3
19853724043805,-0.11485548,8.79123,4.503292,3
19853726422815,-0.10049855,8.79123,4.493721,3
19853728801930,-0.124426775,8.796016,4.517649,3
19853731180992,-0.14356937,8.776874,4.5128636,3
19853733560055,-0.17228323,8.781659,4.508078,3
19853735939117,-0.2009971,8.810373,4.4985065,3
19853738318180,-0.22492532,8.810373,4.4889355,3
19853740697242,-0.22492532,8.805588,4.4889355,3
19853743076305,-0.24885355,8.819944,4.4889355,3
19853745455367,-0.23928227,8.819944,4.493721,3
19853747834430,-0.2536392,8.839087,4.493721,3
19853750213492,-0.24885355,8.839087,4.503292,3
19853752592555,-0.2105684,8.800801,4.4841495,3
19853754971617,-0.148355,8.815159,4.4889355,3
19853757350680,-0.08135597,8.819944,4.4889355,3
19853759729742,-0.02871387,8.805588,4.4841495,3
19853762108805,0.019142581,8.810373,4.4602213,3
19853764487867,0.08135597,8.786445,4.469793,3
19853766866982,0.12921242,8.776874,4.4841495,3
19853769246045,0.17706887,8.79123,4.4841495,3
19853771625107,0.22013968,8.781659,4.4602213,3
19853774004170,0.23449662,8.79123,4.4554358,3
19853776383232,0.2536392,8.781659,4.45065,3
19853778762295,0.2727818,8.772088,4.4458647,3
19853781141357,0.25842485,8.776874,4.4410787,3
19853783520420,0.21535404,8.781659,4.45065,3
19853785899482,0.18664017,8.776874,4.4554358,3
19853788278545,0.148355,8.776874,4.4554358,3
19853790657555,0.086141616,8.776874,4.4602213,3
19853793036670,0.02871387,8.776874,4.4410787,3
19853795415732,-0.009571291,8.796016,4.436293,3
19853797794795,-0.07178468,8.776874,4.45065,3
19853800173857,-0.11485548,8.7673025,4.479364,3
19853802552920,-0.148355,8.79123,4.479364,3
19853804931982,-0.2009971,8.810373,4.4602213,3
19853807311045,-0.20578274,8.810373,4.4410787,3
19853809690055,-0.23449662,8.82473,4.4602213,3
19853812069170,-0.2632105,8.819944,4.465007,3
19853814448284,-0.29192436,8.834301,4.465007,3
19853816827347,-0.26799613,8.815159,4.4554358,3
19853819206409,-0.26799613,8.805588,4.436293,3
19853821585472,-0.27756742,8.810373,4.4410787,3
19853823964534,-0.25842485,8.810373,4.4602213,3
19853826343597,-0.23449662,8.786445,4.4410787,3
19853828722659,-0.2440679,8.7577305,4.436293,3
19853831101722,-0.25842485,8.772088,4.4554358,3
19853833480784,-0.2536392,8.772088,4.4602213,3
19853835859847,-0.27756742,8.762517,4.4458647,3
19853838238909,-0.28235307,8.762517,4.45065,3
19853840617972,-0.29671,8.772088,4.465007,3
19853842997034,-0.32542387,8.805588,4.4602213,3
19853845376097,-0.30149564,8.800801,4.45065,3
19853847755159,-0.29671,8.805588,4.4458647,3
19853850134222,-0.29671,8.810373,4.465007,3
19853852513284,-0.29671,8.815159,4.436293,3
19853854892347,-0.27756742,8.815159,4.4458647,3
19853857271461,-0.2632105,8.800801,4.4458647,3
19853859650524,-0.24885355,8.800801,4.45065,3
19853862029586,-0.21535404,8.796016,4.4602213,3
19853864408649,-0.2009971,8.781659,4.4458647,3
19853866787711,-0.17706887,8.800801,4.4458647,3
19853869166774,-0.16271193,8.796016,4.469793,3
19853871545836,-0.124426775,8.819944,4.4745784,3
19853873924899,-0.11006984,8.800801,4.465007,3
19853876303961,-0.11006984,8.800801,4.4554358,3
19853878683024,-0.08135597,8.815159,4.465007,3
19853881062086,-0.047856454,8.819944,4.4554358,3
19853883441149,-0.047856454,8.819944,4.4554358,3
19853885820211,-0.047856454,8.819944,4.4410787,3
19853888199274,-0.019142581,8.796016,4.436293,3
19853890578284,0.014356935,8.815159,4.436293,3
19853892957399,0.009571291,8.834301,4.426722,3
19853895336513,0.0047856453,8.829515,4.421936,3
19853897715576,0.0047856453,8.829515,4.436293,3
19853900094638,0.0,8.839087,4.4602213,3
19853902473701,0.009571291,8.853444,4.436293,3
19853904852763,0.038285162,8.853444,4.4315076,3
19853907231826,0.023928227,8.863015,4.426722,3
19853909610888,0.014356935,8.85823,4.426722,3
19853911989951,0.014356935,8.839087,4.421936,3
19853914369013,-0.0047856453,8.839087,4.436293,3
19853916748076,-0.019142581,8.829515,4.45065,3
19853919127138,-0.047856454,8.819944,4.4315076,3
19853921506201,-0.07178468,8.82473,4.4410787,3
19853923885263,-0.086141616,8.810373,4.4554358,3
19853926264326,-0.11006984,8.819944,4.4554358,3
19853928643388,-0.12921242,8.848659,4.4554358,3
19853931022451,-0.11485548,8.85823,4.4745784,3
19853933401513,-0.11485548,8.85823,4.4602213,3
19853935780576,-0.11964113,8.85823,4.469793,3
19853938159638,-0.11485548,8.843872,4.4985065,3
19853940538701,-0.06699903,8.863015,4.503292,3
19853942917763,-0.047856454,8.85823,4.503292,3
19853945296826,-0.0526421,8.819944,4.5128636,3
19853947675940,-0.033499517,8.810373,4.5128636,3
19853950055003,0.02871387,8.786445,4.508078,3
19853952434065,0.043070808,8.786445,4.5128636,3
19853954813128,0.0526421,8.79123,4.503292,3
19853957192190,0.043070808,8.7673025,4.4745784,3
19853959571253,0.009571291,8.781659,4.4889355,3
19853961950315,-0.0047856453,8.7673025,4.4985065,3
19853964329378,0.0,8.762517,4.503292,3
19853966708440,0.0047856453,8.738588,4.4889355,3
19853969087503,0.0047856453,8.724232,4.4745784,3
19853971466565,-0.023928227,8.724232,4.4889355,3
19853973845628,-0.023928227,8.729017,4.4985065,3
19853976224690,-0.02871387,8.748159,4.493721,3
19853978603753,-0.0526421,8.7577305,4.503292,3
19853980982815,-0.043070808,8.762517,4.503292,3
19853983361878,-0.05742774,8.781659,4.469793,3
19853985740940,-0.062213387,8.786445,4.469793,3
19853988120055,-0.0526421,8.796016,4.469793,3
19853990499117,-0.062213387,8.800801,4.4745784,3
19853992878180,-0.062213387,8.786445,4.4841495,3
19853995257242,-0.043070808,8.7673025,4.469793,3
19853997636305,-0.023928227,8.819944,4.465007,3
19854000015315,-0.014356935,8.82473,4.4602213,3
19854002394430,0.02871387,8.829515,4.4602213,3
19854004773492,0.038285162,8.805588,4.4554358,3
19854007152555,0.043070808,8.810373,4.45065,3
19854009531617,0.019142581,8.829515,4.469793,3
19854011910680,0.02871387,8.819944,4.436293,3
19854014289690,0.02871387,8.819944,4.4554358,3
19854016668805,0.009571291,8.82473,4.4410787,3
19854019047867,-0.009571291,8.815159,4.4410787,3
19854021426930,-0.038285162,8.82473,4.4315076,3
19854023805992,-0.047856454,8.834301,4.4410787,3
19854026185055,-0.07178468,8.815159,4.4410787,3
19854028564117,-0.09571291,8.834301,4.436293,3
19854030943232,-0.1052842,8.819944,4.436293,3
19854033322295,-0.13399807,8.800801,4.4075794,3
19854035701357,-0.15314065,8.82473,4.4171505,3
19854038080420,-0.15792629,8.848659,4.436293,3
19854040459482,-0.17228323,8.819944,4.421936,3
19854042838545,-0.19142582,8.796016,4.436293,3
19854045217607,-0.16749759,8.82473,4.4315076,3
19854047596670,-0.17706887,8.819944,4.436293,3
19854049975732,-0.148355,8.79123,4.436293,3
19854052354795,-0.11485548,8.796016,4.4315076,3
19854054733857,-0.08135597,8.815159,4.436293,3
19854057112920,-0.062213387,8.79123,4.4410787,3
19854059491982,-0.043070808,8.79123,4.4554358,3
19854061871045,-0.047856454,8.800801,4.4410787,3
19854064250107,-0.0526421,8.805588,4.436293,3
19854066629170,-0.043070808,8.786445,4.45065,3
19854069008232,-0.047856454,8.796016,4.4602213,3
19854071387347,-0.033499517,8.810373,4.4602213,3
19854073766357,-0.033499517,8.819944,4.4554358,3
19854076145472,-0.076570325,8.805588,4.469793,3
19854078524534,-0.07178468,8.829515,4.479364,3
19854080903597,-0.07178468,8.815159,4.4841495,3
19854083282659,-0.09571291,8.805588,4.469793,3
19854085661722,-0.11485548,8.810373,4.4745784,3
19854088040784,-0.11485548,8.815159,4.4745784,3
19854090419847,-0.11964113,8.843872,4.4745784,3
19854092798909,-0.11006984,8.82473,4.4841495,3
19854095177972,-0.11485548,8.800801,4.508078,3
19854097557034,-0.09571291,8.810373,4.5272202,3
19854099936097,-0.076570325,8.810373,4.5224347,3
19854102315159,-0.0526421,8.810373,4.493721,3
19854104694222,-0.043070808,8.819944,4.4985065,3
19854107073284,-0.009571291,8.839087,4.4889355,3
19854109452347,0.009571291,8.82473,4.4889355,3
19854111831409,0.023928227,8.82473,4.479364,3
19854114210472,0.047856454,8.819944,4.479364,3
19854116589534,0.06699903,8.800801,4.503292,3
19854118968649,0.09092726,8.810373,4.4841495,3
19854121347711,0.10049855,8.810373,4.469793,3
19854123726774,0.09092726,8.786445,4.4841495,3
19854126105836,0.076570325,8.82473,4.4841495,3
19854128484899,0.062213387,8.810373,4.4841495,3
19854130863961,0.0526421,8.819944,4.493721,3
19854133243024,0.038285162,8.815159,4.4889355,3
19854135622086,0.043070808,8.805588,4.493721,3
19854138001149,0.043070808,8.815159,4.4841495,3
19854140380211,0.062213387,8.800801,4.503292,3
19854142759274,0.043070808,8.810373,4.508078,3
19854145138336,0.023928227,8.805588,4.503292,3
19854147517399,0.038285162,8.781659,4.4841495,3
19854149896461,0.0526421,8.786445,4.493721,3
19854152275524,0.07178468,8.762517,4.503292,3
19854154654586,0.086141616,8.79123,4.503292,3
19854157033649,0.10049855,8.79123,4.503292,3
19854159412711,0.13878371,8.7673025,4.503292,3
19854161791826,0.12921242,8.762517,4.517649,3
19854164170888,0.148355,8.748159,4.5272202,3
19854166549951,0.15792629,8.752945,4.5272202,3
19854168929013,0.14356937,8.748159,4.536792,3
19854171308076,0.12921242,8.743374,4.5272202,3
19854173687138,0.10049855,8.752945,4.5272202,3
19854176066201,0.09571291,8.7577305,4.536792,3
19854178445263,0.086141616,8.738588,4.517649,3
19854180824326,0.07178468,8.724232,4.5320063,3
19854183203388,0.033499517,8.738588,4.551149,3
19854185582451,0.02871387,8.7577305,4.5415773,3
19854187961513,0.023928227,8.738588,4.5415773,3
19854190340576,0.009571291,8.729017,4.5655055,3
19854192719638,-0.0047856453,8.7577305,4.570291,3
19854195098701,-0.0047856453,8.752945,4.570291,3
19854197477763,0.033499517,8.733803,4.584648,3
19854199856826,0.023928227,8.743374,4.5798626,3
19854202235888,0.023928227,8.752945,4.575077,3
19854204614951,0.038285162,8.7673025,4.5798626,3
19854206994065,0.023928227,8.733803,4.5655055,3
19854209373128,0.009571291,8.748159,4.56072,3
19854211752190,0.023928227,8.752945,4.5415773,3
19854214131253,0.038285162,8.752945,4.546363,3
19854216510315,0.038285162,8.729017,4.5559344,3
19854218889378,0.02871387,8.743374,4.5415773,3
19854221268440,0.033499517,8.752945,4.551149,3
19854223647503,0.014356935,8.752945,4.551149,3
19854226026565,-0.009571291,8.776874,4.56072,3
19854228405628,-0.0047856453,8.781659,4.5655055,3
19854230784690,-0.02871387,8.772088,4.56072,3
19854233163753,-0.02871387,8.7577305,4.551149,3
19854235542815,-0.033499517,8.776874,4.5320063,3
19854237921878,-0.0526421,8.762517,4.536792,3
19854240300940,-0.0526421,8.7577305,4.56072,3
19854242680003,-0.0526421,8.752945,4.5798626,3
19854245059065,-0.05742774,8.762517,4.570291,3
19854247438180,-0.009571291,8.743374,4.551149,3
19854249817242,0.0047856453,8.752945,4.5415773,3
19854252196305,0.009571291,8.7673025,4.551149,3
19854254575367,0.014356935,8.762517,4.546363,3
19854256954430,0.02871387,8.743374,4.551149,3
19854259333492,0.05742774,8.7577305,4.551149,3
19854261712555,0.05742774,8.7577305,4.546363,3
19854264091617,0.05742774,8.786445,4.546363,3
19854266470680,0.06699903,8.762517,4.5320063,3
19854268849742,0.0526421,8.7673025,4.5559344,3
19854271228805,0.02871387,8.762517,4.551149,3
19854273607867,0.014356935,8.781659,4.546363,3
19854275986930,0.014356935,8.776874,4.5224347,3
19854278365992,-0.014356935,8.762517,4.5272202,3
19854280745055,-0.014356935,8.752945,4.536792,3
19854283124117,-0.0526421,8.752945,4.551149,3
19854285503180,-0.10049855,8.7673025,4.546363,3
19854287882295,-0.11485548,8.7673025,4.546363,3
19854290261357,-0.124426775,8.79123,4.5415773,3
19854292640367,-0.12921242,8.781659,4.5320063,3
19854295019482,-0.124426775,8.781659,4.5320063,3
19854297398492,-0.11485548,8.786445,4.508078,3
19854299777607,-0.12921242,8.776874,4.4985065,3
19854302156670,-0.1052842,8.800801,4.4985065,3
19854304535732,-0.07178468,8.79123,4.517649,3
19854306914795,-0.062213387,8.79123,4.5272202,3
19854309293857,-0.033499517,8.800801,4.508078,3
19854311672920,-0.02871387,8.786445,4.503292,3
19854314051982,0.0047856453,8.79123,4.493721,3
19854316431045,-0.0047856453,8.7673025,4.493721,3
19854318810107,0.0,8.7673025,4.4889355,3
19854321189170,-0.009571291,8.781659,4.4985065,3
19854323568232,-0.02871387,8.776874,4.493721,3
19854325947295,-0.023928227,8.772088,4.4985065,3
19854328326409,-0.0526421,8.786445,4.4889355,3
19854330705420,-0.086141616,8.7673025,4.4841495,3
19854333084534,-0.076570325,8.776874,4.493721,3
19854335463597,-0.1052842,8.762517,4.4889355,3
19854337842659,-0.1052842,8.7673025,4.4985065,3
19854340221722,-0.10049855,8.772088,4.4841495,3
19854342600784,-0.14356937,8.772088,4.4745784,3
19854344979847,-0.11485548,8.7673025,4.479364,3
19854347358909,-0.1052842,8.772088,4.4985065,3
19854349737972,-0.11485548,8.772088,4.508078,3
19854352117034,-0.09571291,8.781659,4.479364,3
19854354496097,-0.086141616,8.7577305,4.4985065,3
19854356875159,-0.076570325,8.772088,4.508078,3
19854359254222,-0.07178468,8.7673025,4.517649,3
19854361633284,-0.05742774,8.733803,4.4985065,3
19854364012347,-0.033499517,8.743374,4.5128636,3
19854366391409,-0.038285162,8.748159,4.493721,3
19854368770472,-0.033499517,8.752945,4.4985065,3
19854371149586,-0.033499517,8.748159,4.503292,3
19854373528597,-0.038285162,8.781659,4.503292,3
19854375907711,-0.047856454,8.796016,4.493721,3
19854378286774,-0.06699903,8.781659,4.517649,3
19854380665836,-0.07178468,8.762517,4.508078,3
19854383044899,-0.08135597,8.7673025,4.4841495,3
19854385423961,-0.086141616,8.796016,4.4985065,3
19854387803024,-0.086141616,8.829515,4.5128636,3
19854390182086,-0.11964113,8.839087,4.5415773,3
19854392561149,-0.14356937,8.819944,4.536792,3
19854394940211,-0.148355,8.82473,4.517649,3
19854397319274,-0.124426775,8.815159,4.5320063,3
19854399698336,-0.11485548,8.834301,4.517649,3
19854402077399,-0.11964113,8.848659,4.5224347,3
19854404456461,-0.11964113,8.805588,4.5128636,3
19854406835524,-0.086141616,8.79123,4.493721,3
19854409214586,-0.06699903,8.819944,4.4745784,3
19854411593597,-0.08135597,8.800801,4.4985065,3
19854413972711,-0.09571291,8.786445,4.4985065,3
19854416351774,-0.086141616,8.796016,4.4985065,3
19854418730836,-0.08135597,8.786445,4.4745784,3
19854421109951,-0.076570325,8.762517,4.479364,3
19854423489013,-0.0526421,8.781659,4.469793,3
19854425868076,-0.05742774,8.781659,4.465007,3
19854428247138,-0.05742774,8.7673025,4.4602213,3
19854430626201,-0.062213387,8.7673025,4.426722,3
19854433005263,-0.07178468,8.772088,4.4315076,3
19854435384326,-0.05742774,8.772088,4.426722,3
19854437763388,-0.07178468,8.7673025,4.4458647,3
19854440142451,-0.086141616,8.776874,4.436293,3
19854442521513,-0.09092726,8.786445,4.436293,3
19854444900576,-0.11964113,8.786445,4.426722,3
19854447279638,-0.10049855,8.786445,4.4410787,3
19854449658701,-0.13878371,8.800801,4.45065,3
19854452037763,-0.15792629,8.800801,4.4410787,3
19854454416826,-0.15314065,8.810373,4.4315076,3
19854456795888,-0.14356937,8.805588,4.436293,3
19854459175003,-0.11006984,8.805588,4.45065,3
19854461554065,-0.13878371,8.815159,4.45065,3
19854463933128,-0.1052842,8.829515,4.465007,3
19854466312190,-0.09092726,8.829515,4.4458647,3
19854468691253,-0.09092726,8.819944,4.4315076,3
19854471070315,-0.086141616,8.805588,4.436293,3
19854473449378,-0.05742774,8.79123,4.436293,3
19854475828440,-0.062213387,8.805588,4.4315076,3
19854478207503,-0.062213387,8.815159,4.4315076,3
19854480586565,-0.0526421,8.810373,4.4315076,3
19854482965628,-0.047856454,8.829515,4.4410787,3
19854485344690,-0.07178468,8.853444,4.4315076,3
19854487723753,-0.09092726,8.810373,4.412365,3
19854490102815,-0.11006984,8.796016,4.421936,3
19854492481878,-0.13399807,8.815159,4.4171505,3
19854494860940,-0.14356937,8.82473,4.421936,3
19854497239951,-0.17228323,8.839087,4.426722,3
19854499619117,-0.2009971,8.834301,4.4075794,3
19854501998128,-0.22971097,8.815159,4.402794,3
19854504377242,-0.27756742,8.834301,4.412365,3
19854506756305,-0.29192436,8.834301,4.426722,3
19854509135367,-0.29192436,8.85823,4.4075794,3
19854511514430,-0.33020952,8.867801,4.402794,3
19854513893492,-0.31106696,8.877372,4.412365,3
19854516272555,-0.31585258,8.886943,4.426722,3
19854518651617,-0.28713873,8.891729,4.4315076,3
19854521030680,-0.25842485,8.9108715,4.421936,3
19854523409742,-0.2440679,8.886943,4.388437,3
19854525788805,-0.19142582,8.886943,4.3932223,3
19854528167867,-0.15792629,8.882157,4.412365,3
19854530546930,-0.13399807,8.853444,4.402794,3
19854532925992,-0.11964113,8.848659,4.4075794,3
19854535305055,-0.13878371,8.834301,4.398008,3
19854537684117,-0.13399807,8.805588,4.402794,3
19854540063180,-0.124426775,8.762517,4.398008,3
19854542442295,-0.12921242,8.786445,4.412365,3
19854544821357,-0.14356937,8.815159,4.4171505,3
19854547200420,-0.17228323,8.805588,4.426722,3
19854549579482,-0.19142582,8.79123,4.436293,3
19854551958545,-0.19621146,8.79123,4.45065,3
19854554337607,-0.22013968,8.781659,4.4602213,3
19854556716670,-0.24885355,8.772088,4.4745784,3
19854559095732,-0.24885355,8.786445,4.4889355,3
19854561474795,-0.22492532,8.762517,4.517649,3
19854563853857,-0.23928227,8.752945,4.5272202,3
19854566232920,-0.22971097,8.743374,4.5224347,3
19854568611982,-0.2009971,8.743374,4.5128636,3
19854570991045,-0.16271193,8.729017,4.536792,3
19854573370107,-0.11485548,8.733803,4.5559344,3
19854575749170,-0.086141616,8.733803,4.5559344,3
19854578128232,-0.047856454,8.729017,4.5415773,3
19854580507347,-0.019142581,8.719446,4.56072,3
19854582886409,-0.0047856453,8.719446,4.5798626,3
19854585265472,0.019142581,8.690732,4.575077,3
19854587644534,0.047856454,8.71466,4.584648,3
19854590023597,0.038285162,8.71466,4.584648,3
19854592402659,0.047856454,8.719446,4.5798626,3
19854594781722,0.02871387,8.738588,4.575077,3
19854597160784,0.0,8.733803,4.599005,3
19854599539847,-0.014356935,8.729017,4.6085763,3
19854601918909,-0.047856454,8.724232,4.613362,3
19854604297972,-0.076570325,8.738588,4.6037908,3
19854606677034,-0.086141616,8.724232,4.5894337,3
19854609056097,-0.086141616,8.719446,4.5942197,3
19854611435159,-0.062213387,8.738588,4.584648,3
19854613814222,-0.062213387,8.748159,4.6037908,3
19854616193284,-0.033499517,8.762517,4.6085763,3
19854618572347,-0.009571291,8.738588,4.599005,3
19854620951409,0.0047856453,8.733803,4.6085763,3
19854623330472,0.02871387,8.738588,4.5942197,3
19854625709586,0.062213387,8.733803,4.5894337,3
19854628088597,0.11006984,8.748159,4.5894337,3
19854630467711,0.10049855,8.7577305,4.575077,3
19854632846774,0.086141616,8.762517,4.546363,3
19854635225836,0.124426775,8.743374,4.5415773,3
19854637604899,0.10049855,8.733803,4.536792,3
19854639983961,0.1052842,8.7577305,4.5224347,3
19854642363024,0.1052842,8.748159,4.546363,3
19854644742086,0.08135597,8.738588,4.551149,3
19854647121149,0.062213387,8.733803,4.536792,3
19854649500159,0.02871387,8.748159,4.551149,3
19854651879274,-0.0047856453,8.7577305,4.5415773,3
19854654258336,-0.014356935,8.752945,4.551149,3
19854656637399,-0.0526421,8.7673025,4.536792,3
19854659016461,-0.09092726,8.786445,4.551149,3
19854661395576,-0.1052842,8.743374,4.536792,3
19854663774586,-0.124426775,8.733803,4.536792,3
19854666153649,-0.11964113,8.7577305,4.546363,3
19854668532763,-0.11485548,8.762517,4.5415773,3
19854670911826,-0.09092726,8.729017,4.5272202,3
19854673290888,-0.08135597,8.748159,4.517649,3
19854675669951,-0.05742774,8.781659,4.5320063,3
19854678049013,-0.043070808,8.786445,4.5224347,3
19854680428076,-0.009571291,8.772088,4.517649,3
19854682807138,0.023928227,8.776874,4.503292,3
19854685186201,0.023928227,8.805588,4.503292,3
19854687565263,-0.0047856453,8.815159,4.4985065,3
19854689944326,-0.014356935,8.810373,4.517649,3
19854692323388,-0.038285162,8.79123,4.5128636,3
19854694702451,-0.062213387,8.810373,4.493721,3
19854697081513,-0.076570325,8.82473,4.4985065,3
19854699460576,-0.11006984,8.805588,4.4745784,3
19854701839638,-0.12921242,8.815159,4.4602213,3
19854704218701,-0.12921242,8.815159,4.4745784,3
19854706597815,-0.13878371,8.82473,4.465007,3
19854708976878,-0.13878371,8.810373,4.4602213,3
19854711355940,-0.11964113,8.815159,4.45065,3
19854713735003,-0.09092726,8.810373,4.45065,3
19854716114065,-0.10049855,8.805588,4.45065,3
19854718493128,-0.08135597,8.805588,4.45065,3
19854720872190,-0.06699903,8.82473,4.4602213,3
19854723251253,-0.038285162,8.815159,4.45065,3
19854725630315,-0.02871387,8.800801,4.421936,3
19854728009378,0.0047856453,8.810373,4.421936,3
19854730388440,0.023928227,8.839087,4.4315076,3
19854732767503,0.047856454,8.82473,4.4458647,3
19854735146565,0.05742774,8.829515,4.4458647,3
19854737525628,0.0526421,8.82473,4.4458647,3
19854739904690,0.047856454,8.810373,4.4745784,3
19854742283753,0.043070808,8.819944,4.479364,3
19854744662867,0.02871387,8.819944,4.4745784,3
19854747041930,0.014356935,8.839087,4.479364,3
19854749420992,-0.0047856453,8.82473,4.4889355,3
19854751800055,0.0047856453,8.834301,4.4889355,3
19854754179117,0.014356935,8.815159,4.4841495,3
19854756558180,0.019142581,8.82473,4.4985065,3
19854758937242,0.019142581,8.839087,4.4889355,3
19854761316305,0.043070808,8.872586,4.493721,3
19854763695367,0.06699903,8.853444,4.4889355,3
19854766074430,0.086141616,8.867801,4.503292,3
19854768453492,0.13399807,8.843872,4.4841495,3
19854770832503,0.14356937,8.848659,4.479364,3
19854773211617,0.18185452,8.863015,4.4745784,3
19854775590680,0.19621146,8.829515,4.469793,3
19854777969742,0.19621146,8.819944,4.4841495,3
19854780348805,0.22492532,8.815159,4.479364,3
19854782727867,0.23928227,8.800801,4.479364,3
19854785106930,0.23449662,8.815159,4.469793,3
19854787486045,0.21535404,8.781659,4.479364,3
19854789865107,0.19142582,8.762517,4.469793,3
19854792244170,0.17228323,8.776874,4.479364,3
19854794623232,0.16749759,8.79123,4.4841495,3
19854797002242,0.15314065,8.7577305,4.4841495,3
19854799381357,0.13878371,8.7673025,4.493721,3
19854801760420,0.09571291,8.79123,4.4889355,3
19854804139482,0.07178468,8.810373,4.503292,3
19854806518545,0.043070808,8.805588,4.5272202,3
19854808897607,-0.0047856453,8.79123,4.5224347,3
19854811276670,0.0047856453,8.7673025,4.5272202,3
19854813655732,-0.023928227,8.79123,4.503292,3
19854816034795,-0.047856454,8.800801,4.517649,3
19854818413857,-0.08135597,8.7673025,4.5224347,3
19854820792920,-0.07178468,8.776874,4.508078,3
19854823172034,-0.10049855,8.781659,4.5320063,3
19854825550992,-0.10049855,8.7673025,4.508078,3
19854827930159,-0.1052842,8.748159,4.508078,3
19854830309222,-0.11485548,8.7673025,4.5272202,3
19854832688284,-0.11964113,8.748159,4.503292,3
19854835067347,-0.1052842,8.7673025,4.503292,3
19854837446409,-0.09092726,8.743374,4.5224347,3
19854839825472,-0.062213387,8.733803,4.517649,3
19854842204534,-0.043070808,8.752945,4.508078,3
19854844583597,-0.0047856453,8.738588,4.508078,3
19854846962659,0.0,8.729017,4.508078,3
19854849341722,0.0,8.709874,4.4841495,3
19854851720784,0.014356935,8.695518,4.4985065,3
19854854099847,0.0047856453,8.695518,4.4889355,3
19854856478909,-0.0047856453,8.695518,4.4889355,3
19854858857972,-0.023928227,8.676374,4.503292,3
19854861237034,-0.043070808,8.666803,4.5224347,3
19854863616097,-0.062213387,8.724232,4.517649,3
19854865995211,-0.062213387,8.738588,4.5272202,3
19854868374274,-0.09571291,8.7577305,4.5320063,3
19854870753336,-0.124426775,8.776874,4.5320063,3
19854873132399,-0.15792629,8.796016,4.536792,3
19854875511461,-0.17706887,8.819944,4.546363,3
19854877890472,-0.2009971,8.829515,4.56072,3
19854880269586,-0.2009971,8.829515,4.575077,3
19854882648649,-0.17706887,8.82473,4.575077,3
19854885027711,-0.18664017,8.796016,4.56072,3
19854887406774,-0.16749759,8.796016,4.570291,3
19854889785836,-0.124426775,8.781659,4.5559344,3
19854892164899,-0.10049855,8.776874,4.575077,3
19854894543961,-0.06699903,8.7577305,4.570291,3
19854896923024,-0.02871387,8.7673025,4.5798626,3
19854899302086,-0.023928227,8.762517,4.5655055,3
19854901681149,0.014356935,8.752945,4.584648,3
19854904060211,0.043070808,8.7673025,4.5798626,3
19854906439274,0.0526421,8.748159,4.5655055,3
19854908818388,0.047856454,8.748159,4.584648,3
19854911197451,0.062213387,8.743374,4.584648,3
19854913576513,0.023928227,8.71466,4.575077,3
19854915955576,-0.014356935,8.733803,4.575077,3
19854918334638,-0.019142581,8.733803,4.570291,3
19854920713701,-0.019142581,8.719446,4.570291,3
19854923092763,-0.0526421,8.700303,4.5798626,3
19854925471826,-0.10049855,8.719446,4.56072,3
19854927850888,-0.11964113,8.724232,4.5798626,3
19854930229951,-0.12921242,8.71466,4.5894337,3
19854932609013,-0.12921242,8.71466,4.5942197,3
19854934988076,-0.1052842,8.705089,4.599005,3
19854937367138,-0.09571291,8.685946,4.613362,3
19854939746201,-0.07178468,8.690732,4.6229334,3
19854942125263,-0.038285162,8.671589,4.6037908,3
19854944504326,0.019142581,8.657232,4.5942197,3
19854946883388,0.0526421,8.666803,4.6037908,3
19854949262503,0.09571291,8.681161,4.599005,3
19854951641565,0.11006984,8.681161,4.5894337,3
19854954020628,0.14356937,8.681161,4.56072,3
19854956399690,0.16271193,8.700303,4.5894337,3
19854958778753,0.19142582,8.695518,4.5798626,3
19854961157815,0.17228323,8.705089,4.5894337,3
19854963536878,0.16271193,8.733803,4.599005,3
19854965915940,0.14356937,8.738588,4.5894337,3
19854968295003,0.1052842,8.7577305,4.6037908,3
19854970674065,0.08135597,8.7673025,4.599005,3
19854973053128,0.076570325,8.7577305,4.5894337,3
19854975432190,0.047856454,8.772088,4.599005,3
19854977811253,0.023928227,8.7577305,4.5798626,3
19854980190315,0.009571291,8.748159,4.570291,3
19854982569378,-0.009571291,8.743374,4.5655055,3
19854984948440,-0.014356935,8.752945,4.56072,3
19854987327555,0.014356935,8.776874,4.56072,3
19854989706617,0.023928227,8.772088,4.56072,3
19854992085628,0.047856454,8.776874,4.570291,3
19854994464742,0.0526421,8.7673025,4.56072,3
19854996843805,0.07178468,8.781659,4.5320063,3
19854999222867,0.086141616,8.762517,4.5128636,3
19855001601930,0.09092726,8.772088,4.536792,3
19855003980992,0.076570325,8.781659,4.517649,3
19855006360055,0.06699903,8.819944,4.5128636,3
19855008739117,0.07178468,8.815159,4.4985065,3
19855011118180,0.038285162,8.810373,4.4745784,3
19855013497242,0.043070808,8.810373,4.4841495,3
19855015876305,-0.0047856453,8.815159,4.4745784,3
19855018255367,-0.038285162,8.796016,4.465007,3
19855020634430,-0.09092726,8.79123,4.479364,3
19855023013492,-0.11485548,8.815159,4.493721,3
19855025392555,-0.14356937,8.82473,4.4841495,3
19855027771670,-0.13399807,8.810373,4.4745784,3
19855030150732,-0.124426775,8.815159,4.4554358,3
19855032529795,-0.13878371,8.796016,4.465007,3
19855034908857,-0.13878371,8.82473,4.465007,3
19855037287920,-0.10049855,8.82473,4.465007,3
19855039666982,-0.09092726,8.82473,4.4554358,3
19855042046045,-0.062213387,8.805588,4.4315076,3
19855044425107,-0.047856454,8.815159,4.4410787,3
19855046804170,-0.009571291,8.786445,4.4315076,3
19855049183232,0.038285162,8.776874,4.4171505,3
19855051562295,0.06699903,8.781659,4.4171505,3
19855053941357,0.09092726,8.762517,4.4315076,3
19855056320367,0.11964113,8.762517,4.436293,3
19855058699482,0.12921242,8.772088,4.4315076,3
19855061078545,0.124426775,8.79123,4.426722,3
19855063457607,0.10049855,8.776874,4.426722,3
19855065836722,0.076570325,8.796016,4.4554358,3
19855068215784,0.038285162,8.815159,4.45065,3
19855070594847,-0.033499517,8.848659,4.436293,3
19855072973909,-0.07178468,8.867801,4.4410787,3
19855075352972,-0.12921242,8.848659,4.45065,3
19855077732034,-0.15792629,8.848659,4.45065,3
19855080111097,-0.19621146,8.863015,4.436293,3
19855082490159,-0.19621146,8.853444,4.426722,3
19855084869222,-0.21535404,8.877372,4.4315076,3
19855087248284,-0.2440679,8.848659,4.426722,3
19855089627347,-0.23928227,8.872586,4.4075794,3
19855092006409,-0.20578274,8.85823,4.4075794,3
19855094385472,-0.17228323,8.863015,4.4171505,3
19855096764534,-0.148355,8.853444,4.412365,3
19855099143597,-0.10049855,8.853444,4.4075794,3
19855101522659,-0.08135597,8.848659,4.4315076,3
19855103901774,-0.038285162,8.872586,4.4315076,3
19855106280836,-0.047856454,8.843872,4.412365,3
19855108659899,-0.014356935,8.877372,4.4075794,3
19855111038961,-0.033499517,8.891729,4.4315076,3
19855113418024,-0.023928227,8.886943,4.421936,3
19855115797086,-0.07178468,8.896515,4.4075794,3
19855118176149,-0.076570325,8.896515,4.4075794,3
19855120555211,-0.12921242,8.9108715,4.402794,3
19855122934274,-0.17228323,8.915657,4.4171505,3
19855125313336,-0.22013968,8.896515,4.398008,3
19855127692399,-0.2536392,8.896515,4.3740797,3
19855130071461,-0.29671,8.882157,4.3932223,3
19855132450524,-0.33020952,8.863015,4.4075794,3
19855134829586,-0.3397808,8.863015,4.426722,3
19855137208649,-0.3589234,8.853444,4.412365,3
19855139587711,-0.3589234,8.843872,4.402794,3
19855141966774,-0.31106696,8.796016,4.421936,3
19855144345836,-0.23928227,8.800801,4.4315076,3
19855146724951,-0.17706887,8.7673025,4.4171505,3
19855149104013,-0.11006984,8.796016,4.4315076,3
19855151483076,-0.047856454,8.79123,4.412365,3
19855153862138,-0.0047856453,8.748159,4.402794,3
19855156241201,0.019142581,8.724232,4.4075794,3
19855158620263,0.09092726,8.738588,4.4171505,3
19855160999326,0.09092726,8.738588,4.412365,3
19855163378388,0.09092726,8.762517,4.4171505,3
19855165757451,0.11485548,8.786445,4.436293,3
19855168136513,0.076570325,8.776874,4.4315076,3
19855170515576,0.047856454,8.762517,4.4458647,3
19855172894638,0.014356935,8.79123,4.469793,3
19855175273701,-0.014356935,8.776874,4.4841495,3
19855177652763,-0.05742774,8.786445,4.493721,3
19855180031826,-0.11964113,8.796016,4.4841495,3
19855182410888,-0.17228323,8.796016,4.493721,3
19855184790003,-0.2105684,8.772088,4.493721,3
19855187169065,-0.2105684,8.7577305,4.4985065,3
19855189548128,-0.22492532,8.743374,4.5128636,3
19855191927190,-0.2009971,8.719446,4.5224347,3
19855194306253,-0.18185452,8.719446,4.5272202,3
19855196685315,-0.16749759,8.738588,4.5320063,3
19855199064378,-0.148355,8.738588,4.536792,3
19855201443440,-0.09092726,8.776874,4.536792,3
19855203822503,-0.05742774,8.772088,4.5320063,3
19855206201565,-0.038285162,8.805588,4.5272202,3
19855208580628,0.0,8.815159,4.5224347,3
19855210959690,0.014356935,8.829515,4.5320063,3
19855213338753,0.019142581,8.839087,4.5272202,3
19855215717815,0.0,8.848659,4.5415773,3
19855218096878,-0.023928227,8.848659,4.5415773,3
19855220475940,-0.05742774,8.82473,4.5272202,3
19855222855003,-0.076570325,8.829515,4.536792,3
19855225234117,-0.08135597,8.810373,4.5415773,3
19855227613180,-0.11006984,8.786445,4.546363,3
19855229992242,-0.1052842,8.786445,4.536792,3
19855232371305,-0.086141616,8.781659,4.5415773,3
19855234750367,-0.08135597,8.781659,4.56072,3
19855237129430,-0.07178468,8.7577305,4.5559344,3
19855239508492,-0.02871387,8.7577305,4.546363,3
19855241887555,0.014356935,8.7577305,4.570291,3
19855244266617,0.08135597,8.743374,4.5655055,3
19855246645680,0.1052842,8.733803,4.536792,3
19855249024742,0.14356937,8.748159,4.551149,3
19855251403805,0.17706887,8.738588,4.5272202,3
19855253782815,0.2105684,8.733803,4.546363,3
19855256161930,0.21535404,8.719446,4.546363,3
19855258541045,0.22013968,8.733803,4.536792,3
19855260920055,0.18185452,8.743374,4.5415773,3
19855263299170,0.16271193,8.748159,4.551149,3
19855265678232,0.13878371,8.752945,4.56072,3
19855268057295,0.076570325,8.7673025,4.570291,3
19855270436357,0.033499517,8.748159,4.56072,3
19855272815420,0.014356935,8.748159,4.570291,3
19855275194482,-0.009571291,8.738588,4.5559344,3
19855277573492,-0.05742774,8.729017,4.5559344,3
19855279952607,-0.07178468,8.738588,4.575077,3
19855282331670,-0.086141616,8.724232,4.599005,3
19855284710732,-0.09092726,8.724232,4.584648,3
19855287089795,-0.076570325,8.709874,4.575077,3
19855289468857,-0.047856454,8.709874,4.56072,3
19855291847920,-0.023928227,8.724232,4.551149,3
19855294226982,0.009571291,8.729017,4.5415773,3
19855296606045,0.0047856453,8.709874,4.517649,3
19855298985107,0.033499517,8.729017,4.5128636,3
19855301364222,0.062213387,8.733803,4.4985065,3
19855303743284,0.0526421,8.733803,4.5224347,3
19855306122347,0.062213387,8.7577305,4.517649,3
19855308501409,0.05742774,8.796016,4.493721,3
19855310880472,0.023928227,8.796016,4.508078,3
19855313259534,-0.0047856453,8.786445,4.508078,3
19855315638597,-0.038285162,8.805588,4.517649,3
19855318017659,-0.047856454,8.800801,4.5128636,3
19855320396670,-0.09571291,8.796016,4.508078,3
19855322775784,-0.09092726,8.781659,4.508078,3
19855325154847,-0.11964113,8.805588,4.508078,3
19855327533909,-0.13399807,8.82473,4.517649,3
19855329912972,-0.1052842,8.810373,4.5224347,3
19855332292034,-0.08135597,8.805588,4.508078,3
19855334671097,-0.043070808,8.82473,4.4889355,3
19855337050159,-0.014356935,8.800801,4.479364,3
19855339429222,0.019142581,8.776874,4.479364,3
19855341808336,0.047856454,8.800801,4.4889355,3
19855344187347,0.062213387,8.796016,4.469793,3
19855346566461,0.062213387,8.786445,4.465007,3
19855348945524,0.076570325,8.819944,4.4745784,3
19855351324586,0.09571291,8.805588,4.469793,3
19855353703649,0.11006984,8.800801,4.479364,3
19855356082711,0.09571291,8.819944,4.4889355,3
19855358461774,0.09571291,8.810373,4.4985065,3
19855360840836,0.09092726,8.815159,4.479364,3
19855363219899,0.07178468,8.810373,4.4745784,3
19855365598961,0.062213387,8.834301,4.479364,3
19855367978024,0.0526421,8.848659,4.479364,3
19855370357086,0.014356935,8.843872,4.4745784,3
19855372736149,0.009571291,8.82473,4.4985065,3
19855375115211,0.0047856453,8.805588,4.4745784,3
19855377494274,-0.014356935,8.829515,4.465007,3
19855379873388,-0.014356935,8.819944,4.469793,3
19855382252451,0.038285162,8.815159,4.4745784,3
19855384631513,0.047856454,8.82473,4.465007,3
19855387010576,0.0526421,8.82473,4.4602213,3
19855389389638,0.062213387,8.805588,4.4745784,3
19855391768701,0.07178468,8.781659,4.465007,3
19855394147763,0.09571291,8.776874,4.45065,3
19855396526826,0.1052842,8.796016,4.4458647,3
19855398905888,0.11485548,8.776874,4.4602213,3
19855401284951,0.10049855,8.776874,4.45065,3
19855403664013,0.10049855,8.810373,4.4554358,3
19855406043076,0.076570325,8.819944,4.4602213,3
19855408422086,0.043070808,8.810373,4.4602213,3
19855410801201,0.023928227,8.810373,4.465007,3
19855413180263,-0.009571291,8.810373,4.465007,3
19855415559378,-0.019142581,8.819944,4.465007,3
19855417938388,-0.023928227,8.810373,4.4745784,3
19855420317503,-0.038285162,8.796016,4.479364,3
19855422696565,-0.043070808,8.810373,4.479364,3
19855425075628,-0.033499517,8.776874,4.493721,3
19855427454690,-0.019142581,8.752945,4.4985065,3
19855429833753,0.0047856453,8.709874,4.4985065,3
19855432212815,0.009571291,8.709874,4.493721,3
19855434591878,0.0047856453,8.762517,4.4841495,3
19855436970940,0.019142581,8.772088,4.503292,3
19855439350003,0.02871387,8.781659,4.493721,3
19855441729065,0.038285162,8.772088,4.508078,3
19855444108128,0.047856454,8.772088,4.4985065,3
19855446487190,0.076570325,8.772088,4.508078,3
19855448866253,0.06699903,8.781659,4.493721,3
19855451245315,0.043070808,8.796016,4.517649,3
19855453624378,0.0526421,8.781659,4.5320063,3
19855456003492,0.033499517,8.805588,4.5224347,3
19855458382555,0.033499517,8.800801,4.5320063,3
19855460761617,0.019142581,8.796016,4.546363,3
19855463140680,0.023928227,8.776874,4.5559344,3
19855465519742,0.023928227,8.7577305,4.56072,3
19855467898805,0.023928227,8.743374,4.575077,3
19855470277867,0.033499517,8.738588,4.5942197,3
19855472656930,0.047856454,8.724232,4.5894337,3
19855475035992,0.06699903,8.738588,4.584648,3
19855477415055,0.11006984,8.738588,4.6037908,3
19855479794117,0.14356937,8.733803,4.599005,3
19855482173180,0.18185452,8.724232,4.5942197,3
19855484552242,0.18185452,8.762517,4.599005,3
19855486931305,0.22013968,8.762517,4.575077,3
19855489310367,0.20578274,8.733803,4.5655055,3
19855491689430,0.2440679,8.719446,4.5798626,3
19855494068492,0.22492532,8.695518,4.618148,3
19855496447607,0.21535404,8.71466,4.618148,3
19855498826670,0.22013968,8.705089,4.6229334,3
19855501205732,0.18664017,8.71466,4.618148,3
19855503584795,0.16271193,8.695518,4.627719,3
19855505963805,0.13399807,8.724232,4.627719,3
19855508342920,0.11964113,8.71466,4.6372905,3
19855510721982,0.09092726,8.700303,4.651647,3
19855513101045,0.07178468,8.690732,4.651647,3
19855515480107,0.062213387,8.690732,4.642076,3
19855517859170,0.047856454,8.695518,4.6612186,3
19855520238232,0.043070808,8.709874,4.6468616,3
19855522617295,0.047856454,8.700303,4.6564326,3
19855524996357,0.019142581,8.705089,4.6325045,3
19855527375420,0.033499517,8.700303,4.6468616,3
19855529754482,0.05742774,8.695518,4.613362,3
19855532133440,0.09092726,8.719446,4.618148,3
19855534512607,0.06699903,8.719446,4.6085763,3
19855536891722,0.05742774,8.71466,4.6085763,3
19855539270784,0.062213387,8.709874,4.584648,3
19855541649847,0.08135597,8.724232,4.5798626,3
19855544028909,0.07178468,8.729017,4.5894337,3
19855546407972,0.07178468,8.748159,4.584648,3
19855548787034,0.05742774,8.743374,4.584648,3
19855551166097,0.0526421,8.743374,4.5894337,3
19855553545159,0.047856454,8.743374,4.570291,3
19855555924222,0.047856454,8.772088,4.56072,3
19855558303284,0.038285162,8.776874,4.551149,3
19855560682347,0.05742774,8.762517,4.5320063,3
19855563061409,0.0526421,8.762517,4.536792,3
19855565440472,0.0526421,8.776874,4.5272202,3
19855567819534,0.08135597,8.772088,4.5128636,3
19855570198597,0.076570325,8.772088,4.503292,3
19855572577659,0.1052842,8.796016,4.493721,3
19855574956722,0.11485548,8.776874,4.503292,3
19855577335836,0.1052842,8.786445,4.479364,3
19855579714899,0.11485548,8.776874,4.4745784,3
