t_ns,ax,ay,az,accuracy
20535846709850,-0.5838487,8.949157,4.106084,3
20535849088860,-0.49292147,8.939586,4.115655,3
20535851467870,-0.41635114,8.915657,4.115655,3
20535853846933,-0.38285163,8.915657,4.1347976,3
20535856225943,-0.37328035,8.925228,4.115655,3
20535858604954,-0.39720857,8.925228,4.082155,3
20535860984016,-0.4019942,8.930014,4.0534415,3
20535863363027,-0.4354937,8.968299,4.0295134,3
20535865742089,-0.49292147,8.973084,4.048656,3
20535868121100,-0.5694918,8.963513,4.0773697,3
20535870500110,-0.6652047,8.973084,4.0965123,3
20535872879172,-0.74177504,8.9826565,4.091727,3
20535875258183,-0.80877405,9.001799,4.0677986,3
20535877637193,-0.89491564,9.001799,4.082155,3
20535880016256,-0.9523434,9.016156,4.0965123,3
20535882395266,-1.0097711,9.030513,4.130012,3
20535884774329,-1.0241281,9.030513,4.139583,3
20535887153339,-1.0193424,9.020942,4.1443686,3
20535889532350,-0.9810573,9.016156,4.125226,3
20535891911412,-0.9379865,9.016156,4.125226,3
20535894290422,-0.89013004,8.987442,4.1204405,3
20535896669485,-0.80877405,8.968299,4.125226,3
20535899048495,-0.7082755,8.949157,4.115655,3
20535901427506,-0.6364908,8.949157,4.082155,3
20535903806568,-0.5838487,8.944371,4.091727,3
20535906185579,-0.5024927,8.925228,4.0869412,3
20535908564641,-0.44506502,8.915657,4.091727,3
20535910943652,-0.41635114,8.949157,4.0773697,3
20535913322662,-0.41635114,8.939586,4.091727,3
20535915701725,-0.42592242,8.953942,4.0869412,3
20535918080735,-0.44506502,8.930014,4.1204405,3
20535920459797,-0.4881358,8.920443,4.125226,3
20535922838808,-0.52163535,8.930014,4.1587257,3
20535925217818,-0.5694918,8.9348,4.168297,3
20535927596881,-0.6221339,8.939586,4.168297,3
20535929975891,-0.6843473,8.953942,4.173083,3
20535932354902,-0.7322037,8.949157,4.1587257,3
20535934733964,-0.7848458,8.953942,4.139583,3
20535937112975,-0.81834537,8.944371,4.115655,3
20535939492037,-0.81834537,8.949157,4.1204405,3
20535941871047,-0.83748794,8.958728,4.106084,3
20535944250058,-0.8039884,8.9826565,4.0965123,3
20535946629120,-0.7609176,8.9826565,4.0869412,3
20535949008131,-0.7465607,8.9826565,4.072584,3
20535951387141,-0.6891329,8.992228,4.072584,3
20535953766204,-0.6364908,8.968299,4.0773697,3
20535956145214,-0.5838487,8.9826565,4.0869412,3
20535958524277,-0.526421,8.968299,4.082155,3
20535960903287,-0.4881358,8.949157,4.082155,3
20535963282297,-0.4642076,8.944371,4.0965123,3
20535965661360,-0.4354937,8.944371,4.0869412,3
20535968040370,-0.43070808,8.944371,4.0869412,3
20535970419433,-0.4546363,8.949157,4.082155,3
20535972798443,-0.49292147,8.915657,4.0869412,3
20535975177454,-0.5312066,8.9108715,4.091727,3
20535977556516,-0.5694918,8.920443,4.0965123,3
20535979935527,-0.61734825,8.9013,4.0869412,3
20535982314589,-0.70348984,8.896515,4.0965123,3
20535984693600,-0.7704889,8.906086,4.0869412,3
20535987072610,-0.8327023,8.891729,4.0965123,3
20535989451672,-0.8757731,8.891729,4.130012,3
20535991830683,-0.9092726,8.886943,4.125226,3
20535994209745,-0.93320084,8.906086,4.1204405,3
20535996588756,-0.9762716,8.906086,4.106084,3
20535998967714,-1.0049855,8.925228,4.101298,3
20536001346829,-0.9954142,8.930014,4.1204405,3
20536003725839,-0.9810573,8.9108715,4.125226,3
20536006104902,-0.9523434,8.906086,4.130012,3
20536008483912,-0.9284152,8.9013,4.1204405,3
20536010862922,-0.8709874,8.925228,4.1347976,3
20536013241985,-0.8470592,8.925228,4.139583,3
20536015620995,-0.81834537,8.944371,4.125226,3
20536018000006,-0.76570326,8.953942,4.1204405,3
20536020379068,-0.7465607,8.953942,4.130012,3
20536022758079,-0.7178468,8.958728,4.0965123,3
20536025137141,-0.6939186,8.953942,4.082155,3
20536027516152,-0.6939186,8.953942,4.082155,3
20536029895162,-0.6891329,8.9826565,4.082155,3
20536032274225,-0.70348984,8.9826565,4.0965123,3
20536034653235,-0.72741807,8.9826565,4.091727,3
20536037032297,-0.7513463,8.992228,4.072584,3
20536039411308,-0.7896315,8.992228,4.058227,3
20536041790318,-0.8279166,8.992228,4.048656,3
20536044169381,-0.8566305,8.973084,4.0534415,3
20536046548391,-0.8997013,8.987442,4.063013,3
20536048927454,-0.90448695,8.997013,4.0869412,3
20536051306464,-0.9092726,8.977871,4.101298,3
20536053685475,-0.91405827,8.977871,4.115655,3
20536056064537,-0.91884387,8.953942,4.125226,3
20536058443547,-0.89491564,8.944371,4.130012,3
20536060822558,-0.8662018,8.949157,4.1204405,3
20536063201620,-0.8709874,8.930014,4.106084,3
20536065580631,-0.8135597,8.9108715,4.101298,3
20536067959693,-0.79920274,8.886943,4.1204405,3
20536070338704,-0.75613195,8.839087,4.091727,3
20536072717714,-0.72741807,8.829515,4.072584,3
20536075096777,-0.6987042,8.834301,4.0677986,3
20536077475787,-0.6987042,8.863015,4.0677986,3
20536079854850,-0.70348984,8.867801,4.058227,3
20536082233860,-0.6987042,8.867801,4.082155,3
20536084612870,-0.70348984,8.85823,4.1108694,3
20536086991933,-0.7082755,8.839087,4.115655,3
20536089370943,-0.7322037,8.85823,4.1204405,3
20536091750006,-0.7465607,8.85823,4.101298,3
20536094129016,-0.76570326,8.843872,4.1204405,3
20536096508027,-0.79441714,8.863015,4.1204405,3
20536098887089,-0.8327023,8.882157,4.139583,3
20536101266100,-0.86141616,8.896515,4.1347976,3
20536103645162,-0.8757731,8.896515,4.1347976,3
20536106024172,-0.8805587,8.953942,4.115655,3
20536108403183,-0.8997013,8.973084,4.106084,3
20536110782245,-0.8997013,8.977871,4.091727,3
20536113161256,-0.89491564,8.977871,4.0869412,3
20536115540266,-0.89491564,8.987442,4.101298,3
20536117919329,-0.8757731,8.9826565,4.1108694,3
20536120298339,-0.8662018,8.997013,4.082155,3
20536122677402,-0.83748794,8.997013,4.0869412,3
20536125056412,-0.8279166,9.001799,4.072584,3
20536127435422,-0.8470592,8.992228,4.058227,3
20536129814485,-0.82313097,9.001799,4.058227,3
20536132193495,-0.82313097,9.01137,4.0773697,3
20536134572558,-0.80877405,8.997013,4.106084,3
20536136951568,-0.8566305,8.997013,4.115655,3
20536139330579,-0.86141616,8.973084,4.115655,3
20536141709641,-0.8709874,8.987442,4.1108694,3
20536144088652,-0.91405827,8.963513,4.091727,3
20536146467714,-0.9523434,8.963513,4.072584,3
20536148846725,-0.9906286,8.9348,4.0534415,3
20536151225735,-1.0049855,8.906086,4.072584,3
20536153604797,-1.0145568,8.920443,4.072584,3
20536155983808,-1.0480564,8.930014,4.048656,3
20536158362870,-1.1102697,8.9348,4.034299,3
20536160741881,-1.1150553,8.953942,4.0295134,3
20536163120891,-1.1150553,8.963513,4.019942,3
20536165499954,-1.1485549,8.963513,4.024728,3
20536167878964,-1.1724831,8.9826565,4.0438704,3
20536170258027,-1.1772687,9.006584,4.0534415,3
20536172637037,-1.1820544,8.997013,4.0295134,3
20536175016047,-1.1724831,8.958728,4.019942,3
20536177395110,-1.1533405,8.963513,4.0103707,3
20536179774120,-1.1389836,8.953942,4.0151563,3
20536182153131,-1.1246266,8.968299,4.0295134,3
20536184532193,-1.0911272,8.968299,4.024728,3
20536186911204,-1.052842,8.9826565,4.005585,3
20536189290266,-1.0097711,8.987442,3.9864426,3
20536191669277,-1.0001999,8.973084,3.9960139,3
20536194048287,-0.98584294,8.992228,4.005585,3
20536196427350,-0.9379865,8.997013,4.034299,3
20536198806360,-0.91405827,8.992228,4.072584,3
20536201185422,-0.89491564,8.939586,4.1204405,3
20536203564433,-0.86141616,8.9108715,4.15394,3
20536205943443,-0.8470592,8.906086,4.1635113,3
20536208322506,-0.80877405,8.9108715,4.1778684,3
20536210701516,-0.79920274,8.896515,4.1635113,3
20536213080579,-0.79441714,8.891729,4.15394,3
20536215459589,-0.7704889,8.882157,4.15394,3
20536217838600,-0.7513463,8.882157,4.168297,3
20536220217662,-0.7609176,8.886943,4.2017965,3
20536222596672,-0.74177504,8.896515,4.220939,3
20536224975735,-0.7369894,8.9108715,4.220939,3
20536227354745,-0.72263247,8.9108715,4.2017965,3
20536229733756,-0.6843473,8.930014,4.1874394,3
20536232112818,-0.67477596,8.920443,4.168297,3
20536234491829,-0.65084773,8.925228,4.1778684,3
20536236870839,-0.6412765,8.920443,4.173083,3
20536239249902,-0.61734825,8.925228,4.1635113,3
20536241628912,-0.6125626,8.920443,4.106084,3
20536244007975,-0.59342,8.939586,4.0534415,3
20536246386985,-0.5694918,8.949157,4.034299,3
20536248765995,-0.5886344,8.9348,4.0438704,3
20536251145058,-0.5886344,8.939586,4.048656,3
20536253524068,-0.59342,8.939586,4.048656,3
20536255903131,-0.61734825,8.906086,4.024728,3
20536258282141,-0.6412765,8.920443,4.005585,3
20536260661204,-0.66999036,8.906086,4.0103707,3
20536263040214,-0.6939186,8.915657,3.9673,3
20536265419225,-0.72263247,8.920443,3.9625144,3
20536267798287,-0.75613195,8.939586,3.991228,3
20536270177297,-0.7848458,8.944371,4.005585,3
20536272556308,-0.82313097,8.9348,4.0295134,3
20536274935370,-0.89013004,8.944371,4.034299,3
20536277314381,-0.9092726,8.958728,4.0438704,3
20536279693443,-0.9523434,8.953942,4.0390844,3
20536282072454,-0.9523434,8.977871,4.048656,3
20536284451464,-0.9954142,8.987442,4.082155,3
20536286830527,-1.0097711,9.01137,4.091727,3
20536289209537,-1.0289137,9.016156,4.101298,3
20536291588600,-1.052842,9.030513,4.139583,3
20536293967610,-1.0624132,9.040084,4.15394,3
20536296346620,-1.0719845,9.040084,4.182654,3
20536298725683,-1.0815558,9.049655,4.197011,3
20536301104693,-1.0719845,9.059227,4.211368,3
20536303483652,-1.0815558,9.0544405,4.211368,3
20536305862766,-1.119841,9.040084,4.220939,3
20536308241777,-1.1246266,9.040084,4.2352962,3
20536310620839,-1.1246266,9.025727,4.240082,3
20536312999850,-1.134198,9.020942,4.2257247,3
20536315378912,-1.1102697,9.020942,4.211368,3
20536317757922,-1.1102697,9.006584,4.1874394,3
20536320136933,-1.1006985,8.977871,4.1778684,3
20536322515995,-1.0671989,8.992228,4.182654,3
20536324895006,-1.0289137,8.973084,4.2017965,3
20536327274068,-1.0193424,8.987442,4.206582,3
20536329653079,-0.98584294,8.963513,4.211368,3
20536332032089,-0.94755775,8.953942,4.173083,3
20536334411152,-0.9092726,8.939586,4.1347976,3
20536336790162,-0.8757731,8.925228,4.115655,3
20536339169172,-0.85184485,8.920443,4.101298,3
20536341548235,-0.8470592,8.925228,4.106084,3
20536343927245,-0.8279166,8.925228,4.091727,3
20536346306308,-0.8039884,8.939586,4.0534415,3
20536348685318,-0.7848458,8.944371,4.034299,3
20536351064381,-0.7896315,8.9108715,4.005585,3
20536353443391,-0.79441714,8.9013,3.991228,3
20536355822402,-0.79441714,8.877372,3.9673,3
20536358201464,-0.81834537,8.906086,3.9720855,3
20536360580475,-0.8470592,8.886943,3.9816568,3
20536362959485,-0.89491564,8.882157,3.9960139,3
20536365338547,-0.8997013,8.882157,4.005585,3
20536367717558,-0.9379865,8.853444,4.0007997,3
20536370096620,-0.94277215,8.85823,3.9720855,3
20536372475631,-0.9379865,8.872586,4.0007997,3
20536374854641,-0.9523434,8.853444,4.034299,3
20536377233704,-0.9619147,8.882157,4.0438704,3
20536379612714,-0.9667004,8.882157,4.0773697,3
20536381991777,-0.94755775,8.848659,4.072584,3
20536384370787,-0.9284152,8.872586,4.0773697,3
20536386749797,-0.8805587,8.882157,4.082155,3
20536389128860,-0.8422736,8.896515,4.1347976,3
20536391507870,-0.8039884,8.882157,4.1635113,3
20536393886933,-0.7752745,8.863015,4.1922255,3
20536396265943,-0.72741807,8.877372,4.197011,3
20536398644954,-0.67477596,8.872586,4.2017965,3
20536401024016,-0.6125626,8.882157,4.2017965,3
20536403403027,-0.5599205,8.877372,4.220939,3
20536405782089,-0.526421,8.872586,4.2448673,3
20536408161100,-0.4977071,8.9013,4.254439,3
20536410540110,-0.5072784,8.930014,4.2687955,3
20536412919172,-0.5312066,8.9013,4.2592244,3
20536415298183,-0.55513483,8.915657,4.278367,3
20536417677245,-0.55513483,8.915657,4.273581,3
20536420056256,-0.60777694,8.915657,4.273581,3
20536422435266,-0.6556334,8.9108715,4.273581,3
20536424814329,-0.6987042,8.939586,4.273581,3
20536427193339,-0.7465607,8.930014,4.2592244,3
20536429572402,-0.8135597,8.930014,4.26401,3
20536431951412,-0.8853444,8.930014,4.249653,3
20536434330422,-0.9619147,8.944371,4.206582,3
20536436709485,-1.038485,8.953942,4.1778684,3
20536439088495,-1.0863415,8.953942,4.15394,3
20536441467558,-1.1629118,8.9826565,4.139583,3
20536443846568,-1.2203395,8.987442,4.125226,3
20536446225579,-1.253839,8.973084,4.0965123,3
20536448604641,-1.2969099,8.987442,4.0965123,3
20536450983652,-1.3208381,8.9826565,4.0773697,3
20536453362662,-1.3064811,8.973084,4.048656,3
20536455741725,-1.2873386,8.997013,4.005585,3
20536458120735,-1.2394822,9.025727,3.9720855,3
20536460499797,-1.1820544,9.030513,3.9673,3
20536462878808,-1.1150553,9.035298,3.9433718,3
20536465257870,-1.0432707,9.020942,3.952943,3
20536467636881,-0.94277215,8.992228,3.9720855,3
20536470015891,-0.85184485,8.977871,3.9960139,3
20536472394954,-0.7752745,8.977871,4.0007997,3
20536474773964,-0.67477596,8.987442,4.0007997,3
20536477153027,-0.6125626,8.977871,3.991228,3
20536479532037,-0.5455636,8.939586,4.0007997,3
20536481911047,-0.46899325,8.963513,4.034299,3
20536484290110,-0.43070808,8.939586,4.072584,3
20536486669120,-0.43070808,8.944371,4.063013,3
20536489048183,-0.43070808,8.925228,4.101298,3
20536491427193,-0.46899325,8.9348,4.0965123,3
20536493806204,-0.49292147,8.939586,4.0965123,3
20536496185266,-0.57427746,8.930014,4.101298,3
20536498564277,-0.63170516,8.925228,4.1108694,3
20536500943339,-0.6987042,8.9108715,4.1347976,3
20536503322350,-0.7752745,8.915657,4.1635113,3
20536505701360,-0.83748794,8.915657,4.173083,3
20536508080422,-0.8709874,8.920443,4.173083,3
20536510459433,-0.8853444,8.915657,4.1778684,3
20536512838495,-0.90448695,8.930014,4.15394,3
20536515217506,-0.9092726,8.930014,4.130012,3
20536517596516,-0.8853444,8.939586,4.115655,3
20536519975579,-0.8327023,8.949157,4.1108694,3
20536522354589,-0.8135597,8.939586,4.1108694,3
20536524733652,-0.7896315,8.920443,4.139583,3
20536527112662,-0.7082755,8.925228,4.1204405,3
20536529491672,-0.6652047,8.930014,4.106084,3
20536531870735,-0.6556334,8.949157,4.082155,3
20536534249745,-0.6412765,8.930014,4.0390844,3
20536536628756,-0.6556334,8.915657,4.063013,3
20536539007818,-0.6652047,8.9108715,4.0773697,3
20536541386829,-0.6987042,8.877372,4.072584,3
20536543765891,-0.74177504,8.882157,4.0534415,3
20536546144902,-0.80877405,8.886943,4.024728,3
20536548523912,-0.85184485,8.915657,3.9673,3
20536550902975,-0.91884387,8.944371,3.952943,3
20536553281985,-0.9810573,8.968299,3.9481573,3
20536555661047,-1.0193424,9.016156,3.9577286,3
20536558040058,-1.0576276,9.020942,3.9768713,3
20536560419120,-1.0863415,9.025727,3.9960139,3
20536562798131,-1.1102697,9.016156,3.9864426,3
20536565177141,-1.1006985,9.044869,3.9864426,3
20536567556204,-1.0767702,9.035298,3.9960139,3
20536569935214,-1.0336994,9.016156,4.0677986,3
20536572314277,-0.9619147,9.016156,4.1204405,3
20536574693287,-0.8997013,8.992228,4.1347976,3
20536577072297,-0.8327023,8.973084,4.15394,3
20536579451360,-0.7752745,8.944371,4.1491547,3
20536581830370,-0.71306115,8.930014,4.1491547,3
20536584209433,-0.6412765,8.906086,4.1635113,3
20536586588443,-0.5982057,8.886943,4.15394,3
20536588967454,-0.5886344,8.906086,4.1635113,3
20536591346516,-0.6029913,8.9108715,4.1491547,3
20536593725527,-0.60777694,8.939586,4.168297,3
20536596104537,-0.64606214,8.963513,4.15394,3
20536598483600,-0.7465607,8.963513,4.1587257,3
20536600862610,-0.80877405,8.953942,4.173083,3
20536603241672,-0.8853444,8.949157,4.1635113,3
20536605620683,-0.95712906,8.963513,4.173083,3
20536607999745,-1.0241281,8.949157,4.1874394,3
20536610378756,-1.1150553,8.958728,4.2017965,3
20536612757766,-1.1724831,8.963513,4.206582,3
20536615136829,-1.2059826,8.973084,4.2257247,3
20536617515839,-1.2203395,8.992228,4.1874394,3
20536619894902,-1.2346965,8.992228,4.173083,3
20536622273912,-1.2251252,8.973084,4.1491547,3
20536624652922,-1.1772687,8.997013,4.1347976,3
20536627031985,-1.1150553,8.987442,4.106084,3
20536629410995,-1.0576276,8.973084,4.0773697,3
20536631790058,-0.98584294,8.944371,4.0534415,3
20536634169068,-0.9092726,8.939586,4.024728,3
20536636548079,-0.83748794,8.915657,3.9960139,3
20536638927141,-0.79920274,8.906086,3.9864426,3
20536641306100,-0.7513463,8.906086,3.9673,3
20536643685214,-0.6987042,8.882157,3.9720855,3
20536646064225,-0.6556334,8.877372,3.9577286,3
20536648443235,-0.64606214,8.872586,3.938586,3
20536650822297,-0.65084773,8.9013,3.9194436,3
20536653201308,-0.65084773,8.915657,3.9242291,3
20536655580370,-0.6412765,8.949157,3.9433718,3
20536657959381,-0.64606214,8.953942,3.9864426,3
20536660338391,-0.6556334,8.987442,4.0151563,3
20536662717454,-0.67477596,9.016156,4.024728,3
20536665096464,-0.66999036,9.001799,4.0390844,3
20536667475527,-0.66041905,9.020942,4.058227,3
20536669854537,-0.67477596,9.020942,4.0965123,3
20536672233547,-0.6987042,9.030513,4.1204405,3
20536674612610,-0.6891329,9.044869,4.130012,3
20536676991620,-0.71306115,9.020942,4.15394,3
20536679370683,-0.7609176,8.992228,4.15394,3
20536681749693,-0.7704889,8.968299,4.1587257,3
20536684128704,-0.79441714,8.958728,4.168297,3
20536686507766,-0.80877405,8.9348,4.168297,3
20536688886777,-0.8279166,8.925228,4.1922255,3
20536691265839,-0.8422736,8.891729,4.197011,3
20536693644850,-0.86141616,8.872586,4.182654,3
20536696023912,-0.8757731,8.867801,4.197011,3
20536698402922,-0.85184485,8.867801,4.1922255,3
20536700781933,-0.85184485,8.886943,4.139583,3
20536703160995,-0.8327023,8.882157,4.1108694,3
20536705540006,-0.81834537,8.882157,4.072584,3
20536707919016,-0.79441714,8.920443,4.048656,3
20536710298079,-0.76570326,8.963513,4.0295134,3
20536712677089,-0.71306115,8.992228,4.048656,3
20536715056100,-0.6939186,9.016156,4.0965123,3
20536717435162,-0.66999036,9.01137,4.125226,3
20536719814172,-0.6364908,9.01137,4.1635113,3
20536722193235,-0.6125626,8.987442,4.1922255,3
20536724572245,-0.6221339,8.9826565,4.220939,3
20536726951308,-0.6269195,8.953942,4.211368,3
20536729330318,-0.6795616,8.920443,4.23051,3
20536731709381,-0.7178468,8.915657,4.2161536,3
20536734088391,-0.7465607,8.867801,4.23051,3
20536736467402,-0.79920274,8.843872,4.197011,3
20536738846464,-0.83748794,8.843872,4.2017965,3
20536741225475,-0.8662018,8.853444,4.182654,3
20536743604485,-0.89491564,8.834301,4.182654,3
20536745983547,-0.9236295,8.839087,4.1587257,3
20536748362558,-0.94277215,8.867801,4.1347976,3
20536750741620,-0.9284152,8.872586,4.125226,3
20536753120579,-0.89491564,8.882157,4.115655,3
20536755499693,-0.81834537,8.882157,4.0965123,3
20536757878704,-0.7609176,8.891729,4.130012,3
20536760257714,-0.6891329,8.906086,4.106084,3
20536762636777,-0.6364908,8.915657,4.0773697,3
20536765015787,-0.5694918,8.930014,4.0438704,3
20536767394850,-0.51206404,8.944371,4.0151563,3
20536769773860,-0.4354937,8.958728,4.0007997,3
20536772152870,-0.4019942,8.977871,3.9864426,3
20536774531933,-0.36370903,8.9826565,3.9960139,3
20536776910943,-0.31585258,8.9826565,3.9768713,3
20536779290006,-0.29192436,9.006584,3.9290147,3
20536781669016,-0.30149564,8.997013,3.9290147,3
20536784048027,-0.32063824,8.9826565,3.9433718,3
20536786427089,-0.3493521,8.810373,3.8763726,3
20536788806100,-0.3493521,9.116654,4.0965123,3
20536791185162,-0.2632105,9.183653,3.3116665,3
20536793564172,-0.5407779,9.164511,2.8522446,3
20536795943183,-0.28235307,8.949157,3.0436704,3
20536798322245,-0.23928227,9.102298,3.306881,3
20536800701256,-0.37806597,9.3511505,3.1441689,3
20536803080318,-0.35413775,9.078369,3.0293136,3
20536805459329,-0.17706887,8.79123,3.7663028,3
20536807838339,-0.22971097,8.815159,4.9770713,3
20536810217402,-0.3684947,8.815159,5.9150577,3
20536812596412,-0.14356937,8.56152,5.503492,3
20536814975475,-0.17706887,8.9108715,4.1204405,3
20536817354485,-0.33020952,9.274581,2.9575288,3
20536819733495,-0.32063824,9.15494,3.0388846,3
20536822112558,-0.3589234,8.953942,4.0869412,3
20536824491568,-0.57906306,8.925228,5.2642097,3
20536826870631,-0.55513483,8.853444,5.7858453,3
20536829249641,-0.5599205,8.805588,5.245067,3
20536831628652,-0.7369894,9.159725,4.197011,3
20536834007714,-0.8039884,9.030513,3.062813,3
20536836386725,-0.8422736,9.016156,3.101098,3
20536838765787,-0.9236295,8.920443,3.8333018,3
20536841144797,-1.0145568,8.882157,4.9196434,3
20536843523860,-0.8805587,8.628518,5.493921,3
20536845902870,-0.89013004,8.618947,5.517849,3
20536848281881,-0.75613195,8.781659,4.847859,3
20536850660943,-0.6269195,8.939586,3.9720855,3
20536853039954,-0.38763726,9.068798,3.359523,3
20536855419016,-0.2727818,9.221938,3.3882368,3
20536857798027,-0.086141616,9.217153,3.9864426,3
20536860177037,0.11006984,9.078369,4.5655055,3
20536862556047,0.20578274,9.025727,4.6803613,3
20536864935110,0.23928227,9.102298,4.3740797,3
20536867314172,0.29671,9.035298,3.9050865,3
20536869693183,0.3062813,8.930014,3.603591,3
20536872072193,0.22013968,8.973084,3.737589,3
20536874451256,0.17228323,8.944371,4.0677986,3
20536876830266,0.09571291,8.9108715,4.421936,3
20536879209329,0.009571291,8.944371,4.517649,3
20536881588339,-0.12921242,9.064013,4.316652,3
20536883967350,-0.18185452,9.083155,3.8955152,3
20536886346412,-0.26799613,9.131011,3.546163,3
20536888725422,-0.32063824,9.126225,3.493521,3
20536891104433,-0.3397808,9.073584,3.7136607,3
20536893483495,-0.36370903,9.001799,4.072584,3
20536895862506,-0.3397808,8.896515,4.273581,3
20536898241568,-0.25842485,8.896515,4.254439,3
20536900620579,-0.15314065,8.867801,3.9864426,3
20536902999641,-0.06699903,8.891729,3.7471602,3
20536905378652,0.08135597,8.891729,3.603591,3
20536907757662,0.16749759,8.867801,3.7136607,3
20536910136725,0.25842485,8.815159,3.8811584,3
20536912515735,0.3062813,8.786445,4.101298,3
20536914894797,0.35413775,8.752945,4.2017965,3
20536917273808,0.29671,8.724232,4.1922255,3
20536919652818,0.22971097,8.724232,4.15394,3
20536922031881,0.14356937,8.681161,4.1108694,3
20536924410891,0.02871387,8.657232,4.197011,3
20536926789954,-0.12921242,8.666803,4.421936,3
20536929168964,-0.2727818,8.662018,4.6325045,3
20536931548027,-0.4019942,8.690732,4.651647,3
20536933927037,-0.53599226,8.815159,4.5320063,3
20536936306047,-0.6412765,8.882157,4.302295,3
20536938685110,-0.7513463,8.9013,4.1635113,3
20536941064120,-0.8135597,8.949157,4.249653,3
20536943443183,-0.8422736,8.973084,4.4458647,3
20536945822193,-0.86141616,8.939586,4.6037908,3
20536948201256,-0.8566305,8.973084,4.642076,3
20536950580266,-0.7848458,9.01137,4.546363,3
20536952959277,-0.70348984,9.006584,4.354937,3
20536955338339,-0.5886344,9.001799,4.220939,3
20536957717350,-0.4833502,9.025727,4.197011,3
20536960096360,-0.38763726,9.025727,4.302295,3
20536962475422,-0.30149564,9.016156,4.3836513,3
20536964854433,-0.23928227,9.01137,4.321438,3
20536967233495,-0.2105684,9.0544405,4.173083,3
20536969612506,-0.24885355,9.044869,4.0103707,3
20536971991568,-0.31106696,9.016156,3.952943,3
20536974370579,-0.4019942,9.030513,4.019942,3
20536976749589,-0.5312066,8.992228,4.168297,3
20536979128652,-0.6843473,8.949157,4.287938,3
20536981507662,-0.82313097,8.973084,4.302295,3
20536983886725,-0.91884387,8.992228,4.173083,3
20536986265735,-1.0001999,9.006584,3.9481573,3
20536988644745,-1.0959128,9.01137,3.8141594,3
20536991023808,-1.1389836,9.006584,3.8620157,3
20536993402818,-1.2155539,8.944371,4.034299,3
20536995781881,-1.2777673,8.949157,4.1778684,3
20536998160891,-1.3160524,8.939586,4.139583,3
20537000539902,-1.3495519,8.958728,4.0151563,3
20537002918964,-1.3399807,8.953942,3.885944,3
20537005297975,-1.3399807,8.949157,3.8380876,3
20537007677037,-1.3543376,8.944371,3.8668015,3
20537010056047,-1.3256238,8.925228,3.9768713,3
20537012435110,-1.2969099,8.9108715,4.0534415,3
20537014814120,-1.2586247,8.925228,4.0773697,3
20537017193131,-1.2011969,8.9826565,3.9960139,3
20537019572193,-1.1629118,8.977871,3.8763726,3
20537021951204,-1.1294123,8.973084,3.7806597,3
20537024330214,-1.1724831,8.977871,3.7567315,3
20537026709277,-1.2011969,8.953942,3.804588,3
20537029088287,-1.2251252,8.9348,3.9290147,3
20537031467350,-1.2777673,8.891729,4.005585,3
20537033846360,-1.3495519,8.848659,4.0007997,3
20537036225370,-1.3782659,8.848659,3.952943,3
20537038604433,-1.4452649,8.906086,3.9242291,3
20537040983443,-1.4500505,8.9108715,3.938586,3
20537043362506,-1.4739788,8.9013,3.9768713,3
20537045741516,-1.5074782,8.9108715,4.005585,3
20537048120579,-1.4835501,8.930014,4.0295134,3
20537050499589,-1.4931214,8.953942,4.0390844,3
20537052878600,-1.4644074,8.953942,4.048656,3
20537055257662,-1.4644074,9.001799,4.106084,3
20537057636672,-1.4404793,8.973084,4.1491547,3
20537060015735,-1.4500505,8.958728,4.1635113,3
20537062394745,-1.430908,8.944371,4.220939,3
20537064773756,-1.4213367,8.944371,4.2975097,3
20537067152766,-1.3830515,8.9348,4.321438,3
20537069531829,-1.2921243,8.930014,4.3118663,3
20537071910891,-1.2394822,8.968299,4.2687955,3
20537074289902,-1.1724831,8.968299,4.240082,3
20537076668964,-1.0863415,8.949157,4.240082,3
20537079047975,-1.0336994,8.977871,4.254439,3
20537081426985,-0.971486,8.977871,4.3118663,3
20537083806047,-0.94755775,8.953942,4.3405805,3
20537086185058,-0.8997013,8.968299,4.2975097,3
20537088564120,-0.9236295,8.987442,4.254439,3
20537090943131,-0.93320084,8.863015,4.1874394,3
20537093322141,-1.0193424,8.834301,4.3118663,3
20537095701204,-1.0767702,9.006584,4.666004,3
20537098080214,-1.2346965,8.958728,4.761717,3
20537100459277,-1.3543376,8.930014,4.599005,3
20537102838287,-1.3782659,9.059227,4.2352962,3
20537105217297,-1.4979069,9.145369,3.9673,3
20537107596360,-1.5936198,9.078369,3.9720855,3
20537109975370,-1.6510476,9.0544405,4.173083,3
20537112354433,-1.6941184,9.131011,4.388437,3
20537114733443,-1.7802601,9.078369,4.3932223,3
20537117112454,-1.7706888,9.016156,4.173083,3
20537119491516,-1.7324036,9.064013,3.842873,3
20537121870527,-1.698904,8.977871,3.5557344,3
20537124249589,-1.6701902,8.843872,3.5365918,3
20537126628600,-1.6031911,8.796016,3.8333018,3
20537129007662,-1.5409778,8.805588,4.1635113,3
20537131386672,-1.4356936,8.676374,4.1587257,3
20537133765631,-1.3112668,8.700303,3.9720855,3
20537136144745,-1.268196,8.662018,3.5796626,3
20537138523756,-1.253839,8.647661,3.4983068,3
20537140902818,-1.2011969,8.585447,3.8333018,3
20537143281829,-1.2059826,8.590233,4.345366,3
20537145660839,-1.2251252,8.537591,4.570291,3
20537148039902,-1.2346965,8.595019,4.4985065,3
20537150418912,-1.253839,8.690732,4.26401,3
20537152797975,-1.2873386,8.805588,4.0534415,3
20537155176985,-1.3351951,8.848659,4.0007997,3
20537157555995,-1.3878372,8.882157,4.273581,3
20537159935058,-1.4452649,8.896515,4.613362,3
20537162314068,-1.4452649,8.877372,4.8765726,3
20537164693131,-1.4644074,8.839087,4.800002,3
20537167072141,-1.4596218,8.85823,4.56072,3
20537169451204,-1.416551,8.85823,4.354937,3
20537171830214,-1.3686945,8.781659,4.3262234,3
20537174209225,-1.2729816,8.709874,4.4315076,3
20537176588287,-1.2059826,8.652447,4.618148,3
20537178967297,-1.1006985,8.537591,4.723432,3
20537181346360,-0.971486,8.49452,4.6468616,3
20537183725370,-0.8422736,8.489735,4.436293,3
20537186104381,-0.71306115,8.508878,4.206582,3
20537188483443,-0.55513483,8.523234,4.0869412,3
20537190862454,-0.44027936,8.499306,4.1108694,3
20537193241516,-0.32063824,8.547162,4.26401,3
20537195620527,-0.20578274,8.547162,4.359723,3
20537197999537,-0.11485548,8.580662,4.359723,3
20537200378600,-0.0047856453,8.666803,4.302295,3
20537202757610,0.07178468,8.748159,4.2352962,3
20537205136672,0.09571291,8.800801,4.1874394,3
20537207515683,0.062213387,8.85823,4.2448673,3
20537209894745,0.0047856453,8.891729,4.3740797,3
20537212273756,-0.06699903,8.891729,4.4602213,3
20537214652766,-0.16271193,8.9348,4.508078,3
20537217031829,-0.29671,8.939586,4.4410787,3
20537219410839,-0.42592242,8.958728,4.3357944,3
20537221789902,-0.53599226,8.939586,4.254439,3
20537224168912,-0.6556334,8.9348,4.254439,3
20537226547922,-0.76570326,8.920443,4.2592244,3
20537228926985,-0.8853444,8.877372,4.2927237,3
20537231305995,-1.0049855,8.853444,4.3262234,3
20537233685058,-1.105484,8.886943,4.302295,3
20537236064068,-1.1916257,8.848659,4.220939,3
20537238443131,-1.2490535,8.896515,4.173083,3
20537240822141,-1.268196,8.896515,4.173083,3
20537243201152,-1.2634103,8.863015,4.23051,3
20537245580214,-1.2586247,8.863015,4.3740797,3
20537247959225,-1.282553,8.863015,4.4602213,3
20537250338287,-1.253839,8.877372,4.4841495,3
20537252717297,-1.2394822,8.839087,4.4315076,3
20537255096308,-1.2107682,8.882157,4.4171505,3
20537257475370,-1.1964114,8.867801,4.4075794,3
20537259854381,-1.2155539,8.843872,4.4602213,3
20537262233443,-1.2490535,8.815159,4.4841495,3
20537264612454,-1.3112668,8.834301,4.5224347,3
20537266991464,-1.3351951,8.839087,4.479364,3
20537269370527,-1.416551,8.867801,4.426722,3
20537271749537,-1.5218352,8.843872,4.3262234,3
20537274128600,-1.6319051,8.834301,4.2975097,3
20537276507610,-1.727618,8.915657,4.3788652,3
20537278886672,-1.8376877,8.886943,4.4554358,3
20537281265683,-1.9573289,8.9348,4.479364,3
20537283644693,-2.0195422,8.977871,4.436293,3
20537286023756,-2.0386848,8.953942,4.3357944,3
20537288402766,-2.0961127,8.848659,4.1874394,3
20537290781829,-2.091327,8.834301,4.2352962,3
20537293160839,-2.115255,8.7673025,4.354937,3
20537295539902,-2.143969,8.685946,4.503292,3
20537297918912,-2.1822543,8.633304,4.493721,3
20537300297922,-2.172683,8.647661,4.412365,3
20537302676985,-2.1487548,8.690732,4.302295,3
20537305055995,-2.091327,8.71466,4.1874394,3
20537307435058,-1.9812572,8.79123,4.091727,3
20537309814068,-1.861616,8.834301,4.0869412,3
20537312193079,-1.7228323,8.839087,4.058227,3
20537314572141,-1.579263,8.872586,4.0869412,3
20537316951152,-1.4596218,8.915657,4.063013,3
20537319330214,-1.3878372,8.992228,4.0390844,3
20537321709225,-1.3112668,8.953942,3.9194436,3
20537324088235,-1.3112668,9.020942,3.9338005,3
20537326467297,-1.3112668,9.001799,4.0103707,3
20537328846256,-1.3208381,8.987442,4.091727,3
20537331225370,-1.3543376,8.958728,4.101298,3
20537333604381,-1.3974084,8.992228,4.139583,3
20537335983443,-1.4500505,8.987442,4.106084,3
20537338362454,-1.4883357,8.9013,4.0677986,3
20537340741464,-1.5218352,8.906086,4.101298,3
20537343120527,-1.5409778,8.920443,4.139583,3
20537345499485,-1.5696917,8.9108715,4.1635113,3
20537347878600,-1.5888343,8.891729,4.0965123,3
20537350257610,-1.6031911,8.925228,4.0103707,3
20537352636620,-1.6127625,8.920443,3.9577286,3
20537355015683,-1.6079768,8.915657,3.938586,3
20537357394693,-1.5409778,8.949157,3.9098723,3
20537359773756,-1.4596218,8.992228,3.8668015,3
20537362152766,-1.3399807,9.001799,3.8285162,3
20537364531829,-1.2107682,9.001799,3.804588,3
20537366910839,-1.0911272,9.001799,3.7328033,3
20537369289850,-0.9667004,9.035298,3.7088752,3
20537371668912,-0.8805587,9.040084,3.6897326,3
20537374047922,-0.7896315,9.044869,3.7615173,3
20537376426985,-0.7609176,9.035298,3.818945,3
20537378805995,-0.72741807,9.040084,3.8907297,3
20537381185006,-0.7322037,9.030513,3.900301,3
20537383564068,-0.7609176,9.035298,3.9050865,3
20537385943079,-0.7848458,9.064013,3.9242291,3
20537388322141,-0.8422736,9.078369,3.9481573,3
20537390701152,-0.90448695,9.073584,3.9625144,3
20537393080214,-0.95712906,9.073584,3.9481573,3
20537395459225,-1.0097711,9.097511,3.8955152,3
20537397838235,-1.0480564,9.068798,3.8620157,3
20537400217297,-1.1006985,9.044869,3.8285162,3
20537402596308,-1.1294123,9.040084,3.871587,3
20537404975370,-1.1820544,8.992228,3.952943,3
20537407354381,-1.1916257,8.953942,4.019942,3
20537409733391,-1.1916257,8.915657,4.019942,3
20537412112454,-1.2299109,8.891729,3.938586,3
20537414491464,-1.2155539,8.872586,3.8476589,3
20537416870527,-1.1916257,8.839087,3.804588,3
20537419249537,-1.1485549,8.839087,3.9290147,3
20537421628600,-1.0719845,8.786445,4.082155,3
20537424007610,-0.9954142,8.7673025,4.2257247,3
20537426386620,-0.8709874,8.796016,4.287938,3
20537428765683,-0.7609176,8.733803,4.206582,3
20537431144693,-0.7465607,8.676374,3.9768713,3
20537433523756,-0.67477596,8.709874,3.8955152,3
20537435902766,-0.66999036,8.676374,3.9433718,3
20537438281777,-0.7178468,8.618947,4.15394,3
20537440660839,-0.7896315,8.6141615,4.3262234,3
20537443039850,-0.9092726,8.666803,4.369294,3
20537445418912,-1.0193424,8.71466,4.2161536,3
20537447797922,-1.134198,8.7577305,4.0103707,3
20537450176985,-1.1916257,8.896515,3.900301,3
20537452555995,-1.2729816,8.925228,3.938586,3
20537454935006,-1.3064811,8.920443,4.1347976,3
20537457314068,-1.3112668,8.968299,4.2927237,3
20537459693079,-1.3208381,9.025727,4.3501515,3
20537462072141,-1.3112668,9.016156,4.2352962,3
20537464451152,-1.2921243,9.035298,4.091727,3
20537466830162,-1.2442678,9.0544405,3.9864426,3
20537469209225,-1.2346965,9.040084,3.9960139,3
20537471588235,-1.2011969,9.020942,4.101298,3
20537473967297,-1.1629118,9.020942,4.278367,3
20537476346308,-1.0671989,8.987442,4.3501515,3
20537478725370,-0.9906286,8.9826565,4.26401,3
20537481104381,-0.8422736,9.001799,4.115655,3
20537483483391,-0.6987042,9.030513,3.991228,3
20537485862454,-0.59342,9.035298,3.9242291,3
20537488241464,-0.5024927,9.025727,3.9720855,3
20537490620527,-0.43070808,9.059227,4.034299,3
20537492999537,-0.3924229,9.030513,4.0965123,3
20537495378600,-0.3924229,9.044869,4.0438704,3
20537497757610,-0.41156548,9.08794,3.9146578,3
20537500136620,-0.46899325,9.116654,3.8093736,3
20537502515683,-0.5838487,9.097511,3.7998023,3
20537504894693,-0.67477596,9.107083,3.8668015,3
20537507273756,-0.79441714,9.107083,3.9625144,3
20537509652766,-0.89013004,9.097511,4.0295134,3
20537512031777,-0.9810573,9.064013,4.0151563,3
20537514410839,-1.038485,9.068798,3.9768713,3
20537516789850,-1.0863415,9.044869,3.9194436,3
20537519168912,-1.1246266,9.040084,3.8763726,3
20537521547922,-1.1150553,9.025727,3.8811584,3
20537523926985,-1.1294123,8.992228,3.9290147,3
20537526305995,-1.1294123,8.9826565,3.9481573,3
20537528685006,-1.0911272,8.944371,3.9338005,3
20537531064068,-1.0576276,8.944371,3.8620157,3
20537533443079,-1.0289137,8.9826565,3.7998023,3
20537535822141,-1.0001999,9.08794,3.8668015,3
20537538201152,-0.9667004,9.059227,3.8620157,3
20537540580214,-0.94755775,9.12144,3.8811584,3
20537542959225,-0.8709874,9.19801,3.871587,3
20537545338235,-0.8662018,9.2075815,3.8524444,3
20537547717297,-0.8422736,9.174082,3.8955152,3
20537550096308,-0.83748794,9.169296,3.938586,3
20537552475318,-0.8470592,9.150154,4.0390844,3
20537554854381,-0.9092726,9.059227,4.0773697,3
20537557233391,-0.9762716,9.044869,4.0869412,3
20537559612454,-1.0480564,9.025727,4.0677986,3
20537561991464,-1.1150553,9.006584,4.0007997,3
20537564370527,-1.1724831,8.997013,3.9768713,3
20537566749537,-1.2011969,9.001799,3.952943,3
20537569128547,-1.2011969,8.992228,3.9481573,3
20537571507610,-1.18684,8.963513,3.991228,3
20537573886620,-1.1581261,8.9826565,3.9960139,3
20537576265683,-1.1246266,9.016156,3.9768713,3
20537578644693,-1.0576276,9.01137,3.9338005,3
20537581023756,-1.0097711,9.020942,3.9290147,3
20537583402766,-0.9906286,9.049655,3.9625144,3
20537585781777,-0.9954142,9.030513,4.0151563,3
20537588160839,-0.94755775,9.001799,4.0773697,3
20537590539850,-0.94755775,8.987442,4.0965123,3
20537592918912,-0.93320084,8.949157,4.1491547,3
20537595297922,-0.9092726,8.891729,4.139583,3
20537597676933,-0.89491564,8.882157,4.1204405,3
20537600055995,-0.8709874,8.867801,4.106084,3
20537602435006,-0.80877405,8.839087,4.0965123,3
20537604814016,-0.7704889,8.810373,4.1108694,3
20537607193079,-0.7369894,8.796016,4.0965123,3
20537609572141,-0.7178468,8.786445,4.063013,3
20537611951152,-0.72263247,8.776874,4.034299,3
20537614330162,-0.70348984,8.79123,4.019942,3
20537616709225,-0.6939186,8.843872,3.991228,3
20537619088235,-0.72741807,8.85823,3.991228,3
20537621467297,-0.7800602,8.863015,4.0390844,3
20537623846308,-0.82313097,8.886943,4.0869412,3
20537626225318,-0.86141616,8.9348,4.1204405,3
20537628604381,-0.8662018,8.9348,4.139583,3
20537630983287,-0.8805587,8.939586,4.1347976,3
20537633362454,-0.9092726,8.953942,4.1587257,3
20537635741464,-0.9092726,8.949157,4.206582,3
20537638120527,-0.93320084,8.944371,4.23051,3
20537640499537,-0.91884387,8.930014,4.23051,3
20537642878600,-0.93320084,8.930014,4.2448673,3
20537645257610,-0.9762716,8.9348,4.2257247,3
20537647636620,-0.9906286,8.915657,4.1922255,3
20537650015683,-0.98584294,8.853444,4.1587257,3
20537652394693,-0.98584294,8.834301,4.1443686,3
20537654773756,-1.0001999,8.853444,4.139583,3
20537657152766,-1.0001999,8.863015,4.130012,3
20537659531777,-0.9954142,8.839087,4.0869412,3
20537661910787,-0.9810573,8.839087,4.0677986,3
20537664289850,-0.9667004,8.839087,4.063013,3
20537666668912,-0.9667004,8.819944,4.106084,3
20537669047922,-0.98584294,8.79123,4.182654,3
20537671426985,-0.9762716,8.79123,4.1922255,3
20537673805995,-0.9810573,8.776874,4.1587257,3
20537676185006,-0.9906286,8.762517,4.1491547,3
20537678564068,-0.9667004,8.772088,4.130012,3
20537680943079,-1.0097711,8.800801,4.125226,3
20537683322141,-1.0097711,8.82473,4.130012,3
20537685701152,-1.0097711,8.800801,4.1347976,3
20537688080162,-0.9810573,8.819944,4.125226,3
20537690459225,-0.94755775,8.829515,4.115655,3
20537692838235,-0.9236295,8.848659,4.115655,3
20537695217297,-0.89491564,8.85823,4.0869412,3
20537697596308,-0.8853444,8.867801,4.058227,3
20537699975370,-0.86141616,8.896515,4.048656,3
20537702354381,-0.8470592,8.915657,4.082155,3
20537704733391,-0.8470592,8.915657,4.130012,3
20537707112454,-0.8470592,8.9348,4.1587257,3
20537709491464,-0.86141616,8.9348,4.125226,3
20537711870527,-0.8422736,8.987442,4.0677986,3
20537714249537,-0.8566305,9.035298,4.0534415,3
20537716628600,-0.85184485,9.073584,4.0534415,3
20537719007610,-0.8805587,9.08794,4.1108694,3
20537721386620,-0.9092726,9.08794,4.101298,3
20537723765683,-0.89491564,9.092726,4.101298,3
20537726144693,-0.9236295,9.08794,4.106084,3
20537728523756,-0.971486,9.097511,4.0965123,3
20537730902714,-0.9810573,9.111869,4.082155,3
20537733281829,-0.9906286,9.064013,4.0438704,3
20537735660839,-1.0193424,9.025727,4.0534415,3
20537738039850,-1.052842,9.001799,4.0773697,3
20537740418912,-1.0624132,8.949157,4.106084,3
20537742797922,-1.0624132,8.939586,4.0869412,3
20537745176985,-1.0289137,8.939586,4.0390844,3
20537747555995,-0.9954142,8.930014,3.9864426,3
20537749935006,-0.94755775,8.930014,3.9577286,3
20537752314068,-0.8853444,8.963513,3.9720855,3
20537754693079,-0.8279166,8.973084,3.9864426,3
20537757072141,-0.74177504,8.992228,3.9960139,3
20537759451152,-0.6843473,9.025727,3.991228,3
20537761830214,-0.6364908,9.025727,3.9864426,3
20537764209225,-0.63170516,9.059227,3.9816568,3
20537766588235,-0.6364908,9.073584,3.991228,3
20537768967297,-0.65084773,9.073584,4.0103707,3
20537771346308,-0.6891329,9.030513,4.0390844,3
20537773725370,-0.7178468,9.035298,4.048656,3
20537776104381,-0.76570326,9.049655,4.0534415,3
20537778483443,-0.81834537,9.01137,4.0438704,3
20537780862454,-0.81834537,9.035298,4.0390844,3
20537783241464,-0.83748794,9.040084,4.0007997,3
20537785620527,-0.85184485,9.040084,4.0103707,3
20537787999537,-0.83748794,9.01137,4.048656,3
20537790378600,-0.82313097,9.035298,4.048656,3
20537792757610,-0.79920274,9.0544405,4.0103707,3
20537795136620,-0.79441714,9.035298,3.9625144,3
20537797515683,-0.76570326,9.025727,3.9290147,3
20537799894693,-0.75613195,9.020942,3.9242291,3
20537802273756,-0.7178468,9.020942,3.9481573,3
20537804652714,-0.7178468,8.997013,3.938586,3
20537807031829,-0.7369894,8.992228,3.9481573,3
20537809410839,-0.7322037,9.006584,3.9960139,3
20537811789850,-0.70348984,9.01137,4.034299,3
20537814168912,-0.6843473,9.01137,3.9864426,3
20537816547922,-0.6556334,9.044869,3.9625144,3
20537818926985,-0.6412765,9.044869,3.9338005,3
20537821305995,-0.63170516,9.01137,3.9625144,3
20537823685058,-0.6125626,9.0544405,4.005585,3
20537826064068,-0.5694918,9.083155,4.0390844,3
20537828443079,-0.5407779,8.973084,3.938586,3
20537830822141,-0.5312066,8.949157,3.8668015,3
20537833201152,-0.47856453,8.930014,3.8907297,3
20537835580214,-0.53599226,8.853444,3.9577286,3
20537837959225,-0.5407779,8.800801,4.0151563,3
20537840338287,-0.59342,8.819944,4.0390844,3
20537842717297,-0.6029913,8.829515,3.9720855,3
20537845096308,-0.6269195,8.79123,3.9050865,3
20537847475370,-0.60777694,8.867801,3.9194436,3
20537849854381,-0.6221339,8.848659,3.9146578,3
20537852233443,-0.6364908,8.992228,4.0773697,3
20537854612454,-0.57906306,8.748159,3.7663028,3
20537856991516,-0.6987042,8.872586,3.751946,3
20537859370527,-0.5168497,9.0544405,3.9864426,3
20537861749537,-0.8805587,8.872586,4.1922255,3
20537864128600,-0.65084773,8.848659,4.26401,3
20537866507558,-0.9954142,8.977871,4.1204405,3
20537868886672,-0.89013004,9.016156,3.885944,3
20537871265631,-1.105484,8.906086,3.790231,3
20537873644745,-1.0815558,8.939586,3.9481573,3
20537876023756,-1.1772687,9.030513,4.211368,3
20537878402766,-1.2634103,8.925228,4.2927237,3
20537880781829,-1.1772687,8.920443,4.182654,3
20537883160839,-1.3064811,8.973084,3.8524444,3
20537885539902,-1.1676974,9.0544405,3.7950168,3
20537887918912,-1.3064811,8.848659,3.8476589,3
20537890297922,-1.2011969,8.958728,4.15394,3
20537892676985,-1.3926228,8.939586,4.249653,3
20537895055995,-1.3208381,8.973084,4.240082,3
20537897435058,-1.4117653,8.906086,3.9098723,3
20537899814068,-1.4452649,9.107083,3.7710886,3
20537902193079,-1.4787644,9.025727,3.5844483,3
20537904572141,-1.4835501,8.997013,3.737589,3
20537906951152,-1.4787644,9.01137,3.8955152,3
20537909330214,-1.5170496,9.111869,4.106084,3
20537911709225,-1.430908,9.001799,4.0151563,3
20537914088287,-1.4404793,9.092726,3.8811584,3
20537916467297,-1.3208381,9.174082,3.6610186,3
20537918846360,-1.3208381,9.183653,3.5509489,3
20537921225370,-1.2155539,9.116654,3.4313076,3
20537923604381,-1.2634103,9.193225,3.5557344,3
20537925983443,-1.1724831,9.126225,3.7950168,3
20537928362454,-1.1772687,9.08794,4.101298,3
20537930741516,-1.1246266,9.107083,4.0869412,3
20537933120527,-1.0863415,9.236296,3.9098723,3
20537935499589,-0.971486,9.188439,3.5653057,3
20537937878600,-0.8805587,9.221938,3.3930225,3
20537940257610,-0.8709874,9.250652,3.4791641,3
20537942636672,-0.7513463,9.241081,3.7567315,3
20537945015683,-0.7800602,9.164511,3.9768713,3
20537947394745,-0.64606214,9.226724,3.952943,3
20537949773756,-0.6795616,9.2075815,3.723232,3
20537952152818,-0.5072784,9.2075815,3.507878,3
20537954531829,-0.61734825,9.188439,3.426522,3
20537956910839,-0.5407779,9.202796,3.5509489,3
20537959289902,-0.63170516,9.078369,3.723232,3
20537961668912,-0.57906306,9.068798,3.8955152,3
20537964047975,-0.6939186,9.059227,3.885944,3
20537966426985,-0.70348984,9.12144,3.8333018,3
20537968806047,-0.7800602,9.059227,3.6897326,3
20537971185058,-0.8422736,9.064013,3.5988052,3
20537973564068,-0.8709874,9.035298,3.574877,3
20537975943079,-0.9762716,9.035298,3.7088752,3
20537978322141,-0.9906286,9.001799,3.8093736,3
20537980701204,-1.0959128,9.035298,3.9146578,3
20537983080214,-1.0815558,9.049655,3.885944,3
20537985459277,-1.1724831,9.044869,3.7950168,3
20537987838287,-1.1772687,9.083155,3.6993039,3
20537990217297,-1.2586247,9.08794,3.656233,3
20537992596360,-1.2634103,9.064013,3.7663028,3
20537994975370,-1.282553,9.035298,3.8907297,3
20537997354433,-1.2729816,9.040084,3.991228,3
20537999733443,-1.2921243,9.020942,3.9625144,3
20538002112506,-1.282553,9.030513,3.900301,3
20538004491516,-1.253839,9.035298,3.7998023,3
20538006870527,-1.2011969,9.016156,3.7710886,3
20538009249589,-1.1724831,9.01137,3.8333018,3
20538011628600,-1.1246266,9.001799,3.900301,3
20538014007662,-1.0624132,9.01137,3.9481573,3
20538016386672,-1.0432707,8.992228,3.9290147,3
20538018765683,-1.0001999,8.987442,3.8285162,3
20538021144745,-0.971486,9.001799,3.7615173,3
20538023523756,-0.9092726,8.963513,3.7088752,3
20538025902818,-0.95712906,8.949157,3.7615173,3
20538028281829,-0.9236295,8.968299,3.8285162,3
20538030660891,-0.94755775,8.944371,3.885944,3
20538033039902,-0.91884387,8.944371,3.9098723,3
20538035418964,-0.9906286,8.949157,3.8620157,3
20538037797975,-1.0097711,8.968299,3.8380876,3
20538040176985,-1.0576276,8.949157,3.8333018,3
20538042556047,-1.0671989,8.963513,3.8955152,3
20538044935006,-1.1006985,8.949157,3.9242291,3
20538047314120,-1.1294123,8.987442,3.9960139,3
20538049693131,-1.1102697,8.953942,4.024728,3
20538052072193,-1.0863415,8.987442,4.019942,3
20538054451204,-1.038485,9.001799,3.9577286,3
20538056830214,-1.0336994,9.025727,3.9242291,3
20538059209277,-0.94755775,9.035298,3.9290147,3
20538061588287,-0.89013004,9.064013,3.9720855,3
20538063967350,-0.7752745,9.064013,4.024728,3
20538066346360,-0.7609176,9.068798,4.063013,3
20538068725370,-0.67477596,9.092726,4.072584,3
20538071104433,-0.63170516,9.107083,4.019942,3
20538073483443,-0.55513483,9.107083,3.9960139,3
20538075862506,-0.5694918,9.116654,3.991228,3
20538078241516,-0.51206404,9.145369,4.0103707,3
20538080620579,-0.5168497,9.135797,4.0773697,3
20538082999589,-0.51206404,9.140582,4.1443686,3
20538085378652,-0.5168497,9.116654,4.173083,3
20538087757662,-0.5455636,9.092726,4.1587257,3
20538090136672,-0.57427746,9.08794,4.0965123,3
20538092515735,-0.5694918,9.097511,4.0677986,3
20538094894745,-0.5694918,9.059227,4.0869412,3
20538097273808,-0.61734825,9.030513,4.130012,3
20538099652818,-0.6269195,9.006584,4.1587257,3
20538102031881,-0.61734825,9.006584,4.168297,3
20538104410891,-0.6029913,8.987442,4.125226,3
20538106789902,-0.6221339,9.001799,4.0869412,3
20538109168964,-0.5455636,8.992228,4.034299,3
20538111547975,-0.5455636,8.963513,4.0534415,3
20538113927037,-0.4977071,8.968299,4.0869412,3
20538116306047,-0.47856453,8.963513,4.1204405,3
20538118685058,-0.4019942,8.949157,4.15394,3
20538121064120,-0.36370903,8.925228,4.139583,3
20538123443131,-0.3062813,8.9348,4.125226,3
20538125822193,-0.27756742,8.9108715,4.1204405,3
20538128201204,-0.2440679,8.915657,4.1347976,3
20538130580266,-0.2536392,8.9108715,4.1443686,3
20538132959225,-0.2632105,8.925228,4.1874394,3
20538135338339,-0.28713873,8.896515,4.206582,3
20538137717350,-0.31585258,8.930014,4.197011,3
20538140096360,-0.37806597,8.925228,4.1778684,3
20538142475422,-0.44506502,8.920443,4.182654,3
20538144854433,-0.526421,8.915657,4.1635113,3
20538147233495,-0.6125626,8.930014,4.182654,3
20538149612506,-0.6987042,8.906086,4.1874394,3
20538151991568,-0.7800602,8.906086,4.211368,3
20538154370579,-0.8662018,8.906086,4.211368,3
20538156749641,-0.94755775,8.920443,4.220939,3
20538159128652,-0.9906286,8.915657,4.2161536,3
20538161507662,-1.0671989,8.906086,4.197011,3
20538163886725,-1.0911272,8.872586,4.1874394,3
20538166265735,-1.1294123,8.872586,4.220939,3
20538168644745,-1.1437693,8.867801,4.249653,3
20538171023808,-1.1581261,8.863015,4.249653,3
20538173402818,-1.1437693,8.843872,4.2592244,3
20538175781881,-1.1246266,8.810373,4.2448673,3
20538178160891,-1.0911272,8.829515,4.2352962,3
20538180539954,-1.038485,8.819944,4.240082,3
20538182918964,-1.0241281,8.829515,4.273581,3
20538185298027,-1.0241281,8.796016,4.3070807,3
20538187677037,-1.0001999,8.781659,4.3262234,3
20538190056047,-0.971486,8.748159,4.321438,3
20538192435110,-1.0001999,8.776874,4.331009,3
20538194814120,-1.0001999,8.762517,4.316652,3
20538197193183,-1.0289137,8.752945,4.302295,3
20538199572193,-1.052842,8.776874,4.316652,3
20538201951256,-1.0863415,8.7577305,4.3501515,3
20538204330266,-1.1246266,8.738588,4.3740797,3
20538206709277,-1.1294123,8.724232,4.3932223,3
20538209088339,-1.134198,8.719446,4.3645086,3
20538211467350,-1.1772687,8.71466,4.354937,3
20538213846412,-1.2059826,8.690732,4.3501515,3
20538216225422,-1.2203395,8.657232,4.3070807,3
20538218604485,-1.2394822,8.733803,4.354937,3
20538220983495,-1.2203395,8.877372,4.4985065,3
20538223362506,-1.2011969,8.853444,4.4745784,3
20538225741568,-1.1676974,8.939586,4.3645086,3
20538228120579,-1.0480564,9.040084,4.211368,3
20538230499641,-0.9236295,9.064013,4.173083,3
20538232878652,-0.79441714,9.035298,4.287938,3
20538235257714,-0.66999036,9.035298,4.4410787,3
20538237636725,-0.5455636,8.992228,4.479364,3
20538240015735,-0.51206404,8.896515,4.4315076,3
20538242394797,-0.4019942,8.863015,4.3836513,3
20538244773808,-0.36370903,8.82473,4.3836513,3
20538247152870,-0.3493521,8.79123,4.3932223,3
20538249531881,-0.32542387,8.719446,4.3645086,3
20538251910943,-0.30149564,8.733803,4.354937,3
20538254289954,-0.28713873,8.7673025,4.369294,3
20538256669016,-0.2727818,8.762517,4.3836513,3
20538259048027,-0.22971097,8.700303,4.2448673,3
20538261427037,-0.23928227,8.776874,4.063013,3
20538263806100,-0.23449662,8.882157,3.9960139,3
20538266185110,-0.28713873,8.872586,4.0965123,3
20538268564172,-0.32063824,8.872586,4.273581,3
20538270943183,-0.4019942,8.891729,4.3262234,3
20538273322193,-0.47377887,8.9013,4.2352962,3
20538275701256,-0.57906306,8.9013,4.139583,3
20538278080214,-0.66041905,8.896515,4.1587257,3
20538280459329,-0.7465607,8.886943,4.249653,3
20538282838339,-0.80877405,8.848659,4.321438,3
20538285217402,-0.82313097,8.82473,4.321438,3
20538287596412,-0.85184485,8.863015,4.331009,3
20538289975422,-0.8470592,8.843872,4.3357944,3
20538292354485,-0.81834537,8.815159,4.3070807,3
20538294733495,-0.7752745,8.839087,4.197011,3
20538297112558,-0.7322037,8.896515,4.0869412,3
20538299491568,-0.6364908,8.896515,4.0534415,3
20538301870631,-0.5838487,8.867801,4.1443686,3
20538304249641,-0.5694918,8.906086,4.211368,3
20538306628652,-0.56470615,8.877372,4.1491547,3
20538309007714,-0.5982057,8.886943,4.0151563,3
20538311386725,-0.6125626,8.925228,3.9194436,3
20538313765787,-0.6412765,8.920443,3.9481573,3
20538316144797,-0.66999036,8.848659,4.0773697,3
20538318523860,-0.67477596,8.839087,4.206582,3
20538320902870,-0.70348984,8.843872,4.278367,3
20538323281933,-0.74177504,8.85823,4.2592244,3
20538325660943,-0.74177504,8.867801,4.197011,3
20538328039954,-0.7704889,8.896515,4.1491547,3
20538330419016,-0.80877405,8.906086,4.0869412,3
20538332798027,-0.82313097,8.906086,4.072584,3
20538335177037,-0.8279166,8.920443,4.1347976,3
20538337556100,-0.8327023,8.920443,4.220939,3
20538339935162,-0.8422736,8.920443,4.206582,3
20538342314172,-0.8470592,8.9108715,4.101298,3
20538344693183,-0.8135597,8.9348,3.9816568,3
20538347072245,-0.8422736,8.987442,3.9194436,3
20538349451256,-0.8470592,8.968299,3.9864426,3
20538351830318,-0.8327023,8.9348,4.139583,3
20538354209329,-0.8327023,8.915657,4.2161536,3
20538356588391,-0.8566305,8.906086,4.2592244,3
20538358967402,-0.83748794,8.915657,4.182654,3
20538361346412,-0.8279166,8.944371,4.1204405,3
20538363725475,-0.8135597,8.958728,4.091727,3
20538366104485,-0.8039884,8.958728,4.072584,3
20538368483547,-0.7609176,8.992228,4.1204405,3
20538370862558,-0.75613195,8.997013,4.1778684,3
20538373241620,-0.7322037,8.987442,4.211368,3
20538375620631,-0.7082755,9.001799,4.168297,3
20538377999693,-0.65084773,9.044869,4.0534415,3
20538380378704,-0.6029913,9.044869,3.9673,3
20538382757714,-0.5312066,9.044869,3.9673,3
20538385136777,-0.47856453,9.025727,4.0534415,3
20538387515787,-0.4546363,9.01137,4.115655,3
20538389894850,-0.44027936,8.997013,4.106084,3
20538392273860,-0.41156548,9.006584,4.0677986,3
20538394652922,-0.38763726,8.992228,4.019942,3
20538397031933,-0.37806597,8.963513,4.005585,3
20538399410995,-0.37806597,8.977871,4.0103707,3
20538401790006,-0.3589234,8.958728,4.058227,3
20538404169016,-0.3589234,8.953942,4.106084,3
20538406548079,-0.38285163,8.9348,4.115655,3
20538408927089,-0.39720857,8.9108715,4.1108694,3
20538411306152,-0.37328035,8.9108715,4.0677986,3
20538413685162,-0.3684947,8.925228,4.005585,3
20538416064225,-0.39720857,8.930014,3.9673,3
20538418443235,-0.38763726,8.925228,4.0103707,3
20538420822245,-0.38763726,8.925228,4.0773697,3
20538423201308,-0.40677986,8.920443,4.101298,3
20538425580318,-0.4019942,8.949157,4.0677986,3
20538427959381,-0.41156548,8.968299,4.0295134,3
20538430338391,-0.38285163,8.973084,4.0103707,3
20538432717454,-0.3684947,8.953942,4.0390844,3
20538435096464,-0.3589234,8.944371,4.106084,3
20538437475475,-0.33499518,8.930014,4.139583,3
20538439854537,-0.3062813,8.944371,4.15394,3
20538442233547,-0.2727818,8.949157,4.15394,3
20538444612610,-0.2440679,8.9348,4.1204405,3
20538446991620,-0.22013968,8.9348,4.106084,3
20538449370683,-0.22492532,8.915657,4.101298,3
20538451749693,-0.23928227,8.925228,4.106084,3
20538454128704,-0.28713873,8.9348,4.125226,3
20538456507766,-0.3062813,8.915657,4.1443686,3
20538458886725,-0.33020952,8.944371,4.1108694,3
20538461265839,-0.37328035,8.949157,4.082155,3
20538463644850,-0.4211368,8.963513,4.072584,3
20538466023860,-0.45942193,9.001799,4.082155,3
20538468402922,-0.4881358,8.997013,4.130012,3
20538470781933,-0.52163535,8.992228,4.1491547,3
20538473160995,-0.52163535,8.987442,4.15394,3
20538475540006,-0.5455636,8.9826565,4.15394,3
20538477919068,-0.5838487,9.001799,4.1443686,3
20538480298079,-0.60777694,8.987442,4.1347976,3
20538482677141,-0.63170516,9.01137,4.130012,3
20538485056152,-0.5982057,9.016156,4.168297,3
20538487435214,-0.5838487,9.016156,4.1778684,3
20538489814172,-0.59342,9.016156,4.173083,3
20538492193235,-0.59342,9.001799,4.1347976,3
20538494572245,-0.5694918,9.001799,4.106084,3
20538496951308,-0.5599205,9.01137,4.0869412,3
20538499330370,-0.5694918,9.025727,4.0677986,3
20538501709381,-0.57427746,9.030513,4.072584,3
20538504088443,-0.5455636,9.006584,4.0677986,3
20538506467454,-0.5694918,9.01137,4.063013,3
20538508846464,-0.5886344,9.001799,4.0295134,3
20538511225527,-0.57906306,8.997013,4.019942,3
20538513604537,-0.5886344,8.997013,4.0151563,3
20538515983600,-0.61734825,8.987442,4.019942,3
20538518362610,-0.64606214,8.968299,4.034299,3
20538520741672,-0.66041905,8.973084,4.024728,3
20538523120683,-0.6795616,8.977871,4.0103707,3
20538525499745,-0.7082755,8.963513,4.0151563,3
20538527878756,-0.71306115,8.9826565,4.0007997,3
20538530257766,-0.7369894,8.977871,3.991228,3
20538532636829,-0.74177504,8.973084,3.9720855,3
20538535015839,-0.7465607,8.963513,3.9673,3
20538537394902,-0.7369894,8.958728,3.952943,3
20538539773912,-0.7369894,8.949157,3.9338005,3
20538542152975,-0.7369894,8.953942,3.9050865,3
20538544531985,-0.7369894,8.958728,3.8811584,3
20538546910995,-0.7465607,8.9348,3.8955152,3
20538549290058,-0.71306115,8.939586,3.9194436,3
20538551669068,-0.7082755,8.949157,3.9146578,3
20538554048131,-0.71306115,8.944371,3.885944,3
20538556427141,-0.72741807,8.920443,3.885944,3
20538558806204,-0.74177504,8.949157,3.8763726,3
20538561185214,-0.72263247,8.958728,3.8955152,3
20538563564277,-0.72741807,8.958728,3.9050865,3
20538565943287,-0.7178468,8.963513,3.8811584,3
20538568322297,-0.70348984,8.968299,3.9050865,3
20538570701360,-0.71306115,8.973084,3.9098723,3
20538573080370,-0.6795616,8.987442,3.8955152,3
20538575459433,-0.6795616,8.992228,3.8907297,3
20538577838443,-0.6652047,9.01137,3.9194436,3
20538580217506,-0.6221339,9.030513,3.9290147,3
20538582596516,-0.5982057,9.0544405,3.9338005,3
20538584975527,-0.5455636,9.08794,3.952943,3
20538587354589,-0.49292147,9.107083,3.9673,3
20538589733600,-0.43070808,9.102298,3.9816568,3
20538592112662,-0.38285163,9.102298,3.9960139,3
20538594491672,-0.33499518,9.116654,4.034299,3
20538596870735,-0.28235307,9.107083,4.063013,3
20538599249745,-0.23928227,9.078369,4.082155,3
20538601628808,-0.2009971,9.0544405,4.1204405,3
20538604007818,-0.18185452,9.044869,4.101298,3
20538606386829,-0.13878371,9.035298,4.115655,3
20538608765891,-0.13399807,9.006584,4.1204405,3
20538611144902,-0.13878371,8.997013,4.1491547,3
20538613523964,-0.15792629,8.9826565,4.182654,3
20538615902975,-0.148355,8.953942,4.206582,3
20538618282037,-0.17228323,8.925228,4.23051,3
20538620661047,-0.17706887,8.920443,4.2448673,3
20538623040058,-0.19142582,8.9013,4.26401,3
20538625419120,-0.20578274,8.867801,4.273581,3
20538627798131,-0.22971097,8.843872,4.302295,3
20538630177193,-0.23449662,8.819944,4.3405805,3
20538632556152,-0.22013968,8.796016,4.3740797,3
20538634935266,-0.2105684,8.79123,4.388437,3
20538637314225,-0.19142582,8.805588,4.4171505,3
20538639693287,-0.20578274,8.819944,4.4315076,3
20538642072350,-0.17706887,8.82473,4.4458647,3
20538644451360,-0.148355,8.815159,4.469793,3
20538646830422,-0.15314065,8.834301,4.493721,3
20538649209433,-0.15792629,8.848659,4.5224347,3
20538651588495,-0.17228323,8.848659,4.551149,3
20538653967506,-0.18664017,8.85823,4.5415773,3
20538656346568,-0.20578274,8.839087,4.551149,3
20538658725579,-0.24885355,8.843872,4.575077,3
20538661104589,-0.29671,8.815159,4.5894337,3
20538663483652,-0.35413775,8.781659,4.6085763,3
20538665862662,-0.43070808,8.7673025,4.6325045,3
20538668241725,-0.4977071,8.772088,4.6468616,3
20538670620735,-0.57906306,8.752945,4.6468616,3
20538672999797,-0.65084773,8.748159,4.6612186,3
20538675378808,-0.6891329,8.71466,4.6564326,3
20538677757870,-0.7513463,8.719446,4.6803613,3
20538680136881,-0.8039884,8.709874,4.699504,3
20538682515891,-0.85184485,8.695518,4.699504,3
20538684894954,-0.8853444,8.690732,4.723432,3
20538687273964,-0.8997013,8.681161,4.7042894,3
20538689653027,-0.91884387,8.685946,4.7042894,3
20538692032037,-0.90448695,8.671589,4.6803613,3
20538694411100,-0.8709874,8.662018,4.6612186,3
20538696790110,-0.81834537,8.618947,4.6612186,3
20538699169120,-0.7848458,8.609376,4.6468616,3
20538701548183,-0.7369894,8.609376,4.651647,3
20538703927193,-0.6795616,8.623733,4.6468616,3
20538706306256,-0.67477596,8.6141615,4.627719,3
20538708685266,-0.66999036,8.6141615,4.618148,3
20538711064329,-0.6987042,8.609376,4.6085763,3
20538713443339,-0.72263247,8.628518,4.6037908,3
20538715822402,-0.75613195,8.657232,4.6229334,3
20538718201412,-0.76570326,8.719446,4.642076,3
20538720580422,-0.7609176,8.709874,4.6372905,3
20538722959485,-0.7513463,8.709874,4.6037908,3
20538725338495,-0.7322037,8.743374,4.570291,3
20538727717558,-0.6987042,8.7673025,4.5655055,3
20538730096568,-0.6652047,8.800801,4.551149,3
20538732475631,-0.6364908,8.796016,4.5415773,3
20538734854641,-0.6269195,8.796016,4.5320063,3
20538737233704,-0.64606214,8.786445,4.4985065,3
20538739612714,-0.66041905,8.776874,4.4889355,3
20538741991777,-0.66999036,8.7673025,4.4889355,3
20538744370787,-0.6843473,8.781659,4.4745784,3
20538746749797,-0.7082755,8.752945,4.465007,3
20538749128860,-0.6891329,8.762517,4.4745784,3
20538751507870,-0.6891329,8.79123,4.479364,3
20538753886933,-0.6652047,8.819944,4.469793,3
20538756265943,-0.63170516,8.815159,4.45065,3
20538758644954,-0.5599205,8.819944,4.402794,3
20538761024016,-0.5312066,8.810373,4.3788652,3
20538763403027,-0.4833502,8.82473,4.359723,3
20538765782089,-0.4977071,8.834301,4.3405805,3
20538768161100,-0.51206404,8.829515,4.3118663,3
20538770540162,-0.5407779,8.843872,4.26401,3
20538772919172,-0.5838487,8.863015,4.26401,3
20538775298235,-0.6652047,8.867801,4.249653,3
20538777677245,-0.7465607,8.886943,4.26401,3
20538780056256,-0.8327023,8.891729,4.278367,3
20538782435318,-0.8853444,8.9013,4.2975097,3
20538784814329,-0.9906286,8.891729,4.2687955,3
20538787193391,-1.0624132,8.9108715,4.249653,3
20538789572402,-1.0959128,8.915657,4.249653,3
20538791951464,-1.1533405,8.930014,4.2592244,3
20538794330475,-1.1820544,8.915657,4.2592244,3
20538796709537,-1.2155539,8.944371,4.240082,3
20538799088547,-1.2442678,8.939586,4.249653,3
20538801467558,-1.2346965,8.925228,4.2257247,3
20538803846620,-1.2346965,8.930014,4.197011,3
20538806225631,-1.1916257,8.953942,4.1635113,3
20538808604693,-1.1533405,8.9348,4.15394,3
20538810983704,-1.1389836,8.944371,4.1587257,3
20538813362766,-1.0624132,8.939586,4.139583,3
20538815741777,-0.9762716,8.949157,4.130012,3
20538818120839,-0.93320084,8.958728,4.125226,3
20538820499850,-0.86141616,8.958728,4.0965123,3
20538822878860,-0.8039884,8.939586,4.0869412,3
20538825257922,-0.7609176,8.925228,4.0869412,3
20538827636933,-0.6939186,8.944371,4.1204405,3
20538830015995,-0.65084773,8.930014,4.1204405,3
20538832395006,-0.6125626,8.930014,4.106084,3
20538834774068,-0.57427746,8.939586,4.106084,3
20538837153079,-0.55034924,8.939586,4.106084,3
20538839532141,-0.5312066,8.939586,4.1108694,3
20538841911152,-0.4881358,8.944371,4.1347976,3
20538844290162,-0.47377887,8.9348,4.1443686,3
20538846669225,-0.47856453,8.963513,4.1491547,3
20538849048235,-0.4977071,8.987442,4.130012,3
20538851427297,-0.5024927,8.992228,4.1204405,3
20538853806308,-0.5024927,8.973084,4.1204405,3
20538856185475,-0.4977071,8.992228,4.1347976,3
20538858564381,-0.49292147,8.997013,4.1587257,3
20538860943391,-0.5455636,8.987442,4.1874394,3
20538863322454,-0.5694918,8.973084,4.197011,3
20538865701464,-0.5886344,8.953942,4.2017965,3
20538868080527,-0.59342,8.953942,4.1778684,3
20538870459537,-0.6125626,8.930014,4.1587257,3
20538872838600,-0.6029913,8.920443,4.197011,3
20538875217610,-0.5886344,8.896515,4.1778684,3
20538877596672,-0.5982057,8.886943,4.168297,3
20538879975683,-0.6029913,8.853444,4.1922255,3
20538882354693,-0.57906306,8.843872,4.182654,3
20538884733756,-0.60777694,8.839087,4.173083,3
20538887112766,-0.6029913,8.82473,4.15394,3
20538889491829,-0.61734825,8.829515,4.168297,3
20538891870839,-0.63170516,8.829515,4.197011,3
20538894249902,-0.6652047,8.815159,4.211368,3
20538896628912,-0.6556334,8.810373,4.1874394,3
20538899007975,-0.70348984,8.829515,4.173083,3
20538901386985,-0.7322037,8.839087,4.1587257,3
20538903765995,-0.75613195,8.815159,4.1443686,3
20538906145058,-0.7752745,8.800801,4.15394,3
20538908524068,-0.81834537,8.781659,4.1347976,3
20538910903131,-0.81834537,8.805588,4.115655,3
20538913282141,-0.82313097,8.79123,4.0965123,3
20538915661204,-0.8279166,8.781659,4.0773697,3
20538918040214,-0.7800602,8.772088,4.048656,3
20538920419277,-0.76570326,8.79123,4.063013,3
20538922798287,-0.75613195,8.786445,4.0295134,3
20538925177350,-0.72741807,8.815159,4.0151563,3
20538927556360,-0.6795616,8.829515,4.0103707,3
20538929935370,-0.6364908,8.819944,4.024728,3
20538932314433,-0.5886344,8.839087,3.9960139,3
20538934693443,-0.5455636,8.848659,3.991228,3
20538937072506,-0.5072784,8.886943,3.991228,3
20538939451516,-0.44027936,8.886943,3.9768713,3
20538941830579,-0.3924229,8.872586,3.9625144,3
20538944209589,-0.3589234,8.9013,3.9577286,3
20538946588600,-0.3062813,8.949157,3.9433718,3
20538948967662,-0.31585258,8.977871,3.9290147,3
20538951346672,-0.3062813,8.977871,3.8907297,3
20538953725683,-0.3062813,8.9826565,3.8955152,3
20538956104745,-0.34456646,8.987442,3.8668015,3
20538958483808,-0.37328035,9.006584,3.8380876,3
20538960862818,-0.37806597,9.040084,3.8333018,3
20538963241829,-0.4019942,9.083155,3.8237305,3
20538965620891,-0.42592242,9.073584,3.8237305,3
20538967999954,-0.38285163,9.116654,3.8285162,3
20538970378964,-0.36370903,9.164511,3.804588,3
20538972757975,-0.3493521,9.183653,3.804588,3
20538975137037,-0.32063824,9.188439,3.8237305,3
20538977516047,-0.30149564,9.202796,3.8285162,3
20538979895110,-0.28713873,9.221938,3.8333018,3
20538982274120,-0.2727818,9.2075815,3.8333018,3
20538984653183,-0.25842485,9.260223,3.8285162,3
20538987032193,-0.25842485,9.260223,3.842873,3
20538989411204,-0.25842485,9.288938,3.8524444,3
20538991790266,-0.22971097,9.30808,3.8524444,3
20538994169277,-0.2536392,9.322437,3.8572302,3
20538996548339,-0.29192436,9.317652,3.8572302,3
20538998927350,-0.3062813,9.332008,3.8380876,3
20539001306412,-0.32063824,9.312865,3.8285162,3
20539003685422,-0.35413775,9.317652,3.804588,3
20539006064485,-0.37328035,9.346365,3.804588,3
20539008443495,-0.41635114,9.346365,3.7998023,3
20539010822506,-0.4354937,9.332008,3.7998023,3
20539013201568,-0.45942193,9.303294,3.8093736,3
20539015580527,-0.47856453,9.288938,3.7950168,3
20539017959641,-0.46899325,9.298509,3.7854455,3
20539020338652,-0.4642076,9.2793665,3.7950168,3
20539022717714,-0.47856453,9.284152,3.7854455,3
20539025096725,-0.46899325,9.2793665,3.7950168,3
20539027475787,-0.43070808,9.298509,3.804588,3
20539029854797,-0.39720857,9.303294,3.7998023,3
20539032233808,-0.37806597,9.30808,3.8093736,3
20539034612870,-0.34456646,9.317652,3.804588,3
20539036991881,-0.3397808,9.293723,3.7806597,3
20539039370943,-0.30149564,9.303294,3.7806597,3
20539041749954,-0.27756742,9.312865,3.7806597,3
20539044129016,-0.3062813,9.2793665,3.7950168,3
20539046508027,-0.29671,9.265009,3.7806597,3
20539048887089,-0.29671,9.217153,3.7615173,3
20539051266100,-0.34456646,9.188439,3.7567315,3
20539053645110,-0.37806597,9.150154,3.7471602,3
20539056024172,-0.4211368,9.116654,3.7567315,3
20539058403183,-0.44985065,9.073584,3.7471602,3
20539060782245,-0.4977071,9.035298,3.751946,3
20539063161256,-0.5599205,9.025727,3.7328033,3
20539065540318,-0.59342,9.030513,3.7328033,3
20539067919329,-0.63170516,9.035298,3.7184465,3
20539070298391,-0.6556334,9.025727,3.737589,3
20539072677402,-0.6795616,9.020942,3.7280176,3
20539075056464,-0.6987042,8.992228,3.7184465,3
20539077435475,-0.7322037,8.987442,3.7184465,3
20539079814485,-0.72741807,9.006584,3.7184465,3
20539082193547,-0.7609176,8.9826565,3.7088752,3
20539084572558,-0.7322037,8.963513,3.6897326,3
20539086951620,-0.7322037,8.949157,3.6993039,3
20539089330631,-0.7322037,8.949157,3.7136607,3
20539091709693,-0.70348984,8.949157,3.7184465,3
20539094088704,-0.6652047,8.930014,3.7136607,3
20539096467766,-0.64606214,8.930014,3.737589,3
20539098846777,-0.6269195,8.920443,3.7471602,3
20539101225787,-0.5886344,8.920443,3.7615173,3
20539103604850,-0.59342,8.944371,3.7806597,3
20539105983860,-0.57427746,8.949157,3.8141594,3
20539108362922,-0.5599205,8.963513,3.8524444,3
20539110741933,-0.57427746,9.001799,3.8620157,3
20539113120995,-0.57906306,9.006584,3.871587,3
20539115500006,-0.60777694,9.030513,3.871587,3
20539117879016,-0.6269195,9.0544405,3.8955152,3
20539120258079,-0.6795616,9.049655,3.8763726,3
20539122637089,-0.6843473,9.025727,3.8811584,3
20539125016152,-0.7322037,9.040084,3.871587,3
20539127395162,-0.72741807,9.049655,3.8524444,3
20539129774225,-0.75613195,9.040084,3.8524444,3
20539132153235,-0.7465607,9.030513,3.842873,3
20539134532297,-0.7178468,9.035298,3.818945,3
20539136911308,-0.7082755,9.035298,3.8141594,3
20539139290370,-0.6987042,9.044869,3.8141594,3
20539141669381,-0.67477596,9.064013,3.818945,3
20539144048443,-0.6221339,9.111869,3.7950168,3
20539146427454,-0.5886344,9.15494,3.7998023,3
20539148806464,-0.55513483,9.174082,3.8141594,3
20539151185527,-0.51206404,9.183653,3.8333018,3
20539153564537,-0.47377887,9.212367,3.8524444,3
20539155943600,-0.4354937,9.217153,3.8572302,3
20539158322610,-0.38763726,9.23151,3.8476589,3
20539160701672,-0.36370903,9.255438,3.8524444,3
20539163080683,-0.34456646,9.217153,3.8476589,3
20539165459745,-0.32542387,9.202796,3.8572302,3
20539167838756,-0.3397808,9.2075815,3.8811584,3
20539170217766,-0.32542387,9.193225,3.9146578,3
20539172596829,-0.33499518,9.183653,3.9338005,3
20539174975839,-0.34456646,9.15494,3.9481573,3
20539177354902,-0.3589234,9.15494,3.9673,3
20539179733912,-0.38285163,9.159725,3.9960139,3
20539182112975,-0.38285163,9.140582,3.9960139,3
20539184491985,-0.4211368,9.107083,4.019942,3
20539186871047,-0.41635114,9.097511,4.0390844,3
20539189250058,-0.40677986,9.097511,4.058227,3
20539191629068,-0.3924229,9.073584,4.0773697,3
20539194008131,-0.3924229,9.025727,4.0773697,3
20539196387141,-0.37806597,9.016156,4.082155,3
20539198766204,-0.37806597,8.997013,4.0773697,3
20539201145214,-0.37806597,9.001799,4.115655,3
20539203524277,-0.36370903,8.977871,4.1491547,3
20539205903287,-0.37328035,8.968299,4.1635113,3
20539208282350,-0.3684947,8.973084,4.2257247,3
20539210661360,-0.40677986,9.001799,4.278367,3
20539213040370,-0.4354937,8.997013,4.316652,3
20539215419433,-0.47377887,9.016156,4.3501515,3
20539217798443,-0.47856453,9.040084,4.398008,3
20539220177506,-0.53599226,9.030513,4.45065,3
20539222556516,-0.5838487,9.01137,4.4889355,3
20539224935579,-0.61734825,8.973084,4.503292,3
20539227314589,-0.6269195,8.939586,4.5272202,3
20539229693652,-0.66999036,8.915657,4.546363,3
20539232072662,-0.6891329,8.882157,4.5798626,3
20539234451672,-0.6939186,8.867801,4.5942197,3
20539236830735,-0.7369894,8.839087,4.6229334,3
20539239209745,-0.7465607,8.819944,4.6468616,3
20539241588808,-0.7465607,8.796016,4.6612186,3
20539243967766,-0.7322037,8.752945,4.6803613,3
20539246346881,-0.74177504,8.743374,4.699504,3
20539248725891,-0.7704889,8.709874,4.699504,3
20539251104954,-0.7465607,8.685946,4.733003,3
20539253483964,-0.74177504,8.63809,4.74736,3
20539255863027,-0.7322037,8.628518,4.7569313,3
20539258242037,-0.70348984,8.609376,4.7569313,3
20539260621047,-0.70348984,8.566305,4.7808595,3
20539263000110,-0.7082755,8.5423765,4.7808595,3
20539265379068,-0.7369894,8.52802,4.7712884,3
20539267758183,-0.74177504,8.513663,4.752146,3
20539270137193,-0.76570326,8.52802,4.74736,3
20539272516256,-0.81834537,8.508878,4.709075,3
20539274895266,-0.85184485,8.484949,4.7138605,3
20539277274329,-0.89013004,8.499306,4.694718,3
20539279653339,-0.8757731,8.484949,4.6899323,3
20539282032402,-0.8662018,8.49452,4.6755753,3
20539284411412,-0.8853444,8.484949,4.6707897,3
20539286790422,-0.8805587,8.508878,4.666004,3
20539289169485,-0.89491564,8.518449,4.6229334,3
20539291548495,-0.8566305,8.518449,4.613362,3
20539293927558,-0.8470592,8.547162,4.5942197,3
20539296306568,-0.8422736,8.547162,4.5894337,3
20539298685631,-0.85184485,8.56152,4.5942197,3
20539301064641,-0.86141616,8.580662,4.551149,3
20539303443704,-0.8662018,8.585447,4.5415773,3
20539305822714,-0.8757731,8.585447,4.503292,3
20539308201725,-0.8853444,8.585447,4.479364,3
20539310580787,-0.89013004,8.609376,4.4554358,3
20539312959797,-0.91405827,8.623733,4.45065,3
20539315338860,-0.9236295,8.628518,4.426722,3
20539317717870,-0.94755775,8.652447,4.398008,3
20539320096933,-0.971486,8.662018,4.369294,3
20539322475943,-1.0001999,8.690732,4.331009,3
20539324855006,-1.0193424,8.700303,4.3118663,3
20539327234016,-1.0289137,8.733803,4.2975097,3
20539329613027,-1.0480564,8.738588,4.273581,3
20539331992089,-1.0576276,8.733803,4.2448673,3
20539334371100,-1.0719845,8.752945,4.211368,3
20539336750162,-1.0576276,8.7673025,4.1922255,3
20539339129172,-1.0480564,8.772088,4.1587257,3
20539341508235,-1.0145568,8.762517,4.1491547,3
20539343887245,-0.98584294,8.786445,4.1347976,3
20539346266308,-0.9523434,8.786445,4.106084,3
20539348645318,-0.9523434,8.815159,4.0965123,3
20539351024381,-0.9284152,8.848659,4.0869412,3
20539353403391,-0.91884387,8.853444,4.058227,3
20539355782454,-0.91405827,8.920443,4.048656,3
20539358161464,-0.8997013,8.930014,4.024728,3
20539360540475,-0.8805587,8.9348,4.0103707,3
20539362919537,-0.8853444,8.9826565,4.005585,3
20539365298547,-0.89013004,9.01137,4.0103707,3
20539367677610,-0.8805587,9.016156,3.9960139,3
20539370056620,-0.83748794,9.044869,3.9816568,3
20539372435683,-0.81834537,9.049655,3.9673,3
20539374814693,-0.80877405,9.030513,3.9433718,3
20539377193756,-0.7704889,9.059227,3.938586,3
20539379572766,-0.7513463,9.073584,3.9433718,3
20539381951777,-0.7369894,9.078369,3.9290147,3
20539384330839,-0.7082755,9.073584,3.9050865,3
20539386709850,-0.66041905,9.08794,3.8811584,3
20539389088912,-0.6412765,9.097511,3.8524444,3
20539391467922,-0.6029913,9.073584,3.8524444,3
20539393846985,-0.57906306,9.092726,3.8524444,3
20539396225995,-0.5407779,9.083155,3.8524444,3
20539398605058,-0.5407779,9.059227,3.842873,3
20539400984068,-0.5312066,9.102298,3.8285162,3
20539403363079,-0.5407779,9.092726,3.8333018,3
20539405742141,-0.5407779,9.102298,3.818945,3
20539408121152,-0.59342,9.102298,3.8093736,3
20539410500214,-0.6412765,9.107083,3.8093736,3
20539412879225,-0.6939186,9.126225,3.7998023,3
20539415258287,-0.72741807,9.131011,3.818945,3
20539417637297,-0.7704889,9.15494,3.8237305,3
20539420016360,-0.8135597,9.169296,3.8333018,3
20539422395370,-0.8662018,9.174082,3.8285162,3
20539424774381,-0.91405827,9.178867,3.8333018,3
20539427153443,-0.94277215,9.169296,3.8524444,3
20539429532454,-0.9762716,9.169296,3.8620157,3
20539431911516,-0.9810573,9.174082,3.871587,3
20539434290527,-0.9906286,9.135797,3.8620157,3
20539436669589,-0.9810573,9.107083,3.8620157,3
20539439048600,-0.9810573,9.140582,3.871587,3
20539441427662,-0.9523434,9.145369,3.8763726,3
20539443806672,-0.9379865,9.131011,3.8763726,3
20539446185735,-0.90448695,9.116654,3.8955152,3
20539448564745,-0.8757731,9.135797,3.9098723,3
20539450943808,-0.86141616,9.131011,3.9194436,3
20539453322818,-0.8422736,9.131011,3.9194436,3
20539455701829,-0.81834537,9.140582,3.9242291,3
20539458080891,-0.79920274,9.150154,3.9338005,3
20539460459902,-0.8279166,9.159725,3.9338005,3
20539462838964,-0.8566305,9.159725,3.9433718,3
20539465217975,-0.9092726,9.145369,3.9577286,3
20539467597037,-0.94277215,9.145369,3.9481573,3
20539469976047,-0.9810573,9.135797,3.9673,3
20539472355110,-1.038485,9.111869,3.9768713,3
20539474734120,-1.0671989,9.08794,3.9768713,3
20539477113183,-1.0959128,9.083155,3.9768713,3
20539479492193,-1.1150553,9.083155,3.9960139,3
20539481871204,-1.1581261,9.064013,4.0103707,3
20539484250266,-1.1676974,9.049655,4.0390844,3
20539486629277,-1.1437693,9.044869,4.0534415,3
20539489008339,-1.134198,8.997013,4.0534415,3
20539491387350,-1.119841,9.016156,4.048656,3
20539493766360,-1.0671989,9.01137,4.063013,3
20539496145422,-1.0097711,8.997013,4.0534415,3
20539498524485,-0.91884387,8.968299,4.0438704,3
20539500903495,-0.8566305,8.953942,4.0438704,3
20539503282506,-0.7848458,8.963513,4.063013,3
20539505661568,-0.71306115,8.968299,4.0773697,3
20539508040579,-0.63170516,8.953942,4.0773697,3
20539510419641,-0.5694918,8.944371,4.063013,3
20539512798652,-0.53599226,8.930014,4.072584,3
20539515177714,-0.4977071,8.920443,4.0773697,3
20539517556725,-0.47377887,8.915657,4.072584,3
20539519935735,-0.47377887,8.925228,4.0773697,3
20539522314797,-0.5072784,8.9108715,4.082155,3
20539524693860,-0.52163535,8.925228,4.0965123,3
20539527072870,-0.5599205,8.9108715,4.106084,3
20539529451881,-0.5694918,8.9108715,4.1108694,3
20539531830943,-0.6221339,8.915657,4.091727,3
20539534209954,-0.6891329,8.9108715,4.091727,3
20539536589016,-0.70348984,8.896515,4.091727,3
20539538968027,-0.70348984,8.9108715,4.1108694,3
20539541347089,-0.7369894,8.9108715,4.1204405,3
20539543726100,-0.7322037,8.906086,4.106084,3
20539546105162,-0.75613195,8.9108715,4.106084,3
20539548484172,-0.7322037,8.877372,4.101298,3
20539550863235,-0.72741807,8.867801,4.0965123,3
20539553242245,-0.72263247,8.85823,4.101298,3
20539555621308,-0.6891329,8.853444,4.106084,3
20539558000318,-0.66041905,8.863015,4.1108694,3
20539560379329,-0.6652047,8.9013,4.101298,3
20539562758391,-0.66999036,8.891729,4.106084,3
20539565137402,-0.6891329,8.886943,4.0869412,3
20539567516464,-0.6795616,8.867801,4.0773697,3
20539569895475,-0.6843473,8.829515,4.072584,3
20539572274537,-0.70348984,8.853444,4.058227,3
20539574653547,-0.76570326,8.843872,4.063013,3
20539577032610,-0.79441714,8.863015,4.0534415,3
20539579411620,-0.8279166,8.85823,4.0390844,3
20539581790631,-0.8662018,8.872586,4.0295134,3
20539584169693,-0.9092726,8.85823,4.048656,3
20539586548704,-0.9379865,8.867801,4.0390844,3
20539588927766,-0.98584294,8.9013,4.019942,3
20539591306777,-1.0241281,8.9013,4.024728,3
20539593685839,-1.038485,8.925228,4.0534415,3
20539596064850,-1.0624132,8.9348,4.034299,3
20539598443912,-1.0863415,8.939586,4.024728,3
20539600822922,-1.1102697,8.925228,4.0151563,3
20539603201985,-1.119841,8.944371,3.9960139,3
20539605580995,-1.1294123,8.953942,3.991228,3
20539607960058,-1.105484,8.958728,4.005585,3
20539610339068,-1.1006985,8.968299,4.005585,3
20539612718131,-1.1006985,8.9826565,4.0151563,3
20539615097141,-1.0959128,8.963513,3.9864426,3
20539617476152,-1.0719845,8.973084,3.9768713,3
20539619855214,-1.0624132,8.997013,3.9864426,3
20539622234225,-1.0289137,9.001799,3.9720855,3
20539624613287,-1.038485,9.020942,3.9768713,3
20539626992297,-1.0289137,9.035298,3.9768713,3
20539629371360,-1.0241281,9.040084,3.9577286,3
20539631750370,-1.0145568,9.040084,3.9768713,3
20539634129433,-1.0145568,9.068798,3.9625144,3
20539636508443,-1.0241281,9.078369,3.952943,3
20539638887454,-1.0193424,9.073584,3.9481573,3
20539641266516,-1.0336994,9.064013,3.9338005,3
20539643645527,-1.0145568,9.068798,3.9481573,3
20539646024589,-1.0193424,9.073584,3.952943,3
20539648403600,-1.038485,9.068798,3.9577286,3
20539650782662,-1.0049855,9.107083,3.9625144,3
20539653161672,-0.9954142,9.126225,3.9481573,3
20539655540735,-0.9906286,9.126225,3.9625144,3
20539657919745,-0.971486,9.135797,3.9720855,3
20539660298808,-0.9619147,9.12144,3.9960139,3
20539662677818,-0.93320084,9.111869,3.9960139,3
20539665056829,-0.9379865,9.12144,3.9768713,3
20539667435891,-0.9619147,9.126225,3.9864426,3
20539669814902,-0.98584294,9.111869,3.9768713,3
20539672193964,-1.0289137,9.097511,3.991228,3
20539674572975,-1.0576276,9.092726,3.991228,3
20539676952037,-1.0959128,9.092726,4.0007997,3
20539679331047,-1.1485549,9.078369,4.019942,3
20539681710110,-1.1916257,9.064013,4.019942,3
20539684089120,-1.2442678,9.068798,4.024728,3
20539686468183,-1.3112668,9.068798,4.0295134,3
20539688847193,-1.3782659,9.0544405,4.0438704,3
20539691226204,-1.4261223,9.020942,4.048656,3
20539693605266,-1.4979069,8.992228,4.048656,3
20539695984277,-1.5457634,8.977871,4.0773697,3
20539698363339,-1.579263,8.9826565,4.063013,3
20539700742350,-1.5601203,8.968299,4.058227,3
20539703121412,-1.5888343,8.9348,4.0390844,3
20539705500422,-1.5744773,8.944371,4.048656,3
20539707879485,-1.5409778,8.968299,4.063013,3
20539710258495,-1.4787644,8.949157,4.0773697,3
20539712637558,-1.430908,8.944371,4.0534415,3
20539715016568,-1.3686945,8.939586,4.0438704,3
20539717395579,-1.2873386,8.944371,4.0438704,3
20539719774641,-1.2251252,8.953942,4.024728,3
20539722153652,-1.119841,8.958728,3.9960139,3
20539724532714,-1.052842,8.9348,4.019942,3
20539726911725,-0.9906286,8.920443,4.0295134,3
20539729290787,-0.95712906,8.9108715,4.0534415,3
20539731669797,-0.9092726,8.9108715,4.058227,3
20539734048860,-0.8709874,8.9108715,4.072584,3
20539736427870,-0.85184485,8.891729,4.072584,3
20539738806933,-0.8805587,8.891729,4.0438704,3
20539741185943,-0.91405827,8.891729,4.048656,3
20539743565006,-0.90448695,8.891729,4.0438704,3
20539745944016,-0.9284152,8.891729,4.058227,3
20539748323027,-0.93320084,8.891729,4.0773697,3
20539750702089,-0.9762716,8.886943,4.0534415,3
20539753081100,-0.9810573,8.891729,4.034299,3
20539755460162,-0.9954142,8.891729,4.034299,3
20539757839172,-0.98584294,8.9013,4.034299,3
20539760218235,-0.95712906,8.886943,4.0295134,3
20539762597245,-0.9379865,8.915657,4.0390844,3
20539764976308,-0.8997013,8.891729,4.034299,3
20539767355318,-0.83748794,8.9108715,4.0438704,3
20539769734381,-0.7896315,8.9108715,4.0390844,3
20539772113391,-0.7322037,8.925228,4.0151563,3
20539774492454,-0.6652047,8.949157,4.005585,3
20539776871464,-0.5886344,8.939586,3.9960139,3
20539779250475,-0.53599226,8.939586,4.0151563,3
20539781629537,-0.47856453,8.939586,4.0151563,3
20539784008547,-0.44506502,8.953942,4.0103707,3
20539786387610,-0.39720857,8.958728,3.9960139,3
20539788766620,-0.38285163,8.953942,4.0007997,3
20539791145683,-0.37806597,8.958728,4.0151563,3
20539793524693,-0.40677986,8.953942,4.005585,3
20539795903756,-0.44027936,8.953942,4.0007997,3
20539798282766,-0.47377887,8.949157,4.0103707,3
20539800661829,-0.5312066,8.949157,4.024728,3
20539803040787,-0.5838487,8.958728,4.024728,3
20539805419850,-0.6364908,8.958728,4.019942,3
20539807798912,-0.6939186,8.958728,4.024728,3
20539810177922,-0.7609176,8.944371,4.0390844,3
20539812556985,-0.80877405,8.944371,4.058227,3
20539814935995,-0.8566305,8.9348,4.0677986,3
20539817315058,-0.90448695,8.930014,4.034299,3
20539819694068,-0.91884387,8.9348,4.034299,3
20539822073131,-0.9523434,8.925228,4.0534415,3
20539824452141,-0.971486,8.9108715,4.0390844,3
20539826831204,-0.9619147,8.906086,4.0295134,3
20539829210214,-0.95712906,8.896515,4.0390844,3
20539831589225,-0.93320084,8.9108715,4.0534415,3
20539833968287,-0.9284152,8.886943,4.0534415,3
20539836347297,-0.89013004,8.853444,4.048656,3
20539838726360,-0.8757731,8.853444,4.0438704,3
20539841105370,-0.8422736,8.872586,4.0295134,3
20539843484433,-0.80877405,8.872586,4.0390844,3
20539845863443,-0.7704889,8.872586,4.0534415,3
20539848242506,-0.7752745,8.853444,4.024728,3
20539850621516,-0.7369894,8.877372,4.019942,3
20539853000579,-0.7369894,8.853444,4.0151563,3
20539855379589,-0.7178468,8.863015,4.019942,3
20539857758652,-0.6939186,8.877372,4.024728,3
20539860137662,-0.6891329,8.896515,4.024728,3
20539862516672,-0.6843473,8.925228,4.024728,3
20539864895735,-0.6412765,8.925228,4.005585,3
20539867274745,-0.6029913,8.9348,4.019942,3
20539869653808,-0.5455636,8.944371,4.019942,3
20539872032818,-0.4881358,8.958728,4.034299,3
20539874411881,-0.47377887,8.963513,4.0438704,3
20539876790891,-0.4211368,8.977871,4.024728,3
20539879169954,-0.41156548,8.987442,4.0007997,3
20539881548964,-0.3684947,8.963513,3.9960139,3
20539883928027,-0.3589234,8.9826565,4.0103707,3
20539886307037,-0.37328035,9.01137,4.0103707,3
20539888686100,-0.35413775,9.016156,4.0007997,3
20539891065110,-0.33499518,9.01137,3.9720855,3
20539893444120,-0.3493521,8.997013,3.9625144,3
20539895823183,-0.34456646,9.01137,3.9720855,3
20539898202193,-0.35413775,8.997013,3.9481573,3
20539900581256,-0.38285163,9.01137,3.9194436,3
20539902960266,-0.3924229,9.01137,3.9242291,3
20539905339329,-0.42592242,9.016156,3.9290147,3
20539907718339,-0.44027936,8.997013,3.9194436,3
20539910097402,-0.46899325,8.992228,3.9098723,3
20539912476412,-0.47377887,9.001799,3.9146578,3
20539914855475,-0.47856453,8.9826565,3.9098723,3
20539917234485,-0.49292147,8.9826565,3.9146578,3
20539919613547,-0.5024927,8.9826565,3.900301,3
20539921992558,-0.52163535,8.968299,3.8907297,3
20539924371568,-0.5072784,8.973084,3.8955152,3
20539926750631,-0.47856453,8.977871,3.8907297,3
20539929129641,-0.47377887,8.973084,3.885944,3
20539931508704,-0.44506502,9.001799,3.8668015,3
20539933887714,-0.4354937,8.997013,3.871587,3
20539936266777,-0.4354937,8.9826565,3.8811584,3
20539938645787,-0.38763726,9.006584,3.900301,3
20539941024850,-0.38285163,8.997013,3.8907297,3
20539943403860,-0.3684947,8.992228,3.9146578,3
20539945782922,-0.3493521,8.987442,3.9194436,3
20539948161933,-0.3493521,9.006584,3.9242291,3
20539950540995,-0.34456646,9.016156,3.9194436,3
20539952920006,-0.34456646,9.020942,3.9481573,3
20539955299016,-0.38763726,9.016156,3.9768713,3
20539957678079,-0.40677986,9.030513,3.9960139,3
20539960057089,-0.4546363,9.025727,3.9864426,3
20539962436152,-0.47856453,9.049655,3.991228,3
20539964815162,-0.5024927,9.078369,4.0151563,3
20539967194225,-0.5072784,9.0544405,4.024728,3
20539969573235,-0.4977071,9.078369,4.0534415,3
20539971952297,-0.51206404,9.092726,4.0677986,3
20539974331308,-0.52163535,9.131011,4.0773697,3
20539976710370,-0.46899325,9.169296,4.115655,3
20539979089381,-0.3924229,9.169296,4.115655,3
20539981468443,-0.31585258,9.188439,4.125226,3
20539983847454,-0.19621146,9.174082,4.1347976,3
20539986226464,-0.05742774,9.188439,4.1635113,3
20539988605527,0.13878371,9.164511,4.1443686,3
20539990984537,0.30149564,9.145369,4.1635113,3
20539993363600,0.46899325,9.097511,4.15394,3
20539995742610,0.60777694,9.073584,4.1778684,3
20539998121672,0.71306115,9.049655,4.182654,3
20540000500683,0.7369894,9.030513,4.197011,3
20540002879745,0.7465607,9.020942,4.197011,3
20540005258756,0.6795616,8.997013,4.211368,3
20540007637818,0.5455636,8.987442,4.2161536,3
20540010016829,0.37806597,9.001799,4.2257247,3
20540012395891,0.22492532,8.997013,4.240082,3
20540014774902,0.08135597,9.020942,4.287938,3
20540017153964,-0.047856454,9.035298,4.316652,3
20540019532975,-0.17706887,9.030513,4.321438,3
20540021911985,-0.25842485,9.064013,4.3070807,3
20540024291047,-0.3062813,9.064013,4.2927237,3
20540026670058,-0.29192436,9.049655,4.278367,3
20540029049120,-0.29671,9.044869,4.2687955,3
20540031428079,-0.2536392,9.0544405,4.2975097,3
20540033807193,-0.18664017,9.020942,4.2927237,3
20540036186204,-0.16271193,8.992228,4.2927237,3
20540038565266,-0.11964113,8.973084,4.273581,3
20540040944277,-0.1052842,8.968299,4.26401,3
20540043323339,-0.086141616,8.925228,4.273581,3
20540045702350,-0.1052842,8.915657,4.287938,3
20540048081360,-0.1052842,8.9013,4.2927237,3
20540050460422,-0.12921242,8.886943,4.278367,3
20540052839433,-0.16749759,8.85823,4.240082,3
20540055218495,-0.2632105,8.877372,4.23051,3
20540057597506,-0.33020952,8.891729,4.2257247,3
20540059976568,-0.38763726,8.896515,4.2352962,3
20540062355579,-0.47856453,8.906086,4.220939,3
20540064734641,-0.6029913,8.915657,4.240082,3
20540067113652,-0.7178468,8.906086,4.2017965,3
20540069492714,-0.8662018,8.930014,4.23051,3
20540071871672,-0.9236295,8.939586,4.26401,3
20540074250787,-1.0336994,8.939586,4.2592244,3
20540076629797,-1.1006985,8.944371,4.240082,3
20540079008808,-1.0863415,8.953942,4.2448673,3
20540081387870,-1.0911272,8.949157,4.254439,3
20540083766881,-1.0480564,8.9108715,4.240082,3
20540086145943,-0.9762716,8.906086,4.26401,3
20540088524954,-0.8662018,8.877372,4.2448673,3
20540090904016,-0.83748794,8.867801,4.1874394,3
20540093283027,-0.8039884,8.85823,4.1587257,3
20540095662037,-0.7322037,8.853444,4.115655,3
20540098041100,-0.6939186,8.863015,4.1108694,3
20540100420162,-0.6652047,8.891729,4.1204405,3
20540102799172,-0.6652047,8.891729,4.1587257,3
20540105178235,-0.6269195,8.920443,4.15394,3
20540107557245,-0.6221339,8.958728,4.130012,3
20540109936256,-0.60777694,8.963513,4.091727,3
20540112315318,-0.5982057,8.977871,4.072584,3
20540114694329,-0.61734825,8.997013,4.082155,3
20540117073391,-0.6556334,8.9826565,4.0869412,3
20540119452402,-0.6891329,8.9348,4.1347976,3
20540121831464,-0.7800602,8.9348,4.125226,3
20540124210475,-0.8662018,8.9108715,4.130012,3
20540126589537,-0.9523434,8.915657,4.1204405,3
20540128968547,-1.0480564,8.9013,4.1108694,3
20540131347610,-1.1102697,8.925228,4.101298,3
20540133726620,-1.1485549,8.9348,4.130012,3
20540136105683,-1.1772687,8.930014,4.1204405,3
20540138484693,-1.1820544,8.9348,4.1204405,3
20540140863756,-1.1629118,8.963513,4.0965123,3
20540143242766,-1.119841,8.977871,4.072584,3
20540145621829,-1.0719845,8.9826565,4.034299,3
20540148000839,-1.0097711,8.997013,4.058227,3
20540150379850,-0.91884387,8.997013,4.058227,3
20540152758912,-0.8662018,8.9826565,4.0534415,3
20540155137922,-0.8327023,8.9826565,4.058227,3
20540157516985,-0.79441714,8.973084,4.058227,3
20540159895995,-0.76570326,8.944371,4.0390844,3
20540162275058,-0.72741807,8.939586,4.024728,3
20540164654068,-0.72263247,8.939586,4.024728,3
20540167033131,-0.6939186,8.9348,4.0438704,3
20540169412141,-0.64606214,8.958728,4.0773697,3
20540171791152,-0.65084773,8.968299,4.0534415,3
20540174170214,-0.6412765,8.949157,4.034299,3
20540176549277,-0.6412765,8.9826565,4.024728,3
20540178928287,-0.64606214,8.973084,3.9960139,3
20540181307350,-0.66041905,8.963513,4.0151563,3
20540183686360,-0.6795616,8.949157,4.0295134,3
20540186065370,-0.7082755,8.958728,4.024728,3
20540188444433,-0.7369894,8.987442,3.9960139,3
20540190823443,-0.7369894,9.016156,3.9864426,3
20540193202506,-0.7369894,9.025727,4.005585,3
20540195581516,-0.72741807,8.9826565,3.9864426,3
20540197960579,-0.70348984,8.987442,4.0151563,3
20540200339589,-0.6843473,8.987442,4.0151563,3
20540202718652,-0.6364908,8.977871,4.0295134,3
20540205097662,-0.61734825,8.987442,4.0295134,3
20540207476725,-0.5982057,8.987442,4.0295134,3
20540209855735,-0.5982057,8.977871,4.019942,3
20540212234797,-0.5982057,8.977871,4.019942,3
20540214613808,-0.6125626,8.997013,4.0438704,3
20540216992818,-0.6029913,8.987442,4.034299,3
20540219371881,-0.5886344,8.977871,4.0390844,3
20540221750891,-0.6029913,9.001799,4.0295134,3
20540224129954,-0.61734825,9.025727,4.0295134,3
20540226508964,-0.6556334,9.01137,4.0151563,3
20540228888027,-0.6795616,9.020942,4.0295134,3
20540231267037,-0.6987042,9.020942,4.024728,3
20540233646100,-0.7082755,9.001799,4.048656,3
20540236025110,-0.7322037,8.997013,4.072584,3
20540238404172,-0.72741807,8.977871,4.063013,3
20540240783183,-0.72741807,8.958728,4.072584,3
20540243162245,-0.7178468,8.949157,4.082155,3
20540245541256,-0.7178468,8.939586,4.0869412,3
20540247920318,-0.7178468,8.925228,4.106084,3
20540250299329,-0.6891329,8.930014,4.115655,3
20540252678339,-0.6652047,8.915657,4.1204405,3
20540255057402,-0.6556334,8.925228,4.1108694,3
20540257436412,-0.6125626,8.925228,4.106084,3
20540259815475,-0.56470615,8.925228,4.0869412,3
20540262194485,-0.5312066,8.939586,4.0965123,3
20540264573547,-0.52163535,8.939586,4.139583,3
20540266952558,-0.5168497,8.915657,4.1347976,3
20540269331620,-0.5024927,8.915657,4.115655,3
20540271710631,-0.4881358,8.925228,4.1347976,3
20540274089693,-0.49292147,8.891729,4.1587257,3
20540276468704,-0.526421,8.867801,4.1491547,3
20540278847766,-0.53599226,8.9108715,4.115655,3
20540281226777,-0.5455636,8.896515,4.1491547,3
20540283605839,-0.55513483,8.886943,4.1443686,3
20540285984850,-0.5694918,8.906086,4.15394,3
20540288363860,-0.56470615,8.9013,4.139583,3
20540290742922,-0.56470615,8.906086,4.130012,3
20540293121933,-0.57906306,8.9108715,4.125226,3
20540295500995,-0.6029913,8.9013,4.125226,3
20540297880006,-0.5838487,8.9348,4.1347976,3
20540300259068,-0.5599205,8.968299,4.115655,3
20540302638079,-0.5694918,8.977871,4.1108694,3
20540305017141,-0.5407779,8.987442,4.0869412,3
20540307396152,-0.5455636,8.987442,4.0773697,3
20540309775214,-0.5168497,9.001799,4.0869412,3
20540312154225,-0.49292147,8.997013,4.1108694,3
20540314533235,-0.4977071,9.01137,4.101298,3
20540316912297,-0.4881358,9.025727,4.0773697,3
20540319291308,-0.4977071,9.040084,4.072584,3
20540321670370,-0.5168497,9.0544405,4.0677986,3
20540324049381,-0.55034924,9.049655,4.0677986,3
20540326428443,-0.5599205,9.0544405,4.0534415,3
20540328807454,-0.5886344,9.030513,4.0295134,3
20540331186516,-0.60777694,9.040084,4.0295134,3
20540333565527,-0.65084773,9.035298,4.019942,3
20540335944589,-0.6843473,9.035298,3.9960139,3
20540338323600,-0.71306115,9.035298,3.952943,3
20540340702610,-0.7465607,9.030513,3.9433718,3
20540343081672,-0.76570326,9.030513,3.938586,3
20540345460735,-0.7848458,9.030513,3.9242291,3
20540347839745,-0.80877405,9.020942,3.9194436,3
20540350218808,-0.81834537,9.030513,3.9050865,3
20540352597818,-0.79441714,8.997013,3.9050865,3
20540354976881,-0.81834537,8.997013,3.8955152,3
20540357355891,-0.81834537,8.997013,3.8811584,3
20540359734902,-0.8135597,8.987442,3.8811584,3
20540362113964,-0.79441714,8.992228,3.8524444,3
20540364492975,-0.79920274,8.977871,3.842873,3
20540366872037,-0.7704889,8.987442,3.8333018,3
20540369251047,-0.7609176,8.9826565,3.8333018,3
20540371630110,-0.7752745,8.9826565,3.8380876,3
20540374009120,-0.7800602,8.987442,3.8380876,3
20540376388183,-0.7848458,8.977871,3.8333018,3
20540378767193,-0.79441714,9.016156,3.818945,3
20540381146256,-0.8327023,9.044869,3.804588,3
20540383525266,-0.8422736,9.035298,3.8093736,3
20540385904329,-0.8566305,9.049655,3.804588,3
20540388283339,-0.8805587,9.059227,3.7998023,3
20540390662402,-0.89013004,9.073584,3.8333018,3
20540393041412,-0.8805587,9.068798,3.8380876,3
20540395420422,-0.8853444,9.064013,3.8380876,3
20540397799485,-0.89013004,9.08794,3.8237305,3
20540400178495,-0.89491564,9.083155,3.842873,3
20540402557558,-0.85184485,9.083155,3.8237305,3
20540404936568,-0.82313097,9.083155,3.8285162,3
20540407315631,-0.8135597,9.116654,3.8380876,3
20540409694641,-0.76570326,9.111869,3.8476589,3
20540412073704,-0.7369894,9.097511,3.8620157,3
20540414452714,-0.7082755,9.111869,3.8668015,3
20540416831777,-0.6652047,9.111869,3.871587,3
20540419210787,-0.6221339,9.097511,3.8620157,3
20540421589850,-0.57906306,9.083155,3.871587,3
20540423968860,-0.5599205,9.08794,3.8620157,3
20540426347922,-0.5312066,9.078369,3.8763726,3
20540428726881,-0.5168497,9.064013,3.900301,3
20540431105943,-0.526421,9.044869,3.885944,3
20540433485006,-0.53599226,9.044869,3.8907297,3
20540435864016,-0.57906306,9.044869,3.9098723,3
20540438243079,-0.5599205,9.049655,3.9050865,3
20540440622089,-0.5694918,9.049655,3.9242291,3
20540443001152,-0.6221339,9.040084,3.9433718,3
20540445380162,-0.61734825,9.01137,3.952943,3
20540447759225,-0.61734825,8.997013,3.9720855,3
20540450138235,-0.6221339,9.01137,3.9864426,3
20540452517297,-0.6364908,9.020942,3.9864426,3
20540454896308,-0.6364908,9.016156,3.9625144,3
20540457275370,-0.63170516,8.992228,3.9816568,3
20540459654381,-0.65084773,8.997013,4.0007997,3
20540462033443,-0.63170516,8.992228,4.0007997,3
20540464412454,-0.6269195,9.016156,4.005585,3
20540466791516,-0.6364908,8.992228,4.019942,3
20540469170527,-0.63170516,8.977871,4.034299,3
20540471549537,-0.6269195,8.968299,4.0438704,3
20540473928600,-0.6221339,8.958728,4.058227,3
20540476307610,-0.60777694,8.953942,4.072584,3
20540478686672,-0.6364908,8.944371,4.0965123,3
20540481065631,-0.64606214,8.958728,4.091727,3
20540483444745,-0.6556334,8.944371,4.082155,3
20540485823756,-0.6795616,8.9108715,4.091727,3
20540488202818,-0.7178468,8.939586,4.0965123,3
20540490581829,-0.7513463,8.963513,4.101298,3
20540492960891,-0.7752745,8.953942,4.0965123,3
20540495339902,-0.7896315,8.9348,4.115655,3
20540497718964,-0.80877405,8.949157,4.1204405,3
20540500097975,-0.81834537,8.953942,4.1108694,3
20540502476985,-0.82313097,8.963513,4.115655,3
20540504856047,-0.81834537,8.968299,4.1347976,3
20540507235058,-0.82313097,8.973084,4.1347976,3
20540509614120,-0.8135597,8.968299,4.1204405,3
20540511993131,-0.7848458,8.963513,4.1443686,3
20540514372193,-0.7513463,8.949157,4.1347976,3
20540516751204,-0.72263247,8.958728,4.1443686,3
20540519130266,-0.7082755,8.953942,4.1443686,3
20540521509277,-0.6891329,8.958728,4.1491547,3
20540523888339,-0.6939186,8.958728,4.139583,3
20540526267350,-0.66041905,8.949157,4.125226,3
20540528646412,-0.6221339,8.949157,4.1204405,3
20540531025422,-0.6221339,8.949157,4.115655,3
20540533404485,-0.6125626,8.939586,4.125226,3
20540535783495,-0.6221339,8.953942,4.1204405,3
20540538162558,-0.63170516,8.973084,4.125226,3
20540540541568,-0.67477596,8.958728,4.139583,3
20540542920631,-0.6891329,8.977871,4.1204405,3
20540545299641,-0.70348984,8.9826565,4.115655,3
20540547678652,-0.71306115,8.973084,4.139583,3
20540550057714,-0.7369894,8.977871,4.115655,3
20540552436777,-0.7704889,8.977871,4.1204405,3
20540554815787,-0.7848458,8.987442,4.1204405,3
20540557194797,-0.7848458,8.997013,4.1204405,3
20540559573860,-0.79920274,8.992228,4.1204405,3
20540561952870,-0.79920274,8.987442,4.106084,3
20540564331933,-0.8039884,8.968299,4.106084,3
20540566710943,-0.80877405,8.973084,4.101298,3
20540569090006,-0.7896315,8.963513,4.091727,3
20540571469016,-0.7848458,8.987442,4.0773697,3
20540573848079,-0.7896315,8.992228,4.082155,3
20540576227089,-0.7513463,8.968299,4.072584,3
20540578606152,-0.72741807,8.973084,4.048656,3
20540580985162,-0.6939186,8.968299,4.0438704,3
20540583364225,-0.64606214,8.973084,4.024728,3
20540585743235,-0.6412765,8.977871,4.034299,3
20540588122245,-0.6412765,9.001799,4.048656,3
20540590501308,-0.63170516,8.992228,4.0438704,3
20540592880318,-0.66041905,8.977871,4.0295134,3
20540595259381,-0.66041905,8.987442,4.019942,3
20540597638391,-0.6652047,8.992228,4.019942,3
20540600017454,-0.71306115,8.9826565,4.0390844,3
20540602396464,-0.7322037,8.977871,4.0390844,3
20540604775527,-0.74177504,8.977871,4.0438704,3
20540607154537,-0.76570326,8.963513,4.034299,3
20540609533600,-0.80877405,8.968299,4.0677986,3
20540611912610,-0.83748794,8.9826565,4.0534415,3
20540614291672,-0.8709874,8.9826565,4.0438704,3
20540616670683,-0.8709874,8.992228,4.024728,3
20540619049745,-0.8662018,8.973084,4.0390844,3
20540621428756,-0.8853444,8.9826565,4.0438704,3
20540623807818,-0.8853444,8.968299,4.0295134,3
20540626186829,-0.8566305,8.968299,4.034299,3
20540628565891,-0.8470592,8.968299,4.0295134,3
20540630944902,-0.82313097,8.963513,4.058227,3
20540633323964,-0.8039884,8.958728,4.048656,3
20540635702975,-0.76570326,8.949157,4.0773697,3
20540638081985,-0.7369894,8.925228,4.0965123,3
20540640461047,-0.6891329,8.930014,4.063013,3
20540642840058,-0.67477596,8.9348,4.058227,3
20540645219120,-0.6556334,8.944371,4.063013,3
20540647598131,-0.6125626,8.9348,4.072584,3
20540649977193,-0.6125626,8.949157,4.0677986,3
20540652356204,-0.60777694,8.930014,4.0677986,3
20540654735266,-0.6269195,8.925228,4.058227,3
20540657114277,-0.63170516,8.949157,4.0773697,3
20540659493339,-0.63170516,8.939586,4.091727,3
20540661872350,-0.66041905,8.949157,4.101298,3
20540664251412,-0.72263247,8.953942,4.1108694,3
20540666630422,-0.7704889,8.949157,4.115655,3
20540669009485,-0.80877405,8.968299,4.1443686,3
20540671388495,-0.8470592,8.949157,4.139583,3
20540673767506,-0.81834537,8.973084,4.130012,3
20540676146568,-0.82313097,8.977871,4.1347976,3
20540678525579,-0.81834537,8.963513,4.1347976,3
20540680904641,-0.82313097,8.930014,4.1443686,3
20540683283652,-0.81834537,8.930014,4.1587257,3
20540685662714,-0.7800602,8.949157,4.1635113,3
20540688041725,-0.7704889,8.939586,4.1587257,3
20540690420787,-0.72741807,8.949157,4.15394,3
20540692799797,-0.6843473,8.920443,4.15394,3
20540695178860,-0.6556334,8.9108715,4.1443686,3
20540697557870,-0.6221339,8.891729,4.115655,3
20540699936933,-0.60777694,8.896515,4.115655,3
20540702315943,-0.5694918,8.896515,4.106084,3
20540704695006,-0.55034924,8.896515,4.0965123,3
20540707074016,-0.52163535,8.906086,4.091727,3
20540709453079,-0.51206404,8.9108715,4.0869412,3
20540711832089,-0.51206404,8.882157,4.091727,3
20540714211152,-0.526421,8.886943,4.082155,3
20540716590162,-0.5455636,8.886943,4.0869412,3
20540718969172,-0.5407779,8.877372,4.0677986,3
20540721348235,-0.57906306,8.886943,4.0773697,3
20540723727245,-0.61734825,8.896515,4.0773697,3
20540726106308,-0.6269195,8.9108715,4.0677986,3
20540728485318,-0.65084773,8.9108715,4.0677986,3
20540730864329,-0.66999036,8.925228,4.0534415,3
20540733243391,-0.6891329,8.920443,4.0677986,3
20540735622454,-0.6987042,8.944371,4.082155,3
20540738001464,-0.6987042,8.958728,4.082155,3
20540740380527,-0.66999036,8.963513,4.0869412,3
20540742759537,-0.66041905,8.958728,4.091727,3
20540745138600,-0.6269195,8.977871,4.082155,3
20540747517610,-0.5886344,8.9826565,4.072584,3
20540749896672,-0.57427746,9.001799,4.0677986,3
20540752275683,-0.51206404,8.992228,4.063013,3
20540754654745,-0.5024927,8.992228,4.0438704,3
20540757033756,-0.44985065,9.006584,4.0534415,3
20540759412818,-0.41156548,9.001799,4.058227,3
20540761791829,-0.37806597,9.01137,4.058227,3
20540764170891,-0.3397808,9.01137,4.0677986,3
20540766549902,-0.33020952,9.030513,4.072584,3
20540768928912,-0.31106696,9.030513,4.058227,3
20540771307975,-0.30149564,9.035298,4.063013,3
20540773686985,-0.30149564,9.0544405,4.0965123,3
20540776065995,-0.28713873,9.059227,4.0773697,3
20540778445006,-0.29671,9.049655,4.063013,3
20540780824120,-0.3062813,9.049655,4.072584,3
20540783203131,-0.33020952,9.059227,4.0534415,3
20540785582193,-0.34456646,9.064013,4.063013,3
20540787961204,-0.3493521,9.049655,4.0677986,3
20540790340266,-0.36370903,9.044869,4.058227,3
20540792719277,-0.3493521,9.049655,4.0534415,3
20540795098339,-0.34456646,9.025727,4.0534415,3
20540797477350,-0.36370903,9.025727,4.048656,3
20540799856412,-0.34456646,9.020942,4.063013,3
20540802235422,-0.3684947,9.006584,4.0534415,3
20540804614485,-0.3397808,8.992228,4.048656,3
20540806993495,-0.28713873,9.01137,4.063013,3
20540809372558,-0.28713873,9.006584,4.072584,3
20540811751568,-0.3062813,9.01137,4.072584,3
20540814130579,-0.28235307,8.9826565,4.0773697,3
20540816509641,-0.27756742,8.997013,4.082155,3
20540818888652,-0.2632105,9.016156,4.091727,3
20540821267662,-0.23449662,8.992228,4.072584,3
20540823646725,-0.26799613,8.997013,4.063013,3
20540826025735,-0.2632105,8.987442,4.0773697,3
20540828404797,-0.2727818,8.992228,4.0773697,3
20540830783860,-0.29671,8.987442,4.0773697,3
20540833162818,-0.31585258,8.977871,4.0965123,3
20540835541933,-0.35413775,8.958728,4.1204405,3
20540837920943,-0.39720857,8.968299,4.1108694,3
20540840300006,-0.40677986,8.949157,4.091727,3
20540842679016,-0.46899325,8.949157,4.0773697,3
20540845058079,-0.5072784,8.944371,4.091727,3
20540847437089,-0.5599205,8.949157,4.0965123,3
20540849816152,-0.55513483,8.953942,4.101298,3
20540852195162,-0.5886344,8.920443,4.091727,3
20540854574225,-0.59342,8.963513,4.0869412,3
20540856953183,-0.6221339,8.953942,4.082155,3
20540859332297,-0.63170516,8.949157,4.082155,3
20540861711204,-0.6412765,8.939586,4.082155,3
20540864090370,-0.63170516,8.949157,4.0965123,3
20540866469381,-0.63170516,8.944371,4.0965123,3
20540868848391,-0.63170516,8.949157,4.0773697,3
20540871227558,-0.6221339,8.9348,4.058227,3
20540873606464,-0.6125626,8.949157,4.072584,3
20540875985527,-0.6029913,8.977871,4.0773697,3
20540878364537,-0.59342,8.958728,4.0677986,3
20540880743600,-0.59342,8.968299,4.0677986,3
20540883122610,-0.5982057,8.953942,4.0677986,3
20540885501672,-0.57427746,8.944371,4.058227,3
20540887880683,-0.57906306,8.963513,4.0534415,3
20540890259745,-0.5838487,8.958728,4.0534415,3
20540892638756,-0.5886344,8.9348,4.019942,3
20540895017818,-0.59342,8.953942,4.0295134,3
20540897396829,-0.59342,8.963513,4.0295134,3
20540899775891,-0.6269195,8.973084,4.024728,3
20540902154902,-0.63170516,8.968299,4.0438704,3
20540904533964,-0.66041905,8.968299,4.024728,3
20540906912975,-0.67477596,8.953942,4.0534415,3
20540909292037,-0.72263247,8.968299,4.0438704,3
20540911671047,-0.71306115,8.977871,4.0390844,3
20540914050058,-0.7369894,8.987442,4.0390844,3
20540916429120,-0.7322037,8.997013,4.0438704,3
20540918808131,-0.70348984,8.987442,4.0390844,3
20540921187193,-0.70348984,8.9826565,4.0438704,3
20540923566204,-0.6891329,8.987442,4.058227,3
20540925945266,-0.6795616,9.016156,4.0677986,3
20540928324277,-0.66041905,8.997013,4.0773697,3
20540930703339,-0.6652047,9.020942,4.058227,3
20540933082350,-0.66041905,9.016156,4.048656,3
20540935461412,-0.6412765,9.020942,4.048656,3
20540937840422,-0.6221339,8.992228,4.058227,3
20540940219485,-0.6221339,8.973084,4.063013,3
20540942598495,-0.6269195,8.973084,4.072584,3
20540944977558,-0.65084773,8.977871,4.0677986,3
20540947356568,-0.6556334,8.987442,4.091727,3
20540949735631,-0.66041905,8.992228,4.106084,3
20540952114641,-0.6843473,8.9826565,4.0965123,3
20540954493704,-0.71306115,8.977871,4.0869412,3
20540956872714,-0.7369894,8.973084,4.082155,3
20540959251777,-0.7848458,8.9826565,4.1108694,3
20540961630787,-0.80877405,8.992228,4.1204405,3
20540964009797,-0.8422736,8.9826565,4.139583,3
20540966388860,-0.86141616,8.9826565,4.1443686,3
20540968767870,-0.8709874,8.9826565,4.1491547,3
20540971146933,-0.8757731,9.001799,4.15394,3
20540973525943,-0.9092726,9.006584,4.1587257,3
20540975905006,-0.89491564,8.977871,4.182654,3
20540978284016,-0.8805587,8.968299,4.182654,3
20540980663079,-0.89013004,8.944371,4.1922255,3
20540983042089,-0.86141616,8.9348,4.1874394,3
20540985421152,-0.8757731,8.9348,4.197011,3
20540987800162,-0.85184485,8.930014,4.211368,3
20540990179225,-0.8039884,8.925228,4.206582,3
20540992558235,-0.7609176,8.920443,4.1922255,3
20540994937297,-0.7322037,8.930014,4.197011,3
20540997316308,-0.66999036,8.915657,4.2161536,3
20540999695370,-0.66041905,8.906086,4.23051,3
20541002074381,-0.6125626,8.891729,4.220939,3
20541004453443,-0.6029913,8.9013,4.206582,3
20541006832454,-0.6125626,8.906086,4.211368,3
20541009211516,-0.5982057,8.9013,4.2448673,3
20541011590527,-0.5838487,8.882157,4.2352962,3
20541013969589,-0.5886344,8.886943,4.2161536,3
20541016348600,-0.5886344,8.891729,4.2161536,3
20541018727662,-0.57427746,8.877372,4.23051,3
20541021106672,-0.57906306,8.882157,4.2352962,3
20541023485735,-0.57906306,8.886943,4.220939,3
20541025864745,-0.61734825,8.877372,4.2448673,3
20541028243756,-0.65084773,8.882157,4.26401,3
20541030622818,-0.66999036,8.867801,4.273581,3
20541033001829,-0.6652047,8.872586,4.2687955,3
20541035380891,-0.6939186,8.872586,4.278367,3
20541037759902,-0.66041905,8.867801,4.2448673,3
20541040138964,-0.66999036,8.843872,4.2592244,3
20541042517975,-0.64606214,8.848659,4.249653,3
20541044897037,-0.6412765,8.853444,4.249653,3
20541047276047,-0.6364908,8.863015,4.2352962,3
20541049655110,-0.63170516,8.867801,4.240082,3
20541052034120,-0.63170516,8.882157,4.23051,3
20541054413183,-0.6364908,8.882157,4.211368,3
20541056792193,-0.6269195,8.882157,4.2161536,3
20541059171256,-0.63170516,8.867801,4.23051,3
20541061550266,-0.6269195,8.882157,4.2352962,3
20541063929329,-0.6412765,8.877372,4.2352962,3
20541066308339,-0.6221339,8.9013,4.211368,3
20541068687402,-0.64606214,8.872586,4.220939,3
20541071066412,-0.6412765,8.877372,4.240082,3
20541073445475,-0.6652047,8.9013,4.23051,3
20541075824485,-0.6652047,8.9108715,4.220939,3
20541078203495,-0.66999036,8.896515,4.240082,3
20541080582558,-0.6891329,8.9108715,4.240082,3
20541082961620,-0.6843473,8.920443,4.2592244,3
20541085340631,-0.6939186,8.920443,4.26401,3
20541087719641,-0.7082755,8.925228,4.249653,3
20541090098704,-0.71306115,8.906086,4.249653,3
20541092477714,-0.70348984,8.9013,4.2592244,3
20541094856777,-0.7178468,8.925228,4.2592244,3
20541097235787,-0.71306115,8.896515,4.2352962,3
20541099614850,-0.6795616,8.877372,4.23051,3
20541101993860,-0.6795616,8.915657,4.23051,3
20541104372922,-0.66999036,8.891729,4.220939,3
20541106751933,-0.6795616,8.863015,4.23051,3
20541109130995,-0.6891329,8.886943,4.220939,3
20541111510006,-0.6795616,8.877372,4.2257247,3
20541113889068,-0.6652047,8.867801,4.23051,3
20541116268079,-0.6556334,8.9013,4.2161536,3
20541118647141,-0.66999036,8.877372,4.2161536,3
20541121026152,-0.6891329,8.872586,4.220939,3
20541123405214,-0.6939186,8.882157,4.211368,3
20541125784225,-0.6891329,8.891729,4.220939,3
20541128163287,-0.71306115,8.886943,4.2161536,3
20541130542297,-0.72741807,8.9013,4.220939,3
20541132921360,-0.72741807,8.9013,4.2161536,3
20541135300370,-0.7322037,8.915657,4.2017965,3
20541137679433,-0.7322037,8.939586,4.206582,3
20541140058443,-0.72263247,8.939586,4.182654,3
20541142437402,-0.7322037,8.944371,4.2017965,3
20541144816516,-0.72741807,8.944371,4.197011,3
20541147195527,-0.7322037,8.9348,4.1922255,3
20541149574589,-0.72263247,8.939586,4.197011,3
20541151953600,-0.6987042,8.963513,4.197011,3
20541154332662,-0.6987042,8.963513,4.1778684,3
20541156711672,-0.6987042,8.963513,4.182654,3
20541159090735,-0.67477596,8.958728,4.173083,3
20541161469745,-0.67477596,8.953942,4.1587257,3
20541163848808,-0.66999036,8.939586,4.1491547,3
20541166227818,-0.6652047,8.939586,4.1443686,3
20541168606881,-0.66041905,8.968299,4.1443686,3
20541170985891,-0.65084773,8.973084,4.139583,3
20541173364954,-0.6556334,8.9826565,4.130012,3
20541175743964,-0.6412765,8.997013,4.1108694,3
20541178123027,-0.66041905,8.987442,4.130012,3
20541180502037,-0.66041905,8.973084,4.106084,3
20541182881100,-0.6556334,8.992228,4.101298,3
20541185260110,-0.6221339,8.977871,4.082155,3
20541187639172,-0.63170516,9.001799,4.091727,3
20541190018183,-0.6412765,8.973084,4.091727,3
20541192397193,-0.6364908,8.963513,4.082155,3
20541194776256,-0.64606214,8.968299,4.072584,3
20541197155318,-0.64606214,8.968299,4.082155,3
20541199534329,-0.6269195,8.977871,4.072584,3
20541201913339,-0.61734825,8.958728,4.0677986,3
20541204292402,-0.6125626,8.968299,4.0534415,3
20541206671412,-0.5982057,8.987442,4.0438704,3
20541209050475,-0.57906306,8.9826565,4.0390844,3
20541211429485,-0.5838487,8.968299,4.019942,3
20541213808547,-0.57427746,8.997013,4.024728,3
20541216187558,-0.56470615,9.01137,4.019942,3
20541218566620,-0.5407779,9.006584,4.0151563,3
20541220945631,-0.52163535,9.01137,4.019942,3
20541223324693,-0.52163535,9.016156,4.0151563,3
20541225703704,-0.5168497,8.977871,3.9960139,3
20541228082766,-0.51206404,8.973084,3.991228,3
20541230461777,-0.5024927,8.9826565,4.0103707,3
20541232840839,-0.5024927,8.987442,4.0007997,3
20541235219850,-0.5312066,8.987442,3.991228,3
20541237598912,-0.5312066,8.987442,4.005585,3
20541239977922,-0.52163535,8.973084,3.991228,3
20541242356985,-0.5024927,8.992228,3.9816568,3
20541244735995,-0.51206404,9.001799,3.9816568,3
20541247115058,-0.5168497,8.968299,3.9864426,3
20541249494068,-0.52163535,8.953942,3.991228,3
20541251873131,-0.5455636,8.949157,3.9864426,3
20541254252141,-0.526421,8.968299,3.991228,3
20541256631204,-0.53599226,8.968299,3.9816568,3
20541259010214,-0.5312066,8.958728,3.9625144,3
20541261389277,-0.5312066,8.944371,3.9625144,3
20541263768287,-0.53599226,8.944371,3.952943,3
20541266147350,-0.51206404,8.953942,3.9720855,3
20541268526360,-0.52163535,8.944371,3.9768713,3
20541270905370,-0.5599205,8.968299,3.9816568,3
20541273284433,-0.5455636,8.968299,3.9577286,3
20541275663443,-0.5455636,8.953942,3.9720855,3
20541278042506,-0.5312066,8.9826565,3.9673,3
20541280421516,-0.5694918,8.9826565,3.9768713,3
20541282800579,-0.5407779,8.977871,3.991228,3
20541285179589,-0.55034924,8.992228,3.9816568,3
20541287558652,-0.56470615,9.006584,3.991228,3
20541289937662,-0.5694918,9.016156,3.9960139,3
20541292316725,-0.57906306,9.001799,3.9768713,3
20541294695735,-0.5694918,9.001799,3.991228,3
20541297074797,-0.56470615,8.977871,3.9960139,3
20541299453808,-0.5838487,8.997013,4.0007997,3
20541301832870,-0.60777694,9.006584,3.991228,3
20541304211881,-0.5982057,9.001799,4.005585,3
20541306590943,-0.5838487,9.020942,4.024728,3
20541308969954,-0.56470615,9.016156,4.0295134,3
20541311349016,-0.5694918,8.997013,4.0390844,3
20541313728027,-0.56470615,9.030513,4.034299,3
20541316107089,-0.5407779,9.035298,4.0390844,3
20541318486100,-0.526421,9.025727,4.0390844,3
20541320865162,-0.5024927,9.016156,4.0534415,3
20541323244172,-0.4977071,9.006584,4.058227,3
20541325623183,-0.47856453,9.01137,4.063013,3
20541328002245,-0.47377887,9.001799,4.048656,3
20541330381308,-0.44506502,9.001799,4.058227,3
20541332760318,-0.4211368,9.01137,4.0773697,3
20541335139381,-0.41635114,8.997013,4.082155,3
20541337518391,-0.42592242,9.001799,4.091727,3
20541339897402,-0.41635114,9.01137,4.101298,3
20541342276464,-0.41635114,9.006584,4.0965123,3
20541344655475,-0.40677986,8.997013,4.101298,3
20541347034537,-0.4211368,8.997013,4.1108694,3
20541349413547,-0.40677986,8.997013,4.1347976,3
20541351792610,-0.39720857,8.997013,4.1204405,3
20541354171620,-0.44506502,8.987442,4.115655,3
20541356550683,-0.4354937,8.997013,4.130012,3
20541358929693,-0.4211368,9.001799,4.1347976,3
20541361308756,-0.41635114,8.992228,4.130012,3
20541363687766,-0.4354937,8.977871,4.130012,3
20541366066829,-0.39720857,8.9826565,4.139583,3
20541368445839,-0.38285163,8.997013,4.1443686,3
20541370824902,-0.3924229,8.968299,4.1491547,3
20541373203912,-0.37806597,8.968299,4.1491547,3
20541375582975,-0.3684947,8.968299,4.1587257,3
20541377961985,-0.3589234,8.953942,4.139583,3
20541380341047,-0.3397808,8.949157,4.125226,3
20541382720058,-0.33499518,8.958728,4.1204405,3
20541385099120,-0.33020952,8.963513,4.1204405,3
20541387478131,-0.31585258,8.939586,4.1204405,3
20541389857193,-0.31585258,8.920443,4.1204405,3
20541392236204,-0.33020952,8.949157,4.125226,3
20541394615266,-0.33020952,8.930014,4.1347976,3
20541396994277,-0.33499518,8.925228,4.139583,3
20541399373339,-0.34456646,8.925228,4.130012,3
20541401752350,-0.36370903,8.930014,4.130012,3
20541404131412,-0.38285163,8.920443,4.1347976,3
20541406510422,-0.3589234,8.9013,4.115655,3
20541408889433,-0.37328035,8.920443,4.1108694,3
20541411268495,-0.3924229,8.915657,4.115655,3
20541413647506,-0.41156548,8.915657,4.125226,3
20541416026568,-0.4019942,8.896515,4.1347976,3
20541418405579,-0.41156548,8.891729,4.130012,3
20541420784589,-0.42592242,8.896515,4.125226,3
20541423163652,-0.39720857,8.891729,4.125226,3
20541425542714,-0.41156548,8.920443,4.115655,3
20541427921725,-0.3924229,8.9108715,4.125226,3
20541430300787,-0.3684947,8.9108715,4.1204405,3
20541432679797,-0.3589234,8.915657,4.1108694,3
20541435058860,-0.37806597,8.906086,4.091727,3
20541437437870,-0.38285163,8.9348,4.101298,3
20541439816933,-0.38763726,8.915657,4.115655,3
20541442195943,-0.36370903,8.915657,4.091727,3
20541444575006,-0.3493521,8.925228,4.101298,3
20541446954016,-0.3589234,8.9348,4.091727,3
20541449333079,-0.3684947,8.9348,4.0869412,3
20541451712089,-0.3924229,8.944371,4.0773697,3
20541454091152,-0.41156548,8.958728,4.0869412,3
20541456470162,-0.41635114,8.944371,4.091727,3
20541458849225,-0.40677986,8.963513,4.0773697,3
20541461228235,-0.4546363,8.963513,4.091727,3
20541463607297,-0.47856453,8.958728,4.0965123,3
20541465986308,-0.4642076,8.953942,4.0773697,3
20541468365370,-0.47856453,8.953942,4.0773697,3
20541470744381,-0.49292147,8.973084,4.0677986,3
20541473123443,-0.4977071,8.963513,4.063013,3
20541475502454,-0.5168497,8.958728,4.048656,3
20541477881516,-0.5407779,8.949157,4.0534415,3
20541480260527,-0.55513483,8.944371,4.058227,3
20541482639589,-0.55034924,8.953942,4.0534415,3
20541485018600,-0.57427746,8.958728,4.063013,3
20541487397610,-0.5886344,8.977871,4.0773697,3
20541489776672,-0.61734825,8.9826565,4.0677986,3
20541492155683,-0.6412765,8.997013,4.072584,3
20541494534745,-0.64606214,8.997013,4.063013,3
20541496913756,-0.6556334,8.997013,4.0773697,3
20541499292818,-0.6795616,9.001799,4.0677986,3
20541501671829,-0.6939186,8.997013,4.0534415,3
20541504050891,-0.7322037,9.020942,4.0677986,3
20541506429902,-0.75613195,9.01137,4.0677986,3
20541508808964,-0.7704889,9.016156,4.058227,3
20541511187975,-0.79441714,9.020942,4.0534415,3
20541513567037,-0.79920274,9.001799,4.0534415,3
20541515946047,-0.81834537,9.01137,4.058227,3
20541518325110,-0.81834537,9.01137,4.063013,3
20541520704120,-0.8279166,9.001799,4.048656,3
20541523083183,-0.8279166,9.01137,4.0438704,3
20541525462193,-0.8135597,9.01137,4.058227,3
20541527841256,-0.8135597,8.9826565,4.063013,3
20541530220266,-0.81834537,9.01137,4.0534415,3
20541532599329,-0.7704889,9.030513,4.048656,3
20541534978339,-0.7369894,8.997013,4.058227,3
20541537357402,-0.71306115,9.006584,4.058227,3
20541539736412,-0.6939186,9.01137,4.048656,3
20541542115475,-0.6843473,9.006584,4.034299,3
20541544494485,-0.67477596,8.992228,4.0438704,3
20541546873547,-0.6364908,8.992228,4.0295134,3
20541549252558,-0.6412765,8.997013,4.034299,3
20541551631620,-0.61734825,8.977871,4.0438704,3
20541554010579,-0.5982057,8.9826565,4.034299,3
20541556389693,-0.59342,8.977871,4.0390844,3
20541558768704,-0.60777694,8.963513,4.048656,3
20541561147766,-0.6221339,8.968299,4.0438704,3
20541563526777,-0.61734825,8.968299,4.0438704,3
20541565905839,-0.6364908,8.958728,4.019942,3
20541568284850,-0.6029913,8.958728,4.019942,3
20541570663912,-0.59342,8.973084,4.0438704,3
20541573042922,-0.59342,8.9826565,4.034299,3
20541575421933,-0.6029913,8.992228,4.063013,3
20541577800995,-0.6029913,8.968299,4.034299,3
20541580180006,-0.61734825,8.9826565,4.0390844,3
20541582559016,-0.6269195,8.992228,4.024728,3
20541584938079,-0.63170516,8.973084,4.0390844,3
20541587317141,-0.61734825,8.9826565,4.0390844,3
20541589696152,-0.6221339,8.977871,4.0438704,3
20541592075214,-0.61734825,8.953942,4.0390844,3
20541594454225,-0.61734825,8.939586,4.048656,3
20541596833287,-0.63170516,8.939586,4.0677986,3
20541599212297,-0.6221339,8.963513,4.0677986,3
20541601591360,-0.63170516,8.992228,4.0677986,3
20541603970370,-0.6269195,8.9826565,4.063013,3
20541606349433,-0.6412765,8.973084,4.058227,3
20541608728443,-0.67477596,8.973084,4.0677986,3
20541611107506,-0.6652047,8.997013,4.0534415,3
20541613486516,-0.6652047,8.987442,4.063013,3
20541615865579,-0.6795616,9.001799,4.072584,3
20541618244589,-0.7178468,9.020942,4.0677986,3
20541620623652,-0.7465607,9.01137,4.063013,3
20541623002662,-0.7465607,8.992228,4.082155,3
20541625381725,-0.74177504,8.987442,4.0773697,3
20541627760683,-0.7513463,8.987442,4.0677986,3
20541630139797,-0.7465607,8.987442,4.0773697,3
20541632518808,-0.7369894,9.001799,4.0773697,3
20541634897870,-0.7178468,8.9826565,4.082155,3
20541637276881,-0.7082755,8.958728,4.082155,3
20541639655943,-0.70348984,8.963513,4.0534415,3
20541642034954,-0.6795616,8.958728,4.058227,3
20541644414016,-0.6652047,8.958728,4.072584,3
20541646793027,-0.65084773,8.953942,4.082155,3
20541649172089,-0.63170516,8.958728,4.063013,3
20541651551100,-0.6269195,8.953942,4.082155,3
20541653930162,-0.60777694,8.963513,4.0869412,3
20541656309172,-0.57906306,8.968299,4.063013,3
20541658688183,-0.5599205,8.944371,4.058227,3
20541661067245,-0.5455636,8.939586,4.0677986,3
20541663446308,-0.5599205,8.920443,4.0534415,3
20541665825318,-0.57427746,8.925228,4.0534415,3
20541668204381,-0.5599205,8.953942,4.0869412,3
20541670583339,-0.57427746,8.963513,4.072584,3
20541672962402,-0.57427746,8.968299,4.072584,3
20541675341464,-0.59342,8.953942,4.082155,3
20541677720475,-0.59342,8.9826565,4.0869412,3
20541680099537,-0.5982057,8.987442,4.082155,3
20541682478495,-0.6125626,8.973084,4.082155,3
20541684857610,-0.6221339,8.958728,4.0965123,3
20541687236620,-0.65084773,8.953942,4.0965123,3
20541689615683,-0.6556334,8.944371,4.091727,3
20541691994693,-0.6556334,8.953942,4.082155,3
20541694373756,-0.67477596,8.953942,4.0965123,3
20541696752766,-0.6269195,8.968299,4.082155,3
20541699131829,-0.6269195,8.958728,4.082155,3
20541701510839,-0.63170516,8.977871,4.091727,3
20541703889902,-0.6221339,8.997013,4.0965123,3
20541706268912,-0.61734825,8.987442,4.0965123,3
20541708647975,-0.60777694,8.973084,4.0773697,3
20541711026985,-0.6029913,8.973084,4.091727,3
20541713406047,-0.6029913,8.977871,4.1108694,3
20541715785058,-0.57427746,8.973084,4.106084,3
20541718164120,-0.59342,8.968299,4.101298,3
20541720543131,-0.59342,8.958728,4.1347976,3
20541722922193,-0.59342,8.953942,4.139583,3
20541725301204,-0.59342,8.939586,4.130012,3
20541727680266,-0.57906306,8.958728,4.1204405,3
20541730059277,-0.5886344,8.973084,4.130012,3
20541732438339,-0.57427746,8.958728,4.1347976,3
20541734817350,-0.57906306,8.963513,4.115655,3
20541737196412,-0.59342,8.939586,4.125226,3
20541739575422,-0.5982057,8.944371,4.1443686,3
20541741954485,-0.5886344,8.958728,4.139583,3
20541744333495,-0.59342,8.968299,4.125226,3
20541746712558,-0.6029913,8.9826565,4.139583,3
20541749091568,-0.6221339,8.958728,4.1587257,3
20541751470631,-0.6029913,8.958728,4.168297,3
20541753849641,-0.59342,8.968299,4.168297,3
20541756228704,-0.61734825,8.968299,4.182654,3
20541758607714,-0.6221339,8.977871,4.1635113,3
20541760986777,-0.6364908,8.968299,4.173083,3
20541763365787,-0.6125626,8.963513,4.15394,3
20541765744850,-0.6364908,8.968299,4.1635113,3
20541768123860,-0.6221339,8.963513,4.1635113,3
20541770502922,-0.6029913,8.963513,4.168297,3
20541772881933,-0.60777694,8.977871,4.1491547,3
20541775260995,-0.6125626,8.963513,4.1491547,3
20541777640006,-0.59342,8.953942,4.1587257,3
20541780019068,-0.55034924,8.9348,4.1635113,3
20541782398079,-0.52163535,8.944371,4.1778684,3
20541784777141,-0.5694918,8.949157,4.168297,3
20541787156152,-0.55513483,8.9348,4.15394,3
20541789535162,-0.55513483,8.9108715,4.1443686,3
20541791914225,-0.5455636,8.920443,4.139583,3
20541794293287,-0.55513483,8.9348,4.139583,3
20541796672297,-0.53599226,8.958728,4.139583,3
20541799051308,-0.51206404,8.944371,4.139583,3
20541801430370,-0.5312066,8.973084,4.1491547,3
20541803809381,-0.5407779,8.939586,4.168297,3
20541806188443,-0.55034924,8.958728,4.1491547,3
20541808567454,-0.5455636,8.949157,4.139583,3
20541810946516,-0.5599205,8.930014,4.125226,3
20541813325527,-0.53599226,8.949157,4.1443686,3
20541815704589,-0.5312066,8.930014,4.125226,3
20541818083600,-0.5407779,8.920443,4.125226,3
20541820462662,-0.53599226,8.930014,4.1108694,3
20541822841620,-0.526421,8.944371,4.115655,3
20541825220735,-0.5455636,8.939586,4.125226,3
20541827599745,-0.53599226,8.944371,4.1108694,3
20541829978808,-0.52163535,8.939586,4.130012,3
20541832357818,-0.5312066,8.920443,4.115655,3
20541834736881,-0.52163535,8.9348,4.115655,3
20541837115891,-0.5024927,8.953942,4.1204405,3
20541839494954,-0.45942193,8.944371,4.101298,3
20541841873964,-0.46899325,8.944371,4.106084,3
20541844253027,-0.44985065,8.953942,4.1108694,3
20541846632037,-0.4546363,8.930014,4.101298,3
20541849011100,-0.44506502,8.949157,4.0965123,3
20541851390110,-0.43070808,8.953942,4.101298,3
20541853769172,-0.40677986,8.944371,4.091727,3
20541856148183,-0.41156548,8.920443,4.0773697,3
20541858527245,-0.40677986,8.953942,4.0773697,3
20541860906256,-0.3924229,8.968299,4.0965123,3
20541863285318,-0.37806597,8.963513,4.101298,3
20541865664329,-0.3684947,8.953942,4.082155,3
20541868043391,-0.37328035,8.958728,4.072584,3
20541870422402,-0.3684947,8.953942,4.091727,3
20541872801464,-0.39720857,8.968299,4.072584,3
20541875180475,-0.37806597,8.968299,4.0869412,3
20541877559537,-0.38763726,8.977871,4.082155,3
20541879938547,-0.41156548,8.987442,4.0677986,3
20541882317610,-0.4211368,8.968299,4.063013,3
20541884696620,-0.4211368,8.977871,4.063013,3
20541887075683,-0.42592242,8.968299,4.072584,3
20541889454693,-0.44027936,8.987442,4.048656,3
20541891833756,-0.4546363,8.997013,4.063013,3
20541894212766,-0.47377887,9.01137,4.048656,3
20541896591829,-0.4546363,9.030513,4.063013,3
20541898970839,-0.44027936,9.020942,4.058227,3
20541901349850,-0.44506502,9.040084,4.0677986,3
20541903728912,-0.4546363,9.01137,4.048656,3
20541906107975,-0.45942193,9.01137,4.0295134,3
20541908486985,-0.4642076,9.030513,4.0295134,3
20541910866047,-0.4354937,9.025727,4.0151563,3
20541913245058,-0.4354937,9.01137,4.034299,3
20541915624120,-0.44027936,9.016156,4.0295134,3
20541918003131,-0.44506502,9.016156,4.0438704,3
20541920382193,-0.43070808,9.020942,4.0534415,3
20541922761204,-0.42592242,9.020942,4.0295134,3
20541925140266,-0.42592242,9.006584,4.019942,3
20541927519277,-0.42592242,9.001799,4.024728,3
20541929898339,-0.43070808,9.025727,4.0295134,3
20541932277350,-0.44027936,9.001799,4.024728,3
20541934656412,-0.44027936,9.006584,4.005585,3
20541937035422,-0.4546363,8.997013,4.0151563,3
20541939414433,-0.45942193,8.987442,4.0151563,3
20541941793495,-0.45942193,9.006584,3.9960139,3
20541944172506,-0.4642076,8.9826565,3.9768713,3
