t_ns,ax,ay,az,bx,by,bz
21040401000916,-0.47377887,8.853444,4.3357944,0.0,0.0,0.0
21040403379822,-0.47377887,8.877372,4.345366,0.0,0.0,0.0
21040405759197,-0.4833502,8.906086,4.2831526,0.0,0.0,0.0
21040408138208,-0.4977071,8.9013,4.1922255,0.0,0.0,0.0
21040410517218,-0.47856453,8.9013,4.1635113,0.0,0.0,0.0
21040412896281,-0.4977071,8.896515,4.173083,0.0,0.0,0.0
21040415275291,-0.526421,8.9108715,4.240082,0.0,0.0,0.0
21040417654302,-0.51206404,8.906086,4.2831526,0.0,0.0,0.0
21040420033260,-0.5312066,8.896515,4.3070807,0.0,0.0,0.0
21040422412322,-0.5455636,8.9013,4.2687955,0.0,0.0,0.0
21040424791333,-0.55513483,8.915657,4.206582,0.0,0.0,0.0
21040427170395,-0.5168497,8.9348,4.1635113,0.0,0.0,0.0
21040429549406,-0.52163535,8.920443,4.173083,0.0,0.0,0.0
21040431928416,-0.4977071,8.920443,4.220939,0.0,0.0,0.0
21040434307427,-0.4977071,8.9013,4.2687955,0.0,0.0,0.0
21040436686437,-0.5024927,8.867801,4.278367,0.0,0.0,0.0
21040439065447,-0.46899325,8.867801,4.2592244,0.0,0.0,0.0
21040441444510,-0.47856453,8.867801,4.23051,0.0,0.0,0.0
21040443823520,-0.44506502,8.867801,4.1778684,0.0,0.0,0.0
21040446202531,-0.4354937,8.85823,4.168297,0.0,0.0,0.0
21040448581541,-0.44506502,8.863015,4.2017965,0.0,0.0,0.0
21040450960552,-0.45942193,8.867801,4.2257247,0.0,0.0,0.0
21040453339562,-0.47856453,8.877372,4.2352962,0.0,0.0,0.0
21040455718572,-0.47377887,8.877372,4.240082,0.0,0.0,0.0
21040458097635,-0.47377887,8.872586,4.2161536,0.0,0.0,0.0
21040460476645,-0.49292147,8.877372,4.1922255,0.0,0.0,0.0
21040462855656,-0.52163535,8.9013,4.182654,0.0,0.0,0.0
21040465234666,-0.5407779,8.886943,4.1922255,0.0,0.0,0.0
21040467613624,-0.5694918,8.863015,4.2257247,0.0,0.0,0.0
21040469992687,-0.5886344,8.882157,4.2352962,0.0,0.0,0.0
21040472371749,-0.59342,8.886943,4.2448673,0.0,0.0,0.0
21040474750760,-0.5982057,8.872586,4.2448673,0.0,0.0,0.0
21040477129770,-0.56470615,8.882157,4.2017965,0.0,0.0,0.0
21040479508781,-0.57906306,8.882157,4.1778684,0.0,0.0,0.0
21040481887791,-0.55513483,8.906086,4.182654,0.0,0.0,0.0
21040484266802,-0.5312066,8.891729,4.197011,0.0,0.0,0.0
21040486645864,-0.5168497,8.882157,4.2352962,0.0,0.0,0.0
21040489024874,-0.51206404,8.886943,4.249653,0.0,0.0,0.0
21040491403885,-0.4881358,8.886943,4.273581,0.0,0.0,0.0
21040493782895,-0.44027936,8.877372,4.2592244,0.0,0.0,0.0
21040496161906,-0.42592242,8.877372,4.2592244,0.0,0.0,0.0
21040498540916,-0.43070808,8.915657,4.26401,0.0,0.0,0.0
21040500919927,-0.44027936,8.9013,4.2831526,0.0,0.0,0.0
21040503298989,-0.44985065,8.906086,4.3118663,0.0,0.0,0.0
21040505677999,-0.4354937,8.882157,4.331009,0.0,0.0,0.0
21040508057010,-0.44506502,8.891729,4.331009,0.0,0.0,0.0
21040510436020,-0.44985065,8.882157,4.287938,0.0,0.0,0.0
21040512815031,-0.4833502,8.886943,4.2831526,0.0,0.0,0.0
21040515194041,-0.4833502,8.891729,4.2592244,0.0,0.0,0.0
21040517573104,-0.47377887,8.9013,4.23051,0.0,0.0,0.0
21040519952114,-0.4881358,8.891729,4.2687955,0.0,0.0,0.0
21040522331124,-0.4881358,8.9013,4.2831526,0.0,0.0,0.0
21040524710135,-0.49292147,8.896515,4.2831526,0.0,0.0,0.0
21040527089145,-0.4977071,8.920443,4.254439,0.0,0.0,0.0
21040529468156,-0.5168497,8.906086,4.2352962,0.0,0.0,0.0
21040531847166,-0.526421,8.9348,4.211368,0.0,0.0,0.0
21040534226229,-0.5455636,8.930014,4.220939,0.0,0.0,0.0
21040536605239,-0.5599205,8.915657,4.249653,0.0,0.0,0.0
21040538984249,-0.5694918,8.930014,4.2352962,0.0,0.0,0.0
21040541363260,-0.59342,8.9348,4.2161536,0.0,0.0,0.0
21040543742270,-0.59342,8.930014,4.2017965,0.0,0.0,0.0
21040546121333,-0.5982057,8.9348,4.1922255,0.0,0.0,0.0
21040548500343,-0.6029913,8.930014,4.173083,0.0,0.0,0.0
21040550879354,-0.6125626,8.9348,4.168297,0.0,0.0,0.0
21040553258364,-0.5982057,8.920443,4.1874394,0.0,0.0,0.0
21040555637374,-0.5838487,8.9108715,4.1922255,0.0,0.0,0.0
21040558016385,-0.56470615,8.891729,4.197011,0.0,0.0,0.0
21040560395395,-0.5312066,8.9108715,4.1635113,0.0,0.0,0.0
21040562774458,-0.51206404,8.9013,4.1443686,0.0,0.0,0.0
21040565153468,-0.4977071,8.891729,4.139583,0.0,0.0,0.0
21040567532479,-0.4833502,8.886943,4.1443686,0.0,0.0,0.0
21040569911489,-0.4642076,8.906086,4.168297,0.0,0.0,0.0
21040572290499,-0.45942193,8.9108715,4.1922255,0.0,0.0,0.0
21040574669510,-0.47377887,8.9348,4.206582,0.0,0.0,0.0
21040577048572,-0.46899325,8.906086,4.23051,0.0,0.0,0.0
21040579427583,-0.45942193,8.886943,4.2017965,0.0,0.0,0.0
21040581806593,-0.47377887,8.9108715,4.197011,0.0,0.0,0.0
21040584185604,-0.4833502,8.915657,4.2352962,0.0,0.0,0.0
21040586564614,-0.4546363,8.9108715,4.26401,0.0,0.0,0.0
21040588943624,-0.45942193,8.891729,4.2687955,0.0,0.0,0.0
21040591322635,-0.49292147,8.886943,4.278367,0.0,0.0,0.0
21040593701697,-0.47377887,8.877372,4.287938,0.0,0.0,0.0
21040596080708,-0.51206404,8.891729,4.254439,0.0,0.0,0.0
21040598459718,-0.5168497,8.891729,4.240082,0.0,0.0,0.0
21040600838729,-0.5168497,8.886943,4.254439,0.0,0.0,0.0
21040603217739,-0.52163535,8.872586,4.273581,0.0,0.0,0.0
21040605596749,-0.51206404,8.867801,4.287938,0.0,0.0,0.0
21040607975760,-0.51206404,8.882157,4.2687955,0.0,0.0,0.0
21040610354822,-0.49292147,8.863015,4.2687955,0.0,0.0,0.0
21040612733833,-0.49292147,8.872586,4.2257247,0.0,0.0,0.0
21040615112843,-0.5024927,8.891729,4.2161536,0.0,0.0,0.0
21040617491854,-0.53599226,8.896515,4.23051,0.0,0.0,0.0
21040619870864,-0.5407779,8.896515,4.23051,0.0,0.0,0.0
21040622249927,-0.55034924,8.886943,4.2017965,0.0,0.0,0.0
21040624628937,-0.5599205,8.882157,4.173083,0.0,0.0,0.0
21040627007947,-0.57427746,8.872586,4.173083,0.0,0.0,0.0
21040629386958,-0.5886344,8.9013,4.1635113,0.0,0.0,0.0
21040631765968,-0.5982057,8.915657,4.15394,0.0,0.0,0.0
21040634144979,-0.60777694,8.9108715,4.15394,0.0,0.0,0.0
21040636524041,-0.6221339,8.9108715,4.139583,0.0,0.0,0.0
21040638903052,-0.6269195,8.9108715,4.125226,0.0,0.0,0.0
21040641282062,-0.6125626,8.920443,4.1347976,0.0,0.0,0.0
21040643661072,-0.5982057,8.891729,4.115655,0.0,0.0,0.0
21040646040083,-0.6125626,8.906086,4.1204405,0.0,0.0,0.0
21040648419093,-0.60777694,8.920443,4.1443686,0.0,0.0,0.0
21040650798156,-0.5838487,8.896515,4.1443686,0.0,0.0,0.0
21040653177166,-0.59342,8.886943,4.1491547,0.0,0.0,0.0
21040655556177,-0.5838487,8.872586,4.168297,0.0,0.0,0.0
21040657935187,-0.5407779,8.872586,4.2017965,0.0,0.0,0.0
21040660314197,-0.52163535,8.85823,4.2017965,0.0,0.0,0.0
21040662693208,-0.51206404,8.843872,4.23051,0.0,0.0,0.0
21040665072270,-0.51206404,8.867801,4.23051,0.0,0.0,0.0
21040667451281,-0.5024927,8.848659,4.240082,0.0,0.0,0.0
21040669830291,-0.4977071,8.877372,4.254439,0.0,0.0,0.0
21040672209302,-0.4833502,8.9013,4.278367,0.0,0.0,0.0
21040674588312,-0.49292147,8.9108715,4.278367,0.0,0.0,0.0
21040676967322,-0.47377887,8.906086,4.273581,0.0,0.0,0.0
21040679346333,-0.47856453,8.915657,4.2592244,0.0,0.0,0.0
21040681725395,-0.4546363,8.896515,4.254439,0.0,0.0,0.0
21040684104406,-0.4354937,8.925228,4.249653,0.0,0.0,0.0
21040686483416,-0.44506502,8.949157,4.26401,0.0,0.0,0.0
21040688862427,-0.41156548,8.915657,4.287938,0.0,0.0,0.0
21040691241437,-0.3924229,8.9013,4.2831526,0.0,0.0,0.0
21040693620447,-0.37806597,8.9108715,4.2592244,0.0,0.0,0.0
21040695999510,-0.3397808,8.915657,4.2352962,0.0,0.0,0.0
21040698378520,-0.33020952,8.906086,4.2161536,0.0,0.0,0.0
21040700757531,-0.33499518,8.930014,4.211368,0.0,0.0,0.0
21040703136541,-0.34456646,8.9348,4.173083,0.0,0.0,0.0
21040705515552,-0.37806597,8.9348,4.168297,0.0,0.0,0.0
21040707894614,-0.40677986,8.953942,4.1587257,0.0,0.0,0.0
21040710273624,-0.4354937,8.958728,4.139583,0.0,0.0,0.0
21040712652635,-0.47856453,8.953942,4.139583,0.0,0.0,0.0
21040715031645,-0.5072784,8.953942,4.125226,0.0,0.0,0.0
21040717410656,-0.55034924,8.968299,4.139583,0.0,0.0,0.0
21040719789666,-0.60777694,8.963513,4.130012,0.0,0.0,0.0
21040722168729,-0.6269195,8.977871,4.125226,0.0,0.0,0.0
21040724547739,-0.6364908,8.968299,4.1347976,0.0,0.0,0.0
21040726926749,-0.6556334,8.953942,4.139583,0.0,0.0,0.0
21040729305760,-0.65084773,8.963513,4.125226,0.0,0.0,0.0
21040731684770,-0.6221339,8.973084,4.115655,0.0,0.0,0.0
21040734063781,-0.6269195,8.968299,4.1347976,0.0,0.0,0.0
21040736442791,-0.61734825,8.963513,4.15394,0.0,0.0,0.0
21040738821854,-0.5694918,8.968299,4.168297,0.0,0.0,0.0
21040741200864,-0.53599226,8.958728,4.1874394,0.0,0.0,0.0
21040743579874,-0.52163535,8.949157,4.2161536,0.0,0.0,0.0
21040745958885,-0.46899325,8.930014,4.2352962,0.0,0.0,0.0
21040748337895,-0.44027936,8.925228,4.249653,0.0,0.0,0.0
21040750716906,-0.38763726,8.891729,4.2448673,0.0,0.0,0.0
21040753095968,-0.36370903,8.867801,4.2687955,0.0,0.0,0.0
21040755474979,-0.37328035,8.82473,4.2592244,0.0,0.0,0.0
21040757853989,-0.37806597,8.810373,4.2592244,0.0,0.0,0.0
21040760232999,-0.38285163,8.805588,4.2592244,0.0,0.0,0.0
21040762612010,-0.41635114,8.82473,4.240082,0.0,0.0,0.0
21040764991020,-0.43070808,8.815159,4.240082,0.0,0.0,0.0
21040767370083,-0.44985065,8.819944,4.2352962,0.0,0.0,0.0
21040769749093,-0.47856453,8.843872,4.23051,0.0,0.0,0.0
21040772128104,-0.5024927,8.848659,4.254439,0.0,0.0,0.0
21040774507114,-0.5455636,8.834301,4.2831526,0.0,0.0,0.0
21040776886124,-0.5886344,8.839087,4.2975097,0.0,0.0,0.0
21040779265187,-0.61734825,8.867801,4.287938,0.0,0.0,0.0
21040781644197,-0.66041905,8.848659,4.26401,0.0,0.0,0.0
21040784023208,-0.67477596,8.853444,4.2687955,0.0,0.0,0.0
21040786402218,-0.6795616,8.882157,4.2592244,0.0,0.0,0.0
21040788781229,-0.6891329,8.9013,4.254439,0.0,0.0,0.0
21040791160239,-0.6891329,8.882157,4.254439,0.0,0.0,0.0
21040793539249,-0.6843473,8.896515,4.2352962,0.0,0.0,0.0
21040795918312,-0.66041905,8.886943,4.2352962,0.0,0.0,0.0
21040798297270,-0.6364908,8.9108715,4.2592244,0.0,0.0,0.0
21040800676333,-0.57906306,8.877372,4.240082,0.0,0.0,0.0
21040803055343,-0.5407779,8.863015,4.2448673,0.0,0.0,0.0
21040805434354,-0.4881358,8.867801,4.273581,0.0,0.0,0.0
21040807813364,-0.44506502,8.867801,4.26401,0.0,0.0,0.0
21040810192427,-0.38763726,8.867801,4.2448673,0.0,0.0,0.0
21040812571437,-0.3493521,8.867801,4.240082,0.0,0.0,0.0
21040814950447,-0.34456646,8.882157,4.23051,0.0,0.0,0.0
21040817329458,-0.32542387,8.891729,4.2352962,0.0,0.0,0.0
21040819708468,-0.33020952,8.9013,4.2352962,0.0,0.0,0.0
21040822087479,-0.33499518,8.915657,4.240082,0.0,0.0,0.0
21040824466541,-0.3589234,8.906086,4.254439,0.0,0.0,0.0
21040826845552,-0.39720857,8.9013,4.273581,0.0,0.0,0.0
21040829224562,-0.44506502,8.9108715,4.278367,0.0,0.0,0.0
21040831603572,-0.47856453,8.896515,4.287938,0.0,0.0,0.0
21040833982583,-0.51206404,8.882157,4.3070807,0.0,0.0,0.0
21040836361645,-0.57906306,8.891729,4.2687955,0.0,0.0,0.0
21040838740656,-0.5982057,8.863015,4.2592244,0.0,0.0,0.0
21040841119666,-0.59342,8.891729,4.2592244,0.0,0.0,0.0
21040843498677,-0.59342,8.9013,4.254439,0.0,0.0,0.0
21040845877687,-0.60777694,8.891729,4.240082,0.0,0.0,0.0
21040848256645,-0.59342,8.9013,4.2161536,0.0,0.0,0.0
21040850635760,-0.61734825,8.930014,4.2257247,0.0,0.0,0.0
21040853014770,-0.5982057,8.915657,4.2017965,0.0,0.0,0.0
21040855393781,-0.59342,8.906086,4.182654,0.0,0.0,0.0
21040857772791,-0.56470615,8.9348,4.1635113,0.0,0.0,0.0
21040860151802,-0.53599226,8.944371,4.173083,0.0,0.0,0.0
21040862530812,-0.526421,8.920443,4.168297,0.0,0.0,0.0
21040864909874,-0.55034924,8.9108715,4.173083,0.0,0.0,0.0
21040867288885,-0.5599205,8.906086,4.1922255,0.0,0.0,0.0
21040869667895,-0.59342,8.920443,4.1778684,0.0,0.0,0.0
21040872046906,-0.6221339,8.915657,4.173083,0.0,0.0,0.0
21040874425916,-0.64606214,8.915657,4.1874394,0.0,0.0,0.0
21040876804927,-0.66999036,8.9013,4.2017965,0.0,0.0,0.0
21040879183989,-0.6891329,8.896515,4.211368,0.0,0.0,0.0
21040881562999,-0.70348984,8.882157,4.2017965,0.0,0.0,0.0
21040883942010,-0.72263247,8.863015,4.1874394,0.0,0.0,0.0
21040886321020,-0.6939186,8.886943,4.206582,0.0,0.0,0.0
21040888700031,-0.6843473,8.863015,4.211368,0.0,0.0,0.0
21040891079093,-0.6652047,8.863015,4.197011,0.0,0.0,0.0
21040893458104,-0.64606214,8.848659,4.206582,0.0,0.0,0.0
21040895837062,-0.6029913,8.853444,4.1922255,0.0,0.0,0.0
21040898216124,-0.5886344,8.85823,4.206582,0.0,0.0,0.0
21040900595135,-0.5694918,8.848659,4.197011,0.0,0.0,0.0
21040902974145,-0.5599205,8.877372,4.206582,0.0,0.0,0.0
21040905353156,-0.57906306,8.9013,4.197011,0.0,0.0,0.0
21040907732218,-0.61734825,8.925228,4.2017965,0.0,0.0,0.0
21040910111177,-0.64606214,8.9108715,4.1874394,0.0,0.0,0.0
21040912490239,-0.70348984,8.9348,4.1874394,0.0,0.0,0.0
21040914869249,-0.76570326,8.949157,4.2017965,0.0,0.0,0.0
21040917248260,-0.80877405,8.953942,4.220939,0.0,0.0,0.0
21040919627322,-0.8327023,8.958728,4.249653,0.0,0.0,0.0
21040922006333,-0.8997013,8.939586,4.2687955,0.0,0.0,0.0
21040924385343,-0.9762716,8.9348,4.278367,0.0,0.0,0.0
21040926764354,-1.0193424,8.920443,4.278367,0.0,0.0,0.0
21040929143364,-1.0336994,8.930014,4.273581,0.0,0.0,0.0
21040931522374,-1.0336994,8.920443,4.2831526,0.0,0.0,0.0
21040933901437,-1.038485,8.915657,4.3070807,0.0,0.0,0.0
21040936280447,-1.0289137,8.906086,4.2927237,0.0,0.0,0.0
21040938659458,-0.98584294,8.896515,4.2831526,0.0,0.0,0.0
21040941038468,-0.91405827,8.9013,4.2927237,0.0,0.0,0.0
21040943417479,-0.82313097,8.896515,4.273581,0.0,0.0,0.0
21040945796489,-0.7704889,8.882157,4.273581,0.0,0.0,0.0
21040948175552,-0.65084773,8.85823,4.2687955,0.0,0.0,0.0
21040950554562,-0.53599226,8.843872,4.2592244,0.0,0.0,0.0
21040952933572,-0.41635114,8.848659,4.249653,0.0,0.0,0.0
21040955312583,-0.31106696,8.867801,4.2448673,0.0,0.0,0.0
21040957691541,-0.24885355,8.886943,4.2352962,0.0,0.0,0.0
21040960070604,-0.19142582,8.896515,4.2448673,0.0,0.0,0.0
21040962449666,-0.15314065,8.882157,4.2161536,0.0,0.0,0.0
21040964828677,-0.15314065,8.877372,4.197011,0.0,0.0,0.0
21040967207687,-0.19621146,8.9013,4.1922255,0.0,0.0,0.0
21040969586697,-0.25842485,8.920443,4.173083,0.0,0.0,0.0
21040971965708,-0.32542387,8.9348,4.168297,0.0,0.0,0.0
21040974344770,-0.40677986,8.9348,4.1587257,0.0,0.0,0.0
21040976723781,-0.4833502,8.930014,4.15394,0.0,0.0,0.0
21040979102791,-0.5838487,8.906086,4.168297,0.0,0.0,0.0
21040981481802,-0.66041905,8.886943,4.182654,0.0,0.0,0.0
21040983860812,-0.7178468,8.9013,4.206582,0.0,0.0,0.0
21040986239822,-0.8039884,8.9013,4.2257247,0.0,0.0,0.0
21040988618885,-0.8422736,8.891729,4.249653,0.0,0.0,0.0
21040990997895,-0.8470592,8.906086,4.2448673,0.0,0.0,0.0
21040993376906,-0.8566305,8.9108715,4.2352962,0.0,0.0,0.0
21040995755916,-0.83748794,8.9108715,4.2352962,0.0,0.0,0.0
21040998134927,-0.80877405,8.906086,4.2592244,0.0,0.0,0.0
21041000513937,-0.75613195,8.877372,4.302295,0.0,0.0,0.0
21041002892999,-0.6652047,8.882157,4.316652,0.0,0.0,0.0
21041005272010,-0.57427746,8.867801,4.316652,0.0,0.0,0.0
21041007651020,-0.4977071,8.853444,4.3070807,0.0,0.0,0.0
21041010030031,-0.43070808,8.853444,4.302295,0.0,0.0,0.0
21041012409041,-0.38285163,8.843872,4.2975097,0.0,0.0,0.0
21041014788104,-0.33020952,8.834301,4.331009,0.0,0.0,0.0
21041017167114,-0.27756742,8.834301,4.3357944,0.0,0.0,0.0
21041019546124,-0.27756742,8.796016,4.331009,0.0,0.0,0.0
21041021925135,-0.28235307,8.810373,4.321438,0.0,0.0,0.0
21041024304145,-0.32063824,8.853444,4.287938,0.0,0.0,0.0
21041026683156,-0.3493521,8.872586,4.240082,0.0,0.0,0.0
21041029062218,-0.37806597,8.896515,4.249653,0.0,0.0,0.0
21041031441229,-0.41156548,8.915657,4.2448673,0.0,0.0,0.0
21041033820239,-0.4642076,8.949157,4.249653,0.0,0.0,0.0
21041036199249,-0.5168497,8.953942,4.240082,0.0,0.0,0.0
21041038578260,-0.5886344,8.958728,4.240082,0.0,0.0,0.0
21041040957270,-0.6221339,8.949157,4.206582,0.0,0.0,0.0
21041043336333,-0.6221339,8.949157,4.1874394,0.0,0.0,0.0
21041045715343,-0.6269195,8.944371,4.1778684,0.0,0.0,0.0
21041048094354,-0.6269195,8.925228,4.182654,0.0,0.0,0.0
21041050473364,-0.6125626,8.9013,4.1922255,0.0,0.0,0.0
21041052852374,-0.57427746,8.877372,4.1874394,0.0,0.0,0.0
21041055231385,-0.53599226,8.9013,4.1922255,0.0,0.0,0.0
21041057610447,-0.5024927,8.896515,4.139583,0.0,0.0,0.0
21041059989458,-0.45942193,8.872586,4.101298,0.0,0.0,0.0
21041062368468,-0.41635114,8.853444,4.0677986,0.0,0.0,0.0
21041064747479,-0.4019942,8.867801,4.0534415,0.0,0.0,0.0
21041067126489,-0.38285163,8.882157,4.0869412,0.0,0.0,0.0
21041069505552,-0.4019942,8.867801,4.0869412,0.0,0.0,0.0
21041071884562,-0.43070808,8.886943,4.0965123,0.0,0.0,0.0
21041074263572,-0.4977071,8.9108715,4.115655,0.0,0.0,0.0
21041076642583,-0.5838487,8.9108715,4.115655,0.0,0.0,0.0
21041079021593,-0.6652047,8.944371,4.125226,0.0,0.0,0.0
21041081400604,-0.7369894,8.953942,4.182654,0.0,0.0,0.0
21041083779666,-0.8327023,8.958728,4.2161536,0.0,0.0,0.0
21041086158677,-0.9236295,8.958728,4.2448673,0.0,0.0,0.0
21041088537687,-0.971486,8.958728,4.26401,0.0,0.0,0.0
21041090916697,-1.0336994,8.953942,4.254439,0.0,0.0,0.0
21041093295708,-1.0624132,8.949157,4.23051,0.0,0.0,0.0
21041095674770,-1.0624132,8.9108715,4.249653,0.0,0.0,0.0
21041098053781,-1.0576276,8.896515,4.26401,0.0,0.0,0.0
21041100432791,-1.0145568,8.886943,4.278367,0.0,0.0,0.0
21041102811802,-0.9667004,8.863015,4.287938,0.0,0.0,0.0
21041105190812,-0.8805587,8.863015,4.3070807,0.0,0.0,0.0
21041107569822,-0.75613195,8.85823,4.278367,0.0,0.0,0.0
21041109948885,-0.67477596,8.839087,4.26401,0.0,0.0,0.0
21041112327895,-0.59342,8.863015,4.249653,0.0,0.0,0.0
21041114706906,-0.5072784,8.867801,4.240082,0.0,0.0,0.0
21041117085916,-0.43070808,8.867801,4.254439,0.0,0.0,0.0
21041119464927,-0.36370903,8.877372,4.2975097,0.0,0.0,0.0
21041121843937,-0.29671,8.867801,4.316652,0.0,0.0,0.0
21041124222999,-0.27756742,8.891729,4.3118663,0.0,0.0,0.0
21041126602010,-0.2727818,8.906086,4.2975097,0.0,0.0,0.0
21041128981020,-0.29671,8.886943,4.2927237,0.0,0.0,0.0
21041131360031,-0.29671,8.886943,4.2975097,0.0,0.0,0.0
21041133739041,-0.31585258,8.882157,4.278367,0.0,0.0,0.0
21041136118052,-0.3397808,8.886943,4.2927237,0.0,0.0,0.0
21041138497114,-0.3684947,8.886943,4.273581,0.0,0.0,0.0
21041140876124,-0.40677986,8.872586,4.26401,0.0,0.0,0.0
21041143255135,-0.41635114,8.9013,4.2257247,0.0,0.0,0.0
21041145634145,-0.4354937,8.915657,4.2161536,0.0,0.0,0.0
21041148013156,-0.43070808,8.891729,4.2017965,0.0,0.0,0.0
21041150392218,-0.44027936,8.877372,4.2017965,0.0,0.0,0.0
21041152771229,-0.41635114,8.891729,4.197011,0.0,0.0,0.0
21041155150239,-0.38285163,8.886943,4.1635113,0.0,0.0,0.0
21041157529249,-0.39720857,8.872586,4.1635113,0.0,0.0,0.0
21041159908260,-0.38763726,8.882157,4.1587257,0.0,0.0,0.0
21041162287322,-0.35413775,8.863015,4.1443686,0.0,0.0,0.0
21041164666333,-0.3397808,8.839087,4.139583,0.0,0.0,0.0
21041167045343,-0.32542387,8.819944,4.1778684,0.0,0.0,0.0
21041169424354,-0.29671,8.796016,4.1778684,0.0,0.0,0.0
21041171803364,-0.2632105,8.810373,4.1635113,0.0,0.0,0.0
21041174182427,-0.23449662,8.805588,4.1635113,0.0,0.0,0.0
21041176561437,-0.22492532,8.796016,4.173083,0.0,0.0,0.0
21041178940447,-0.2105684,8.82473,4.1635113,0.0,0.0,0.0
21041181319458,-0.19621146,8.829515,4.2017965,0.0,0.0,0.0
21041183698468,-0.18664017,8.829515,4.249653,0.0,0.0,0.0
21041186077479,-0.19621146,8.834301,4.2687955,0.0,0.0,0.0
21041188456489,-0.20578274,8.853444,4.2687955,0.0,0.0,0.0
21041190835552,-0.23449662,8.848659,4.2687955,0.0,0.0,0.0
21041193214562,-0.27756742,8.863015,4.2927237,0.0,0.0,0.0
21041195593572,-0.3397808,8.867801,4.316652,0.0,0.0,0.0
21041197972583,-0.37328035,8.882157,4.331009,0.0,0.0,0.0
21041200351593,-0.42592242,8.872586,4.3501515,0.0,0.0,0.0
21041202730656,-0.42592242,8.886943,4.3932223,0.0,0.0,0.0
21041205109666,-0.4546363,8.877372,4.3932223,0.0,0.0,0.0
21041207488677,-0.44506502,8.848659,4.402794,0.0,0.0,0.0
21041209867687,-0.41635114,8.815159,4.3932223,0.0,0.0,0.0
21041212246697,-0.37328035,8.79123,4.345366,0.0,0.0,0.0
21041214625760,-0.29671,8.834301,4.3070807,0.0,0.0,0.0
21041217004770,-0.2440679,8.843872,4.26401,0.0,0.0,0.0
21041219383781,-0.20578274,8.863015,4.2257247,0.0,0.0,0.0
21041221762791,-0.12921242,8.867801,4.2161536,0.0,0.0,0.0
21041224141802,-0.086141616,8.920443,4.182654,0.0,0.0,0.0
21041226520812,-0.047856454,8.930014,4.15394,0.0,0.0,0.0
21041228899874,-0.06699903,8.944371,4.115655,0.0,0.0,0.0
21041231278885,-0.08135597,8.977871,4.0869412,0.0,0.0,0.0
21041233657895,-0.13399807,8.992228,4.063013,0.0,0.0,0.0
21041236036906,-0.18185452,9.016156,4.048656,0.0,0.0,0.0
21041238415916,-0.22492532,9.020942,4.0534415,0.0,0.0,0.0
21041240794927,-0.31106696,9.030513,4.0965123,0.0,0.0,0.0
21041243173989,-0.3684947,9.040084,4.1443686,0.0,0.0,0.0
21041245552999,-0.42592242,9.040084,4.2017965,0.0,0.0,0.0
21041247932010,-0.46899325,9.040084,4.197011,0.0,0.0,0.0
21041250311020,-0.51206404,9.01137,4.211368,0.0,0.0,0.0
21041252690031,-0.5072784,8.987442,4.2017965,0.0,0.0,0.0
21041255069093,-0.51206404,8.968299,4.1922255,0.0,0.0,0.0
21041257448104,-0.49292147,8.953942,4.2017965,0.0,0.0,0.0
21041259827114,-0.4881358,8.9348,4.2257247,0.0,0.0,0.0
21041262206124,-0.43070808,8.939586,4.23051,0.0,0.0,0.0
21041264585135,-0.39720857,8.939586,4.2161536,0.0,0.0,0.0
21041266964197,-0.37806597,8.949157,4.197011,0.0,0.0,0.0
21041269343208,-0.38763726,8.944371,4.173083,0.0,0.0,0.0
21041271722218,-0.37328035,8.958728,4.182654,0.0,0.0,0.0
21041274101229,-0.3924229,8.977871,4.240082,0.0,0.0,0.0
21041276480239,-0.47856453,8.987442,4.273581,0.0,0.0,0.0
21041278859249,-0.55513483,8.9826565,4.2927237,0.0,0.0,0.0
21041281238312,-0.61734825,8.968299,4.3070807,0.0,0.0,0.0
21041283617322,-0.6652047,8.977871,4.302295,0.0,0.0,0.0
21041285996333,-0.7082755,8.944371,4.2975097,0.0,0.0,0.0
21041288375343,-0.8039884,8.930014,4.3118663,0.0,0.0,0.0
21041290754354,-0.8422736,8.920443,4.321438,0.0,0.0,0.0
21041293133416,-0.8422736,8.915657,4.3357944,0.0,0.0,0.0
21041295512427,-0.8709874,8.906086,4.321438,0.0,0.0,0.0
21041297891437,-0.86141616,8.872586,4.302295,0.0,0.0,0.0
21041300270447,-0.8422736,8.867801,4.2687955,0.0,0.0,0.0
21041302649458,-0.7848458,8.863015,4.2257247,0.0,0.0,0.0
21041305028520,-0.7465607,8.872586,4.1874394,0.0,0.0,0.0
21041307407531,-0.6987042,8.9013,4.1635113,0.0,0.0,0.0
21041309786541,-0.61734825,8.920443,4.168297,0.0,0.0,0.0
21041312165552,-0.56470615,8.9108715,4.1443686,0.0,0.0,0.0
21041314544562,-0.53599226,8.925228,4.1491547,0.0,0.0,0.0
21041316923572,-0.5024927,8.925228,4.130012,0.0,0.0,0.0
21041319302635,-0.46899325,8.944371,4.1443686,0.0,0.0,0.0
21041321681645,-0.44027936,8.939586,4.1587257,0.0,0.0,0.0
21041324060656,-0.44985065,8.949157,4.2017965,0.0,0.0,0.0
21041326439666,-0.4833502,8.944371,4.23051,0.0,0.0,0.0
21041328818677,-0.5024927,8.944371,4.254439,0.0,0.0,0.0
21041331197739,-0.5024927,8.939586,4.2448673,0.0,0.0,0.0
21041333576749,-0.5072784,8.930014,4.240082,0.0,0.0,0.0
21041335955760,-0.5168497,8.9348,4.23051,0.0,0.0,0.0
21041338334770,-0.4977071,8.915657,4.2352962,0.0,0.0,0.0
21041340713781,-0.4881358,8.886943,4.254439,0.0,0.0,0.0
21041343092791,-0.47377887,8.882157,4.26401,0.0,0.0,0.0
21041345471854,-0.45942193,8.877372,4.2257247,0.0,0.0,0.0
21041347850864,-0.4211368,8.863015,4.2017965,0.0,0.0,0.0
21041350229874,-0.40677986,8.853444,4.1874394,0.0,0.0,0.0
21041352608885,-0.38285163,8.82473,4.168297,0.0,0.0,0.0
21041354987895,-0.38763726,8.819944,4.182654,0.0,0.0,0.0
21041357366958,-0.37328035,8.843872,4.2161536,0.0,0.0,0.0
21041359745968,-0.3684947,8.839087,4.240082,0.0,0.0,0.0
21041362124979,-0.34456646,8.642876,4.15394,0.0,0.0,0.0
21041364503989,-0.33020952,8.236095,4.019942,0.0,0.0,0.0
21041366882999,-0.19142582,8.671589,3.8237305,0.0,0.0,0.0
21041369262010,-0.11006984,9.360723,2.3306093,0.0,0.0,0.0
21041371641072,-0.6556334,9.705289,1.861616,0.0,0.0,0.0
21041374020083,0.009571291,8.709874,3.3834512,0.0,0.0,0.0
21041376399093,-0.11006984,8.283952,5.7188463,0.0,0.0,0.0
21041378778104,-0.42592242,8.896515,5.881558,0.0,0.0,0.0
21041381157114,-0.57906306,9.5760765,4.618148,0.0,0.0,0.0
21041383536177,0.3397808,9.236296,3.182454,0.0,0.0,0.0
21041385915187,-0.076570325,9.083155,3.0867412,0.0,0.0,0.0
21041388294197,-0.42592242,9.030513,4.249653,0.0,0.0,0.0
21041390673208,-0.019142581,8.786445,5.599205,0.0,0.0,0.0
21041393052218,0.076570325,8.9826565,5.733203,0.0,0.0,0.0
21041395431281,-0.148355,9.040084,4.2975097,0.0,0.0,0.0
21041397810291,-0.07178468,9.064013,2.7900312,0.0,0.0,0.0
21041400189302,-0.009571291,9.111869,2.0195422,0.0,0.0,0.0
21041402568312,-0.4019942,9.116654,2.3832514,0.0,0.0,0.0
21041404947322,-0.4977071,8.724232,3.6466618,0.0,0.0,0.0
21041407326385,-0.3062813,8.719446,4.938786,0.0,0.0,0.0
21041409705395,-0.64606214,8.925228,4.996214,0.0,0.0,0.0
21041412084406,-0.971486,9.08794,4.240082,0.0,0.0,0.0
21041414463416,-0.7800602,8.872586,3.3212378,0.0,0.0,0.0
21041416842427,-0.6556334,9.265009,3.3355947,0.0,0.0,0.0
21041419221437,-0.7609176,9.2075815,3.7758741,0.0,0.0,0.0
21041421600499,-0.8805587,9.0544405,4.733003,0.0,0.0,0.0
21041423979458,-0.81834537,8.958728,5.369494,0.0,0.0,0.0
21041426358520,-0.7752745,9.107083,5.575277,0.0,0.0,0.0
21041428737531,-0.66999036,9.111869,5.0823555,0.0,0.0,0.0
21041431116541,-0.76570326,9.049655,4.278367,0.0,0.0,0.0
21041433495604,-0.89013004,9.164511,3.6131623,0.0,0.0,0.0
21041435874614,-0.971486,9.102298,3.4360933,0.0,0.0,0.0
21041438253624,-0.9284152,9.001799,3.8380876,0.0,0.0,0.0
21041440632635,-1.1820544,8.891729,4.321438,0.0,0.0,0.0
21041443011645,-1.3064811,8.882157,4.6037908,0.0,0.0,0.0
21041445390708,-1.3639089,8.815159,4.4841495,0.0,0.0,0.0
21041447769614,-1.253839,8.772088,4.005585,0.0,0.0,0.0
21041450148729,-1.2394822,8.810373,3.5509489,0.0,0.0,0.0
21041452527739,-1.119841,8.939586,3.4695928,0.0,0.0,0.0
21041454906749,-0.94277215,8.915657,3.8093736,0.0,0.0,0.0
21041457285812,-0.8279166,8.944371,4.4075794,0.0,0.0,0.0
21041459664822,-0.53599226,8.867801,4.7425747,0.0,0.0,0.0
21041462043833,-0.33020952,8.973084,4.7856455,0.0,0.0,0.0
21041464422791,-0.1052842,8.977871,4.3645086,0.0,0.0,0.0
21041466801854,-0.08135597,9.092726,3.9864426,0.0,0.0,0.0
21041469180864,0.14356937,9.025727,3.694518,0.0,0.0,0.0
21041471559927,0.22971097,9.078369,3.8141594,0.0,0.0,0.0
21041473938937,0.19621146,9.030513,4.1443686,0.0,0.0,0.0
21041476317947,0.08135597,8.930014,4.493721,0.0,0.0,0.0
21041478696958,-0.047856454,8.853444,4.5942197,0.0,0.0,0.0
21041481075968,-0.148355,8.82473,4.354937,0.0,0.0,0.0
21041483455031,-0.31106696,8.867801,4.058227,0.0,0.0,0.0
21041485834041,-0.51206404,8.863015,3.8572302,0.0,0.0,0.0
21041488213052,-0.7178468,8.896515,3.9146578,0.0,0.0,0.0
21041490592062,-0.7082755,8.681161,4.005585,0.0,0.0,0.0
21041492971072,-0.7800602,8.662018,4.2592244,0.0,0.0,0.0
21041495350135,-0.8422736,8.618947,4.402794,0.0,0.0,0.0
21041497729145,-0.6795616,8.571091,4.4554358,0.0,0.0,0.0
21041500108156,-0.51206404,8.6141615,4.412365,0.0,0.0,0.0
21041502487166,-0.36370903,8.719446,4.3357944,0.0,0.0,0.0
21041504866177,-0.2009971,8.781659,4.273581,0.0,0.0,0.0
21041507245239,-0.023928227,8.9108715,4.3501515,0.0,0.0,0.0
21041509624249,0.076570325,9.01137,4.503292,0.0,0.0,0.0
21041512003260,0.13878371,9.030513,4.6372905,0.0,0.0,0.0
21041514382270,0.22013968,9.059227,4.6707897,0.0,0.0,0.0
21041516761281,0.2440679,9.145369,4.6085763,0.0,0.0,0.0
21041519140291,0.3062813,9.140582,4.4889355,0.0,0.0,0.0
21041521519354,0.3397808,9.150154,4.4602213,0.0,0.0,0.0
21041523898364,0.38763726,9.049655,4.493721,0.0,0.0,0.0
21041526277374,0.4546363,8.973084,4.613362,0.0,0.0,0.0
21041528656385,0.45942193,8.85823,4.7377887,0.0,0.0,0.0
21041531035395,0.5024927,8.657232,4.814359,0.0,0.0,0.0
21041533414458,0.52163535,8.5423765,4.871787,0.0,0.0,0.0
21041535793468,0.6125626,8.432307,4.8382874,0.0,0.0,0.0
21041538172479,0.52163535,8.355737,4.766503,0.0,0.0,0.0
21041540551489,0.45942193,8.216953,4.699504,0.0,0.0,0.0
21041542930499,0.38285163,8.111669,4.685147,0.0,0.0,0.0
21041545309562,0.2632105,8.073383,4.7569313,0.0,0.0,0.0
21041547688572,0.18185452,8.015956,4.8095737,0.0,0.0,0.0
21041550067583,0.11485548,8.039884,4.8909297,0.0,0.0,0.0
21041552446593,0.16271193,8.216953,4.871787,0.0,0.0,0.0
21041554825604,0.20578274,8.413164,4.7425747,0.0,0.0,0.0
21041557204666,0.4546363,8.49452,4.3932223,0.0,0.0,0.0
21041559583624,0.7848458,8.662018,4.048656,0.0,0.0,0.0
21041561962687,1.1820544,9.073584,4.058227,0.0,0.0,0.0
21041564341697,1.3304094,9.2793665,4.3357944,0.0,0.0,0.0
21041566720708,1.7036897,9.221938,4.3070807,0.0,0.0,0.0
21041569099770,1.6175481,9.533006,4.197011,0.0,0.0,0.0
21041571478781,1.2921243,9.533006,3.9194436,0.0,0.0,0.0
21041573857791,0.81834537,9.274581,3.9960139,0.0,0.0,0.0
21041576236802,0.4354937,9.006584,4.249653,0.0,0.0,0.0
21041578615812,-0.18185452,8.930014,4.6899323,0.0,0.0,0.0
21041580994822,-0.5982057,8.60459,4.991428,0.0,0.0,0.0
21041583373885,-0.8470592,8.489735,5.1158547,0.0,0.0,0.0
21041585752895,-0.971486,8.566305,4.871787,0.0,0.0,0.0
21041588131906,-0.9762716,8.556734,4.4315076,0.0,0.0,0.0
21041590510916,-0.7752745,8.599805,4.091727,0.0,0.0,0.0
21041592889979,-0.44027936,8.82473,4.0103707,0.0,0.0,0.0
21041595268989,-0.13399807,8.853444,4.0438704,0.0,0.0,0.0
21041597647999,0.24885355,8.839087,4.2161536,0.0,0.0,0.0
21041600027010,0.65084773,8.953942,4.316652,0.0,0.0,0.0
21041602406020,0.8566305,9.111869,4.2161536,0.0,0.0,0.0
21041604785083,0.95712906,9.107083,3.9625144,0.0,0.0,0.0
21041607164093,0.93320084,9.159725,3.7567315,0.0,0.0,0.0
21041609543104,0.6412765,9.202796,3.7328033,0.0,0.0,0.0
21041611922114,0.1052842,9.126225,3.9242291,0.0,0.0,0.0
21041614301124,-0.42592242,9.097511,4.26401,0.0,0.0,0.0
21041616680135,-0.8997013,9.107083,4.56072,0.0,0.0,0.0
21041619059197,-1.2586247,9.107083,4.6612186,0.0,0.0,0.0
21041621438208,-1.4404793,9.073584,4.5655055,0.0,0.0,0.0
21041623817166,-1.5074782,9.102298,4.3645086,0.0,0.0,0.0
21041626196229,-1.5122639,9.12144,4.125226,0.0,0.0,0.0
21041628575239,-1.3734802,9.107083,4.0007997,0.0,0.0,0.0
21041630954302,-1.2346965,9.073584,4.072584,0.0,0.0,0.0
21041633333312,-1.0289137,9.030513,4.240082,0.0,0.0,0.0
21041635712322,-0.7752745,9.059227,4.369294,0.0,0.0,0.0
21041638091333,-0.52163535,9.064013,4.321438,0.0,0.0,0.0
21041640470343,-0.23449662,9.006584,4.101298,0.0,0.0,0.0
21041642849354,0.014356935,8.987442,3.8955152,0.0,0.0,0.0
21041645228416,0.18664017,8.9826565,3.8668015,0.0,0.0,0.0
21041647607427,0.28713873,8.925228,3.991228,0.0,0.0,0.0
21041649986437,0.39720857,8.85823,4.197011,0.0,0.0,0.0
21041652365447,0.5024927,8.848659,4.287938,0.0,0.0,0.0
21041654744510,0.6221339,8.834301,4.2927237,0.0,0.0,0.0
21041657123520,0.66999036,8.829515,4.2017965,0.0,0.0,0.0
21041659502531,0.6652047,8.85823,4.091727,0.0,0.0,0.0
21041661881541,0.5838487,8.829515,4.0534415,0.0,0.0,0.0
21041664260552,0.44985065,8.79123,4.1491547,0.0,0.0,0.0
21041666639562,0.26799613,8.776874,4.331009,0.0,0.0,0.0
21041669018624,0.076570325,8.796016,4.4554358,0.0,0.0,0.0
21041671397635,-0.10049855,8.772088,4.479364,0.0,0.0,0.0
21041673776645,-0.24885355,8.676374,4.4075794,0.0,0.0,0.0
21041676155656,-0.41156548,8.705089,4.359723,0.0,0.0,0.0
21041678534718,-0.59342,8.772088,4.3501515,0.0,0.0,0.0
21041680913729,-0.72741807,8.733803,4.398008,0.0,0.0,0.0
21041683292739,-0.85184485,8.729017,4.4985065,0.0,0.0,0.0
21041685671749,-0.90448695,8.762517,4.6037908,0.0,0.0,0.0
21041688050760,-0.86141616,8.743374,4.666004,0.0,0.0,0.0
21041690429822,-0.7704889,8.738588,4.6803613,0.0,0.0,0.0
21041692808833,-0.56470615,8.815159,4.618148,0.0,0.0,0.0
21041695187843,-0.27756742,8.839087,4.4841495,0.0,0.0,0.0
21041697566854,0.023928227,8.752945,4.3740797,0.0,0.0,0.0
21041699945864,0.3397808,8.781659,4.4315076,0.0,0.0,0.0
21041702324874,0.6269195,8.762517,4.503292,0.0,0.0,0.0
21041704703937,0.89013004,8.743374,4.5559344,0.0,0.0,0.0
21041707082947,1.1294123,8.690732,4.5224347,0.0,0.0,0.0
21041709461958,1.2346965,8.681161,4.517649,0.0,0.0,0.0
21041711840968,1.2969099,8.618947,4.469793,0.0,0.0,0.0
21041714219979,1.2346965,8.599805,4.479364,0.0,0.0,0.0
21041716599041,1.0241281,8.566305,4.517649,0.0,0.0,0.0
21041718978052,0.7609176,8.52802,4.546363,0.0,0.0,0.0
21041721357062,0.5168497,8.5423765,4.6037908,0.0,0.0,0.0
21041723736072,0.28713873,8.5423765,4.6325045,0.0,0.0,0.0
21041726115083,0.023928227,8.599805,4.642076,0.0,0.0,0.0
21041728494093,-0.15792629,8.537591,4.5320063,0.0,0.0,0.0
21041730873156,-0.32063824,8.633304,4.5655055,0.0,0.0,0.0
21041733252166,-0.4354937,8.657232,4.642076,0.0,0.0,0.0
21041735631177,-0.5072784,8.666803,4.7952166,0.0,0.0,0.0
21041738010187,-0.49292147,8.662018,4.8526444,0.0,0.0,0.0
21041740389249,-0.4354937,8.671589,4.790431,0.0,0.0,0.0
21041742768260,-0.3397808,8.724232,4.7569313,0.0,0.0,0.0
21041745147270,-0.2009971,8.71466,4.718646,0.0,0.0,0.0
21041747526281,-0.09571291,8.748159,4.7808595,0.0,0.0,0.0
21041749905291,0.047856454,8.724232,4.8382874,0.0,0.0,0.0
21041752284302,0.16749759,8.743374,4.914858,0.0,0.0,0.0
21041754663364,0.2727818,8.7577305,4.962714,0.0,0.0,0.0
21041757042374,0.3493521,8.743374,4.910072,0.0,0.0,0.0
21041759421385,0.3684947,8.7673025,4.8287163,0.0,0.0,0.0
21041761800395,0.36370903,8.762517,4.733003,0.0,0.0,0.0
21041764179458,0.35413775,8.724232,4.666004,0.0,0.0,0.0
21041766558468,0.27756742,8.709874,4.6612186,0.0,0.0,0.0
21041768937479,0.14356937,8.685946,4.6755753,0.0,0.0,0.0
21041771316489,0.033499517,8.676374,4.599005,0.0,0.0,0.0
21041773695499,-0.11964113,8.671589,4.551149,0.0,0.0,0.0
21041776074562,-0.22971097,8.738588,4.45065,0.0,0.0,0.0
21041778453572,-0.3493521,8.724232,4.345366,0.0,0.0,0.0
21041780832583,-0.45942193,8.752945,4.2687955,0.0,0.0,0.0
21041783211593,-0.57906306,8.815159,4.211368,0.0,0.0,0.0
21041785590604,-0.6412765,8.886943,4.206582,0.0,0.0,0.0
21041787969666,-0.7322037,8.85823,4.182654,0.0,0.0,0.0
21041790348624,-0.7752745,8.85823,4.173083,0.0,0.0,0.0
21041792727635,-0.79920274,8.886943,4.125226,0.0,0.0,0.0
21041795106697,-0.79920274,8.949157,4.063013,0.0,0.0,0.0
21041797485708,-0.8039884,8.977871,4.0007997,0.0,0.0,0.0
21041799864718,-0.7178468,8.973084,3.952943,0.0,0.0,0.0
21041802243781,-0.63170516,9.01137,3.9098723,0.0,0.0,0.0
21041804622791,-0.47856453,9.020942,3.871587,0.0,0.0,0.0
21041807001802,-0.36370903,9.068798,3.8524444,0.0,0.0,0.0
21041809380812,-0.22013968,9.08794,3.7758741,0.0,0.0,0.0
21041811759874,-0.11964113,9.12144,3.7184465,0.0,0.0,0.0
21041814138885,-0.05742774,9.169296,3.7088752,0.0,0.0,0.0
21041816517895,0.009571291,9.193225,3.7088752,0.0,0.0,0.0
21041818896906,0.014356935,9.241081,3.737589,0.0,0.0,0.0
21041821275916,-0.009571291,9.274581,3.7184465,0.0,0.0,0.0
21041823654979,-0.09571291,9.341579,3.7280176,0.0,0.0,0.0
21041826033989,-0.16749759,9.379865,3.7280176,0.0,0.0,0.0
21041828412999,-0.2536392,9.413364,3.7040894,0.0,0.0,0.0
21041830792010,-0.36370903,9.389436,3.7088752,0.0,0.0,0.0
21041833171020,-0.45942193,9.38465,3.7328033,0.0,0.0,0.0
21041835550083,-0.5455636,9.346365,3.790231,0.0,0.0,0.0
21041837929093,-0.6029913,9.30808,3.8333018,0.0,0.0,0.0
21041840308104,-0.6412765,9.284152,3.8955152,0.0,0.0,0.0
21041842687114,-0.64606214,9.226724,3.9242291,0.0,0.0,0.0
21041845066124,-0.61734825,9.178867,3.9050865,0.0,0.0,0.0
21041847445135,-0.52163535,9.131011,3.871587,0.0,0.0,0.0
21041849824197,-0.44506502,9.097511,3.885944,0.0,0.0,0.0
21041852203208,-0.3062813,9.0544405,3.9290147,0.0,0.0,0.0
21041854582218,-0.17228323,9.01137,3.9816568,0.0,0.0,0.0
21041856961229,-0.009571291,8.953942,4.072584,0.0,0.0,0.0
21041859340291,0.10049855,8.9013,4.125226,0.0,0.0,0.0
21041861719302,0.2009971,8.843872,4.15394,0.0,0.0,0.0
21041864098312,0.27756742,8.796016,4.125226,0.0,0.0,0.0
21041866477322,0.30149564,8.729017,4.0869412,0.0,0.0,0.0
21041868856333,0.26799613,8.695518,4.072584,0.0,0.0,0.0
21041871235395,0.21535404,8.63809,4.1347976,0.0,0.0,0.0
21041873614406,0.15792629,8.623733,4.2257247,0.0,0.0,0.0
21041875993416,0.10049855,8.609376,4.316652,0.0,0.0,0.0
21041878372427,0.023928227,8.618947,4.398008,0.0,0.0,0.0
21041880751437,-0.02871387,8.623733,4.412365,0.0,0.0,0.0
21041883130499,-0.062213387,8.685946,4.4410787,0.0,0.0,0.0
21041885509510,-0.05742774,8.752945,4.479364,0.0,0.0,0.0
21041887888520,-0.014356935,8.805588,4.5128636,0.0,0.0,0.0
21041890267531,0.038285162,8.85823,4.536792,0.0,0.0,0.0
21041892646541,0.16749759,8.9348,4.6085763,0.0,0.0,0.0
21041895025604,0.3062813,8.953942,4.642076,0.0,0.0,0.0
21041897404614,0.4354937,8.9826565,4.627719,0.0,0.0,0.0
21041899783624,0.526421,8.997013,4.5894337,0.0,0.0,0.0
21041902162635,0.5838487,8.977871,4.584648,0.0,0.0,0.0
21041904541645,0.6269195,8.944371,4.618148,0.0,0.0,0.0
21041906920708,0.5838487,8.977871,4.651647,0.0,0.0,0.0
21041909299718,0.53599226,8.977871,4.6803613,0.0,0.0,0.0
21041911678729,0.43070808,8.963513,4.6899323,0.0,0.0,0.0
21041914057739,0.2440679,8.987442,4.6612186,0.0,0.0,0.0
21041916436749,0.047856454,9.025727,4.642076,0.0,0.0,0.0
21041918815812,-0.13878371,9.040084,4.627719,0.0,0.0,0.0
21041921194822,-0.31106696,9.059227,4.651647,0.0,0.0,0.0
21041923573781,-0.5312066,9.059227,4.6899323,0.0,0.0,0.0
21041925952843,-0.6795616,9.025727,4.6755753,0.0,0.0,0.0
21041928331854,-0.8279166,9.001799,4.599005,0.0,0.0,0.0
21041930710916,-0.971486,8.9826565,4.4985065,0.0,0.0,0.0
21041933089927,-1.0432707,8.973084,4.436293,0.0,0.0,0.0
21041935468937,-1.1437693,8.9108715,4.402794,0.0,0.0,0.0
21041937847947,-1.1964114,8.863015,4.398008,0.0,0.0,0.0
21041940226958,-1.2442678,8.829515,4.4602213,0.0,0.0,0.0
21041942606020,-1.2634103,8.786445,4.4745784,0.0,0.0,0.0
21041944988312,-1.2490535,8.733803,4.3740797,0.0,0.0,0.0
21041947364041,-1.1820544,8.709874,4.321438,0.0,0.0,0.0
21041949743052,-1.0624132,8.652447,4.278367,0.0,0.0,0.0
21041952122062,-0.91884387,8.60459,4.273581,0.0,0.0,0.0
21041954501124,-0.79441714,8.599805,4.345366,0.0,0.0,0.0
21041956880083,-0.6987042,8.623733,4.398008,0.0,0.0,0.0
21041959259145,-0.6556334,8.662018,4.4171505,0.0,0.0,0.0
21041961638156,-0.6269195,8.666803,4.398008,0.0,0.0,0.0
21041964017166,-0.63170516,8.752945,4.388437,0.0,0.0,0.0
21041966396229,-0.6652047,8.834301,4.3262234,0.0,0.0,0.0
21041968775239,-0.6987042,8.915657,4.2831526,0.0,0.0,0.0
21041971154249,-0.72741807,8.958728,4.2927237,0.0,0.0,0.0
21041973533260,-0.7369894,8.9826565,4.321438,0.0,0.0,0.0
21041975912270,-0.7609176,9.040084,4.331009,0.0,0.0,0.0
21041978291333,-0.74177504,9.083155,4.316652,0.0,0.0,0.0
21041980670343,-0.70348984,9.107083,4.254439,0.0,0.0,0.0
21041983049354,-0.61734825,9.12144,4.173083,0.0,0.0,0.0
21041985428364,-0.47856453,9.159725,4.130012,0.0,0.0,0.0
21041987807427,-0.31106696,9.140582,4.139583,0.0,0.0,0.0
21041990186437,-0.15314065,9.12144,4.2017965,0.0,0.0,0.0
21041992565447,-0.014356935,9.111869,4.2161536,0.0,0.0,0.0
21041994944458,0.1052842,9.107083,4.2017965,0.0,0.0,0.0
21041997323468,0.2009971,9.102298,4.1635113,0.0,0.0,0.0
21041999702479,0.29192436,9.12144,4.115655,0.0,0.0,0.0
21042002081541,0.3589234,9.092726,4.0677986,0.0,0.0,0.0
21042004460552,0.4211368,9.073584,4.024728,0.0,0.0,0.0
21042006839562,0.44985065,9.097511,3.9673,0.0,0.0,0.0
21042009218572,0.42592242,9.092726,3.9242291,0.0,0.0,0.0
21042011597635,0.37806597,9.092726,3.8955152,0.0,0.0,0.0
21042013976645,0.28713873,9.08794,3.885944,0.0,0.0,0.0
21042016355656,0.16749759,9.073584,3.8620157,0.0,0.0,0.0
21042018734666,0.02871387,9.102298,3.8380876,0.0,0.0,0.0
21042021113677,-0.10049855,9.102298,3.7758741,0.0,0.0,0.0
21042023492739,-0.19142582,9.107083,3.7088752,0.0,0.0,0.0
21042025871749,-0.2727818,9.078369,3.6370904,0.0,0.0,0.0
21042028250760,-0.3493521,9.059227,3.5844483,0.0,0.0,0.0
21042030629770,-0.37806597,9.040084,3.5796626,0.0,0.0,0.0
21042033008781,-0.38763726,9.016156,3.641876,0.0,0.0,0.0
21042035387843,-0.35413775,8.958728,3.6849468,0.0,0.0,0.0
21042037766854,-0.32542387,8.9348,3.6610186,0.0,0.0,0.0
21042040145864,-0.23449662,8.906086,3.5940197,0.0,0.0,0.0
21042042524874,-0.124426775,8.9013,3.5174494,0.0,0.0,0.0
21042044903885,0.0047856453,8.896515,3.4983068,0.0,0.0,0.0
21042047282947,0.12921242,8.920443,3.5413775,0.0,0.0,0.0
21042049661958,0.22971097,8.920443,3.5988052,0.0,0.0,0.0
21042052040968,0.33020952,8.920443,3.656233,0.0,0.0,0.0
21042054419979,0.42592242,8.9348,3.6849468,0.0,0.0,0.0
21042056798989,0.5024927,8.968299,3.6801612,0.0,0.0,0.0
21042059178052,0.5455636,9.016156,3.6227336,0.0,0.0,0.0
21042061557062,0.59342,9.064013,3.574877,0.0,0.0,0.0
21042063936072,0.6125626,9.073584,3.5509489,0.0,0.0,0.0
21042066315083,0.6029913,9.092726,3.5844483,0.0,0.0,0.0
21042068694093,0.5407779,9.116654,3.6753755,0.0,0.0,0.0
21042071073156,0.47377887,9.097511,3.737589,0.0,0.0,0.0
21042073452166,0.41156548,9.08794,3.7854455,0.0,0.0,0.0
21042075831177,0.34456646,9.107083,3.804588,0.0,0.0,0.0
21042078210187,0.28235307,9.111869,3.7854455,0.0,0.0,0.0
21042080589197,0.23928227,9.107083,3.7758741,0.0,0.0,0.0
21042082968260,0.19142582,9.078369,3.8237305,0.0,0.0,0.0
21042085347270,0.15792629,9.102298,3.885944,0.0,0.0,0.0
21042087726281,0.124426775,9.102298,3.9242291,0.0,0.0,0.0
21042090105291,0.11964113,9.107083,3.9242291,0.0,0.0,0.0
21042092484354,0.148355,9.102298,3.8763726,0.0,0.0,0.0
21042094863364,0.18185452,9.107083,3.8524444,0.0,0.0,0.0
21042097242374,0.2440679,9.078369,3.8572302,0.0,0.0,0.0
21042099621385,0.31106696,9.044869,3.9146578,0.0,0.0,0.0
21042102000395,0.4019942,9.025727,3.9673,0.0,0.0,0.0
21042104379406,0.44985065,9.016156,4.019942,0.0,0.0,0.0
21042106758468,0.5168497,8.992228,4.0390844,0.0,0.0,0.0
21042109137479,0.56470615,8.977871,4.0534415,0.0,0.0,0.0
21042111516489,0.6029913,8.944371,4.082155,0.0,0.0,0.0
21042113895499,0.5982057,8.920443,4.106084,0.0,0.0,0.0
21042116274510,0.5838487,8.9108715,4.1635113,0.0,0.0,0.0
21042118653572,0.526421,8.882157,4.2161536,0.0,0.0,0.0
21042121032583,0.47377887,8.896515,4.287938,0.0,0.0,0.0
21042123411593,0.36370903,8.9108715,4.3501515,0.0,0.0,0.0
21042125790604,0.2632105,8.925228,4.3836513,0.0,0.0,0.0
21042128169666,0.148355,8.891729,4.3836513,0.0,0.0,0.0
21042130548677,0.047856454,8.906086,4.398008,0.0,0.0,0.0
21042132927687,-0.0526421,8.930014,4.412365,0.0,0.0,0.0
21042135306697,-0.11485548,8.9013,4.4602213,0.0,0.0,0.0
21042137685708,-0.17228323,8.891729,4.508078,0.0,0.0,0.0
21042140064770,-0.2009971,8.882157,4.5320063,0.0,0.0,0.0
21042142443781,-0.21535404,8.848659,4.5415773,0.0,0.0,0.0
21042144822791,-0.22013968,8.829515,4.5320063,0.0,0.0,0.0
21042147201802,-0.14356937,8.810373,4.5224347,0.0,0.0,0.0
21042149580812,-0.05742774,8.786445,4.5128636,0.0,0.0,0.0
21042151959874,0.019142581,8.7577305,4.5224347,0.0,0.0,0.0
21042154338885,0.1052842,8.690732,4.5224347,0.0,0.0,0.0
21042156717895,0.16749759,8.647661,4.536792,0.0,0.0,0.0
21042159096906,0.2727818,8.652447,4.551149,0.0,0.0,0.0
21042161475916,0.3493521,8.618947,4.56072,0.0,0.0,0.0
21042163854979,0.36370903,8.595019,4.5128636,0.0,0.0,0.0
21042166233989,0.37806597,8.585447,4.4745784,0.0,0.0,0.0
21042168612999,0.3397808,8.599805,4.4602213,0.0,0.0,0.0
21042170992010,0.28713873,8.60459,4.465007,0.0,0.0,0.0
21042173371020,0.19621146,8.609376,4.508078,0.0,0.0,0.0
21042175750083,0.076570325,8.633304,4.5224347,0.0,0.0,0.0
21042178129093,-0.02871387,8.666803,4.5320063,0.0,0.0,0.0
21042180508104,-0.11964113,8.71466,4.5128636,0.0,0.0,0.0
21042182887114,-0.23928227,8.729017,4.508078,0.0,0.0,0.0
21042185266177,-0.3397808,8.738588,4.5415773,0.0,0.0,0.0
21042187645187,-0.41635114,8.71466,4.56072,0.0,0.0,0.0
21042190024197,-0.47377887,8.724232,4.5559344,0.0,0.0,0.0
21042192403208,-0.49292147,8.690732,4.551149,0.0,0.0,0.0
21042194782218,-0.51206404,8.690732,4.546363,0.0,0.0,0.0
21042197161281,-0.51206404,8.681161,4.56072,0.0,0.0,0.0
21042199540291,-0.5072784,8.685946,4.5559344,0.0,0.0,0.0
21042201919249,-0.4354937,8.671589,4.503292,0.0,0.0,0.0
21042204298312,-0.36370903,8.657232,4.508078,0.0,0.0,0.0
21042206677322,-0.28235307,8.647661,4.503292,0.0,0.0,0.0
21042209056385,-0.22013968,8.685946,4.4602213,0.0,0.0,0.0
21042211435395,-0.13878371,8.690732,4.388437,0.0,0.0,0.0
21042213814406,-0.09571291,8.738588,4.3740797,0.0,0.0,0.0
21042216193416,-0.08135597,8.743374,4.3645086,0.0,0.0,0.0
21042218572479,-0.1052842,8.7577305,4.3932223,0.0,0.0,0.0
21042220951489,-0.13878371,8.805588,4.426722,0.0,0.0,0.0
21042223330499,-0.18185452,8.800801,4.4171505,0.0,0.0,0.0
21042225709510,-0.23928227,8.810373,4.388437,0.0,0.0,0.0
21042228088520,-0.29192436,8.843872,4.331009,0.0,0.0,0.0
21042230467531,-0.3589234,8.853444,4.26401,0.0,0.0,0.0
21042232846593,-0.38763726,8.829515,4.273581,0.0,0.0,0.0
21042235225604,-0.41156548,8.863015,4.321438,0.0,0.0,0.0
21042237604614,-0.4211368,8.867801,4.369294,0.0,0.0,0.0
21042239983624,-0.3924229,8.863015,4.3836513,0.0,0.0,0.0
21042242362687,-0.3684947,8.9013,4.3645086,0.0,0.0,0.0
21042244741697,-0.31106696,8.949157,4.3070807,0.0,0.0,0.0
21042247120708,-0.22492532,8.977871,4.26401,0.0,0.0,0.0
21042249499718,-0.13399807,8.973084,4.23051,0.0,0.0,0.0
21042251878729,-0.076570325,8.987442,4.2352962,0.0,0.0,0.0
21042254257791,0.019142581,8.992228,4.2592244,0.0,0.0,0.0
21042256636802,0.09571291,9.006584,4.2687955,0.0,0.0,0.0
21042259015812,0.17228323,8.992228,4.2448673,0.0,0.0,0.0
21042261394822,0.22971097,8.973084,4.1922255,0.0,0.0,0.0
21042263773833,0.24885355,8.987442,4.1491547,0.0,0.0,0.0
21042266152895,0.27756742,8.968299,4.1635113,0.0,0.0,0.0
21042268531906,0.29192436,8.968299,4.1635113,0.0,0.0,0.0
21042270910916,0.3062813,8.949157,4.182654,0.0,0.0,0.0
21042273289927,0.27756742,8.949157,4.2017965,0.0,0.0,0.0
21042275668937,0.2536392,8.949157,4.1922255,0.0,0.0,0.0
21042278047999,0.19142582,8.930014,4.173083,0.0,0.0,0.0
21042280427010,0.14356937,8.925228,4.15394,0.0,0.0,0.0
21042282806020,0.062213387,8.925228,4.1204405,0.0,0.0,0.0
21042285185031,0.0,8.949157,4.091727,0.0,0.0,0.0
21042287564093,-0.033499517,8.953942,4.139583,0.0,0.0,0.0
21042289943104,-0.07178468,8.958728,4.168297,0.0,0.0,0.0
21042292322114,-0.08135597,8.953942,4.197011,0.0,0.0,0.0
21042294701124,-0.07178468,8.973084,4.1922255,0.0,0.0,0.0
21042297080135,-0.07178468,8.963513,4.182654,0.0,0.0,0.0
21042299459197,-0.023928227,8.949157,4.168297,0.0,0.0,0.0
21042301838156,-0.009571291,8.944371,4.1635113,0.0,0.0,0.0
21042304217218,0.043070808,8.944371,4.1778684,0.0,0.0,0.0
21042306596229,0.11964113,8.925228,4.23051,0.0,0.0,0.0
21042308975239,0.22971097,8.9013,4.2687955,0.0,0.0,0.0
21042311354302,0.31106696,8.886943,4.2975097,0.0,0.0,0.0
21042313733312,0.34456646,8.85823,4.26401,0.0,0.0,0.0
21042316112322,0.37328035,8.834301,4.206582,0.0,0.0,0.0
21042318491333,0.37806597,8.786445,4.1874394,0.0,0.0,0.0
21042320870343,0.32542387,8.800801,4.1874394,0.0,0.0,0.0
21042323249406,0.29192436,8.776874,4.2257247,0.0,0.0,0.0
21042325628416,0.22013968,8.786445,4.2352962,0.0,0.0,0.0
21042328007427,0.148355,8.810373,4.23051,0.0,0.0,0.0
21042330386437,0.0526421,8.843872,4.211368,0.0,0.0,0.0
21042332765499,-0.014356935,8.85823,4.182654,0.0,0.0,0.0
21042335144510,-0.076570325,8.896515,4.1491547,0.0,0.0,0.0
21042337523520,-0.13399807,8.891729,4.1491547,0.0,0.0,0.0
21042339902531,-0.13878371,8.9348,4.1635113,0.0,0.0,0.0
21042342281541,-0.13399807,8.939586,4.197011,0.0,0.0,0.0
21042344660604,-0.10049855,8.944371,4.2017965,0.0,0.0,0.0
21042347039614,-0.02871387,8.977871,4.173083,0.0,0.0,0.0
21042349418624,0.019142581,8.9826565,4.130012,0.0,0.0,0.0
21042351797635,0.18664017,8.963513,4.0534415,0.0,0.0,0.0
21042354176697,0.11964113,9.111869,4.106084,0.0,0.0,0.0
21042356555708,0.4354937,8.863015,3.3355947,0.0,0.0,0.0
21042358934718,0.25842485,9.772287,4.168297,0.0,0.0,0.0
21042361313729,0.4019942,9.102298,4.6085763,0.0,0.0,0.0
21042363692739,0.2440679,8.671589,4.398008,0.0,0.0,0.0
21042366071802,0.7178468,9.293723,4.197011,0.0,0.0,0.0
21042368450812,0.6269195,9.556933,4.26401,0.0,0.0,0.0
21042370829822,0.19621146,9.073584,4.019942,0.0,0.0,0.0
21042373208833,0.27756742,8.997013,3.5174494,0.0,0.0,0.0
21042375587843,0.5455636,9.619147,3.8380876,0.0,0.0,0.0
21042377966906,0.52163535,9.049655,4.034299,0.0,0.0,0.0
21042380345916,0.038285162,8.896515,4.240082,0.0,0.0,0.0
21042382724927,0.33020952,9.164511,4.072584,0.0,0.0,0.0
21042385103937,0.32063824,9.288938,4.048656,0.0,0.0,0.0
21042387482999,0.38285163,8.882157,3.790231,0.0,0.0,0.0
21042389862010,0.5838487,8.408379,3.4073794,0.0,0.0,0.0
21042392241020,0.42592242,8.551949,3.8476589,0.0,0.0,0.0
21042394620031,0.72741807,7.393822,2.5555346,0.0,0.0,0.0
21042396999041,1.3495519,8.370093,1.8903298,0.0,0.0,0.0
21042399378104,0.44027936,8.843872,0.90448695,0.0,0.0,0.0
21042401757114,-0.014356935,9.131011,1.2634103,0.0,0.0,0.0
21042404136124,0.37806597,9.317652,2.4789643,0.0,0.0,0.0
21042406515135,0.6029913,9.97807,5.005785,0.0,0.0,0.0
21042408894145,0.4019942,10.188639,7.1784678,0.0,0.0,0.0
21042411273208,0.44985065,9.327223,7.23111,0.0,0.0,0.0
21042413652218,1.9334008,8.226524,5.804988,0.0,0.0,0.0
21042416031229,2.2731814,10.949556,5.7379885,0.0,0.0,0.0
21042418410239,1.8233309,10.135997,1.9669002,0.0,0.0,0.0
21042420789249,2.0386848,11.877972,0.02871387,0.0,0.0,0.0
21042423168312,1.7371893,7.958528,-4.599005,0.0,0.0,0.0
21042425547322,0.55034924,8.915657,-0.91884387,0.0,0.0,0.0
21042427926333,-1.0815558,13.596018,7.0061846,0.0,0.0,0.0
21042430305343,-1.0432707,9.690931,5.7858453,0.0,0.0,0.0
21042432684406,-2.8426733,9.815358,2.7852457,0.0,0.0,0.0
21042435063416,-2.3114667,8.23131,-2.6895328,0.0,0.0,0.0
21042437442427,-0.45942193,9.623933,0.062213387,0.0,0.0,0.0
21042439821437,0.13878371,10.566705,7.704889,0.0,0.0,0.0
21042442200447,0.7752745,8.776874,10.126426,0.0,0.0,0.0
21042444579510,1.8329022,7.771888,8.188239,0.0,0.0,0.0
21042446958520,2.7421749,9.695718,5.7523456,0.0,0.0,0.0
21042449337531,2.1104696,5.771488,0.8327023,0.0,0.0,0.0
21042451716541,1.9860427,9.7196455,2.2061825,0.0,0.0,0.0
21042454095552,2.388037,8.489735,0.93320084,0.0,0.0,0.0
21042456474614,2.4933212,9.781859,4.130012,0.0,0.0,0.0
21042458853624,2.120041,6.8578296,4.8239303,0.0,0.0,0.0
21042461232635,2.5411777,9.561719,7.3459654,0.0,0.0,0.0
21042463611645,2.0434706,8.269595,5.690132,0.0,0.0,0.0
21042465990708,2.0865414,8.566305,4.867001,0.0,0.0,0.0
21042468369718,1.6462619,10.112068,3.7663028,0.0,0.0,0.0
21042470748729,2.4837499,8.882157,1.4404793,0.0,0.0,0.0
21042473127739,2.0482562,10.8682,3.8955152,0.0,0.0,0.0
21042475506749,2.120041,6.541977,3.0053852,0.0,0.0,0.0
21042477885760,1.4404793,9.915857,7.331609,0.0,0.0,0.0
21042480264822,0.56470615,6.1064835,5.4412785,0.0,0.0,0.0
21042482643833,-0.6843473,8.963513,8.709874,0.0,0.0,0.0
21042485022843,-1.5553347,7.283752,6.3601227,0.0,0.0,0.0
21042487401854,-2.143969,8.288737,5.3886366,0.0,0.0,0.0
21042489780916,-2.8666015,8.652447,3.6849468,0.0,0.0,0.0
21042492159927,-2.062613,7.3698936,2.589034,0.0,0.0,0.0
21042494538937,-1.8855443,9.145369,4.5320063,0.0,0.0,0.0
21042496917947,-1.5026926,7.7383885,4.651647,0.0,0.0,0.0
21042499296958,-1.038485,9.547362,6.1399827,0.0,0.0,0.0
21042501676020,-0.35413775,8.298309,4.15394,0.0,0.0,0.0
21042504055031,0.5982057,10.131211,3.737589,0.0,0.0,0.0
21042506434041,0.9762716,9.499506,2.0578275,0.0,0.0,0.0
21042508813052,1.9190438,10.41835,2.3114667,0.0,0.0,0.0
21042511192114,2.120041,9.781859,2.321038,0.0,0.0,0.0
21042513571124,2.5459633,10.107283,3.4839497,0.0,0.0,0.0
21042515950135,1.7994026,9.394221,4.249653,0.0,0.0,0.0
21042518329145,1.9046868,9.619147,4.867001,0.0,0.0,0.0
21042520708156,1.402194,9.078369,3.9577286,0.0,0.0,0.0
21042523087218,1.119841,9.255438,3.493521,0.0,0.0,0.0
21042525466229,0.86141616,8.346166,3.0197423,0.0,0.0,0.0
21042527845239,0.79920274,8.920443,4.2017965,0.0,0.0,0.0
21042530224249,0.4354937,8.169097,4.4745784,0.0,0.0,0.0
21042532603312,-0.13399807,8.695518,5.465207,0.0,0.0,0.0
21042534982322,-0.15792629,8.518449,5.0775695,0.0,0.0,0.0
21042537361333,-0.35413775,8.886943,4.398008,0.0,0.0,0.0
21042539740343,-0.51206404,9.260223,3.4743786,0.0,0.0,0.0
21042542119354,-0.6843473,9.221938,2.6225336,0.0,0.0,0.0
21042544498416,-0.4833502,9.427721,2.5507488,0.0,0.0,0.0
21042546877427,-0.55034924,9.3511505,2.469393,0.0,0.0,0.0
21042549256437,-0.83748794,9.312865,2.9575288,0.0,0.0,0.0
21042551635447,-0.81834537,9.19801,3.7663028,0.0,0.0,0.0
21042554014458,-0.91405827,8.925228,4.0295134,0.0,0.0,0.0
21042556393520,-1.2442678,9.035298,4.4410787,0.0,0.0,0.0
21042558772531,-1.3686945,8.776874,4.962714,0.0,0.0,0.0
21042561151541,-0.9523434,8.796016,5.7379885,0.0,0.0,0.0
21042563530552,-0.2632105,8.829515,5.4412785,0.0,0.0,0.0
21042565909562,0.09092726,8.930014,4.699504,0.0,0.0,0.0
21042568288624,0.95712906,8.30788,4.005585,0.0,0.0,0.0
21042570667635,1.8185452,8.346166,4.1778684,0.0,0.0,0.0
21042573046645,2.0003998,8.508878,4.6085763,0.0,0.0,0.0
21042575425656,2.1822543,8.451449,4.752146,0.0,0.0,0.0
21042577804718,2.2205393,8.451449,4.3405805,0.0,0.0,0.0
21042580183729,2.053042,8.671589,3.6849468,0.0,0.0,0.0
21042582562739,1.3686945,8.977871,3.2590244,0.0,0.0,0.0
21042584941749,0.86141616,8.896515,3.1058838,0.0,0.0,0.0
21042587320760,0.3684947,9.083155,3.345166,0.0,0.0,0.0
21042589699822,-0.3062813,9.269794,3.7806597,0.0,0.0,0.0
21042592078833,-0.7513463,9.360723,4.412365,0.0,0.0,0.0
21042594457843,-0.971486,9.078369,4.4458647,0.0,0.0,0.0
21042596836854,-1.1581261,9.178867,4.3405805,0.0,0.0,0.0
21042599215916,-1.2251252,8.9826565,4.254439,0.0,0.0,0.0
21042601594927,-0.8279166,8.551949,4.402794,0.0,0.0,0.0
21042603973937,-0.40677986,8.834301,4.9052863,0.0,0.0,0.0
21042606352947,0.038285162,8.819944,4.9579287,0.0,0.0,0.0
21042608732010,0.55034924,8.609376,4.924429,0.0,0.0,0.0
21042611111020,0.98584294,8.671589,4.5272202,0.0,0.0,0.0
21042613490031,1.1389836,9.030513,4.1874394,0.0,0.0,0.0
21042615869041,1.3495519,8.877372,3.7328033,0.0,0.0,0.0
21042618248052,1.4787644,9.040084,3.8141594,0.0,0.0,0.0
21042620627062,1.5936198,9.068798,4.063013,0.0,0.0,0.0
21042623006124,1.6558332,9.2793665,4.402794,0.0,0.0,0.0
21042625385135,1.8089739,9.193225,4.4554358,0.0,0.0,0.0
21042627764145,2.0578275,9.202796,4.345366,0.0,0.0,0.0
21042630143156,2.0578275,9.255438,4.2592244,0.0,0.0,0.0
21042632522218,2.143969,9.044869,4.254439,0.0,0.0,0.0
21042634901229,1.9381863,8.925228,4.4602213,0.0,0.0,0.0
21042637280239,1.6462619,8.776874,4.618148,0.0,0.0,0.0
21042639659249,1.1150553,8.662018,4.8095737,0.0,0.0,0.0
21042642038260,0.65084773,8.580662,4.895715,0.0,0.0,0.0
21042644417322,-0.019142581,8.422736,4.9770713,0.0,0.0,0.0
21042646796333,-0.47377887,8.322237,4.962714,0.0,0.0,0.0
21042649175343,-0.9284152,8.408379,4.9531426,0.0,0.0,0.0
21042651554354,-1.1964114,8.379665,4.8526444,0.0,0.0,0.0
21042653933416,-1.4356936,8.427522,4.776074,0.0,0.0,0.0
21042656312427,-1.416551,8.52802,4.752146,0.0,0.0,0.0
21042658691437,-1.2394822,8.642876,4.7952166,0.0,0.0,0.0
21042661070447,-0.9619147,8.595019,4.6037908,0.0,0.0,0.0
21042663449458,-0.49292147,8.867801,4.4745784,0.0,0.0,0.0
21042665828520,0.023928227,8.85823,4.1347976,0.0,0.0,0.0
21042668207531,0.46899325,8.800801,4.0390844,0.0,0.0,0.0
21042670586541,0.82313097,8.805588,4.254439,0.0,0.0,0.0
21042672965552,1.2442678,8.733803,4.599005,0.0,0.0,0.0
21042675344562,1.5074782,8.671589,4.871787,0.0,0.0,0.0
21042677723624,1.8041883,8.499306,4.895715,0.0,0.0,0.0
21042680102635,1.9381863,8.475378,4.8861437,0.0,0.0,0.0
21042682481645,2.024328,8.34138,4.8191447,0.0,0.0,0.0
21042684860656,1.8999012,8.293523,4.867001,0.0,0.0,0.0
21042687239718,1.6797615,8.336594,4.9196434,0.0,0.0,0.0
21042689618729,1.2251252,8.355737,5.015356,0.0,0.0,0.0
21042691997739,0.8279166,8.374879,5.0249276,0.0,0.0,0.0
21042694376749,0.38763726,8.52802,4.9340005,0.0,0.0,0.0
21042696755812,0.047856454,8.547162,4.5798626,0.0,0.0,0.0
21042699134822,-0.34456646,8.590233,4.2687955,0.0,0.0,0.0
21042701513833,-0.64606214,8.700303,4.125226,0.0,0.0,0.0
21042703892843,-0.95712906,8.805588,4.2017965,0.0,0.0,0.0
21042706271854,-1.1294123,8.762517,4.3788652,0.0,0.0,0.0
21042708650916,-1.2394822,8.843872,4.613362,0.0,0.0,0.0
21042711029927,-1.1437693,8.867801,4.6612186,0.0,0.0,0.0
21042713408937,-0.91884387,8.839087,4.6085763,0.0,0.0,0.0
21042715787947,-0.5599205,8.772088,4.4554358,0.0,0.0,0.0
21042718166958,-0.19621146,8.79123,4.412365,0.0,0.0,0.0
21042720546020,0.23928227,8.743374,4.369294,0.0,0.0,0.0
21042722925031,0.6652047,8.810373,4.4171505,0.0,0.0,0.0
21042725304041,1.0863415,8.7673025,4.493721,0.0,0.0,0.0
21042727683052,1.4548361,8.738588,4.4745784,0.0,0.0,0.0
21042730062114,1.7802601,8.9013,4.3932223,0.0,0.0,0.0
21042732441124,2.105684,8.930014,4.1204405,0.0,0.0,0.0
21042734820135,2.239682,9.035298,3.952943,0.0,0.0,0.0
21042737199145,2.37368,9.08794,3.8285162,0.0,0.0,0.0
21042739578104,2.359323,9.236296,3.9338005,0.0,0.0,0.0
21042741957218,2.2827528,9.221938,4.0151563,0.0,0.0,0.0
21042744336229,2.1008983,9.303294,4.15394,0.0,0.0,0.0
21042746715239,1.9094725,9.327223,4.1443686,0.0,0.0,0.0
21042749094249,1.6510476,9.379865,4.1108694,0.0,0.0,0.0
21042751473260,1.416551,9.332008,4.0438704,0.0,0.0,0.0
21042753852322,1.2107682,9.303294,4.0869412,0.0,0.0,0.0
21042756231333,0.9667004,9.317652,4.2592244,0.0,0.0,0.0
21042758610343,0.8279166,9.202796,4.412365,0.0,0.0,0.0
21042760989354,0.71306115,9.169296,4.465007,0.0,0.0,0.0
21042763368416,0.6556334,9.265009,4.436293,0.0,0.0,0.0
21042765747427,0.5886344,9.284152,4.3357944,0.0,0.0,0.0
21042768126437,0.6221339,9.245867,4.106084,0.0,0.0,0.0
21042770505447,0.60777694,9.375079,3.9338005,0.0,0.0,0.0
21042772884458,0.57427746,9.432507,3.8333018,0.0,0.0,0.0
21042775263520,0.5886344,9.41815,3.8907297,0.0,0.0,0.0
21042777642531,0.64606214,9.427721,3.9673,0.0,0.0,0.0
21042780021541,0.5407779,9.513863,3.9864426,0.0,0.0,0.0
21042782400552,0.37328035,9.4229355,3.8811584,0.0,0.0,0.0
21042784779614,0.41635114,9.188439,3.6753755,0.0,0.0,0.0
21042787158624,0.3589234,9.12144,3.6275191,0.0,0.0,0.0
21042789537635,0.31585258,9.025727,3.8763726,0.0,0.0,0.0
21042791916645,0.5407779,8.71466,4.130012,0.0,0.0,0.0
21042794295656,0.6125626,8.7673025,4.2257247,0.0,0.0,0.0
21042796674718,0.5838487,8.79123,3.9673,0.0,0.0,0.0
21042799053729,0.4833502,8.748159,3.7328033,0.0,0.0,0.0
21042801432739,0.43070808,8.781659,3.5940197,0.0,0.0,0.0
21042803811749,0.09092726,8.973084,3.603591,0.0,0.0,0.0
21042806190812,-0.18664017,8.987442,3.6993039,0.0,0.0,0.0
21042808569822,-0.4833502,9.097511,3.7710886,0.0,0.0,0.0
21042810948833,-0.8805587,9.274581,3.7136607,0.0,0.0,0.0
21042813327843,-1.2490535,9.322437,3.5940197,0.0,0.0,0.0
21042815706854,-1.430908,9.250652,3.4791641,0.0,0.0,0.0
21042818085916,-1.6175481,9.399008,3.4791641,0.0,0.0,0.0
21042820464927,-1.6701902,9.332008,3.4839497,0.0,0.0,0.0
21042822843937,-1.5936198,9.188439,3.6131623,0.0,0.0,0.0
21042825222947,-1.3974084,9.19801,3.7998023,0.0,0.0,0.0
21042827601958,-1.2107682,9.135797,3.9098723,0.0,0.0,0.0
21042829981020,-0.89013004,9.01137,4.0007997,0.0,0.0,0.0
21042832360031,-0.5455636,8.920443,3.9433718,0.0,0.0,0.0
21042834739041,-0.21535404,8.944371,3.8620157,0.0,0.0,0.0
21042837118052,0.23449662,9.020942,3.7998023,0.0,0.0,0.0
21042839497114,0.3062813,9.30808,4.005585,0.0,0.0,0.0
21042841876124,0.6125626,9.265009,3.8380876,0.0,0.0,0.0
21042844255135,0.55513483,9.518648,3.5509489,0.0,0.0,0.0
21042846634145,0.33020952,9.638289,3.196811,0.0,0.0,0.0
21042849013156,-0.019142581,9.695718,3.3164523,0.0,0.0,0.0
21042851392218,-0.2632105,9.690931,3.6849468,0.0,0.0,0.0
21042853771229,-0.65084773,9.595219,3.9816568,0.0,0.0,0.0
21042856150239,-0.9810573,9.509077,4.115655,0.0,0.0,0.0
21042858529249,-1.0671989,9.365508,4.1491547,0.0,0.0,0.0
21042860908312,-1.1533405,9.303294,4.101298,0.0,0.0,0.0
21042863287322,-1.2442678,9.092726,3.9577286,0.0,0.0,0.0
21042865666333,-1.1294123,8.944371,3.8668015,0.0,0.0,0.0
21042868045343,-0.9762716,8.877372,3.8524444,0.0,0.0,0.0
21042870424354,-0.81834537,8.7673025,3.8955152,0.0,0.0,0.0
21042872803416,-0.64606214,8.652447,3.9768713,0.0,0.0,0.0
21042875182427,-0.4546363,8.63809,3.938586,0.0,0.0,0.0
21042877561437,-0.37328035,8.633304,3.7615173,0.0,0.0,0.0
21042879940447,-0.37328035,8.642876,3.5700915,0.0,0.0,0.0
21042882319510,-0.39720857,8.695518,3.397808,0.0,0.0,0.0
21042884698468,-0.6221339,8.815159,3.3643086,0.0,0.0,0.0
21042887077531,-0.83748794,8.781659,3.4217365,0.0,0.0,0.0
21042889456541,-1.0671989,8.848659,3.6131623,0.0,0.0,0.0
21042891835552,-1.2634103,8.848659,3.6801612,0.0,0.0,0.0
21042894214614,-1.4883357,8.9013,3.7471602,0.0,0.0,0.0
21042896593624,-1.6223338,8.853444,3.7184465,0.0,0.0,0.0
21042898972635,-1.6606189,8.843872,3.7136607,0.0,0.0,0.0
21042901351645,-1.6175481,8.781659,3.7280176,0.0,0.0,0.0
21042903730708,-1.5074782,8.748159,3.8237305,0.0,0.0,0.0
21042906109718,-1.3160524,8.685946,3.9146578,0.0,0.0,0.0
21042908488729,-1.0863415,8.676374,3.9960139,0.0,0.0,0.0
21042910867739,-0.8327023,8.700303,3.9720855,0.0,0.0,0.0
21042913246749,-0.5886344,8.709874,3.8763726,0.0,0.0,0.0
21042915625812,-0.36370903,8.738588,3.737589,0.0,0.0,0.0
21042918004822,-0.23449662,8.781659,3.6514473,0.0,0.0,0.0
21042920383833,-0.11485548,8.82473,3.6658044,0.0,0.0,0.0
21042922762843,-0.047856454,8.834301,3.7663028,0.0,0.0,0.0
21042925141906,-0.076570325,8.896515,3.8907297,0.0,0.0,0.0
21042927520916,-0.13878371,8.925228,3.938586,0.0,0.0,0.0
21042929899927,-0.22013968,9.025727,3.9864426,0.0,0.0,0.0
21042932278937,-0.34456646,9.035298,3.9720855,0.0,0.0,0.0
21042934657947,-0.526421,9.102298,4.0390844,0.0,0.0,0.0
21042937037010,-0.6795616,9.078369,4.15394,0.0,0.0,0.0
21042939416020,-0.8039884,9.044869,4.273581,0.0,0.0,0.0
21042941795031,-0.9092726,8.9348,4.388437,0.0,0.0,0.0
21042944174041,-1.0001999,8.877372,4.4602213,0.0,0.0,0.0
21042946553104,-1.0911272,8.772088,4.45065,0.0,0.0,0.0
21042948932114,-1.1533405,8.681161,4.369294,0.0,0.0,0.0
21042951311124,-1.268196,8.63809,4.321438,0.0,0.0,0.0
21042953690135,-1.3974084,8.60459,4.302295,0.0,0.0,0.0
21042956069145,-1.550549,8.566305,4.321438,0.0,0.0,0.0
21042958448208,-1.698904,8.532805,4.3501515,0.0,0.0,0.0
21042960827218,-1.8329022,8.532805,4.398008,0.0,0.0,0.0
21042963206229,-1.9238294,8.52802,4.3932223,0.0,0.0,0.0
21042965585239,-1.9669002,8.571091,4.388437,0.0,0.0,0.0
21042967964302,-1.9334008,8.599805,4.331009,0.0,0.0,0.0
21042970343312,-1.861616,8.647661,4.331009,0.0,0.0,0.0
21042972722322,-1.6941184,8.676374,4.369294,0.0,0.0,0.0
21042975101333,-1.4548361,8.695518,4.4410787,0.0,0.0,0.0
21042977480395,-1.18684,8.685946,4.4985065,0.0,0.0,0.0
21042979859406,-0.9092726,8.685946,4.5224347,0.0,0.0,0.0
21042982238416,-0.5982057,8.671589,4.503292,0.0,0.0,0.0
21042984617427,-0.26799613,8.657232,4.469793,0.0,0.0,0.0
21042986996385,0.023928227,8.657232,4.4745784,0.0,0.0,0.0
21042989375499,0.24885355,8.642876,4.503292,0.0,0.0,0.0
21042991754510,0.4019942,8.628518,4.599005,0.0,0.0,0.0
21042994133520,0.5407779,8.642876,4.6612186,0.0,0.0,0.0
21042996512531,0.60777694,8.662018,4.651647,0.0,0.0,0.0
21042998891541,0.60777694,8.719446,4.56072,0.0,0.0,0.0
21043001270604,0.59342,8.781659,4.4315076,0.0,0.0,0.0
21043003649614,0.4977071,8.79123,4.354937,0.0,0.0,0.0
21043006028624,0.38763726,8.843872,4.359723,0.0,0.0,0.0
21043008407635,0.28235307,8.997013,4.517649,0.0,0.0,0.0
21043010786697,0.19142582,8.7673025,4.3070807,0.0,0.0,0.0
21043013165708,0.0526421,9.092726,4.584648,0.0,0.0,0.0
21043015544718,0.0,8.987442,4.5894337,0.0,0.0,0.0
21043017923729,-0.17228323,9.068798,4.843073,0.0,0.0,0.0
21043020302739,-0.062213387,8.987442,4.699504,0.0,0.0,0.0
21043022681802,-0.14356937,9.188439,4.718646,0.0,0.0,0.0
21043025060812,0.10049855,9.078369,4.570291,0.0,0.0,0.0
21043027439822,0.124426775,9.102298,4.74736,0.0,0.0,0.0
21043029818833,0.44985065,9.102298,4.814359,0.0,0.0,0.0
21043032197895,0.6125626,9.111869,4.8622155,0.0,0.0,0.0
21043034576906,0.9284152,9.016156,4.7712884,0.0,0.0,0.0
21043036955916,1.119841,9.020942,4.7282176,0.0,0.0,0.0
21043039334927,1.3830515,9.049655,4.6755753,0.0,0.0,0.0
21043041713989,1.5601203,8.987442,4.584648,0.0,0.0,0.0
21043044092999,1.7611175,8.958728,4.5415773,0.0,0.0,0.0
21043046472010,1.8711873,8.963513,4.584648,0.0,0.0,0.0
21043048851020,1.9525433,8.973084,4.694718,0.0,0.0,0.0
21043051230031,1.9477576,8.906086,4.733003,0.0,0.0,0.0
21043053609093,1.942972,8.973084,4.766503,0.0,0.0,0.0
21043055988104,1.8376877,8.920443,4.56072,0.0,0.0,0.0
21043058367114,1.727618,8.867801,4.26401,0.0,0.0,0.0
21043060746124,1.5457634,8.762517,4.0869412,0.0,0.0,0.0
21043063125187,1.3734802,8.743374,4.331009,0.0,0.0,0.0
21043065504197,1.2969099,8.628518,4.7425747,0.0,0.0,0.0
21043067883208,1.1533405,8.628518,5.130212,0.0,0.0,0.0
21043070262218,1.0815558,8.580662,5.0679984,0.0,0.0,0.0
21043072641229,1.0719845,8.662018,4.7808595,0.0,0.0,0.0
21043075020291,1.1437693,8.685946,4.398008,0.0,0.0,0.0
21043077399302,1.1102697,8.762517,4.254439,0.0,0.0,0.0
21043079778312,1.2155539,8.762517,4.278367,0.0,0.0,0.0
21043082157322,1.2346965,8.7673025,4.546363,0.0,0.0,0.0
21043084536333,1.3256238,8.724232,4.7425747,0.0,0.0,0.0
21043086915395,1.3351951,8.772088,4.8287163,0.0,0.0,0.0
21043089294406,1.402194,8.79123,4.694718,0.0,0.0,0.0
21043091673416,1.3974084,8.829515,4.4315076,0.0,0.0,0.0
21043094052374,1.430908,8.834301,4.182654,0.0,0.0,0.0
21043096431489,1.3639089,8.843872,4.1874394,0.0,0.0,0.0
21043098810499,1.2873386,8.79123,4.402794,0.0,0.0,0.0
21043101189510,1.1389836,8.7673025,4.6612186,0.0,0.0,0.0
21043103568520,0.98584294,8.786445,4.8095737,0.0,0.0,0.0
21043105947583,0.80877405,8.776874,4.7569313,0.0,0.0,0.0
21043108326593,0.6269195,8.819944,4.536792,0.0,0.0,0.0
21043110705604,0.44027936,8.886943,4.3405805,0.0,0.0,0.0
21043113084614,0.26799613,8.882157,4.2448673,0.0,0.0,0.0
21043115463624,0.11964113,8.920443,4.3405805,0.0,0.0,0.0
21043117842687,-0.009571291,8.930014,4.503292,0.0,0.0,0.0
21043120221697,-0.09571291,8.882157,4.651647,0.0,0.0,0.0
21043122600708,-0.15314065,8.839087,4.651647,0.0,0.0,0.0
21043124979718,-0.18664017,8.834301,4.4985065,0.0,0.0,0.0
21043127358781,-0.18664017,8.915657,4.3357944,0.0,0.0,0.0
21043129737791,-0.14356937,8.867801,4.182654,0.0,0.0,0.0
21043132116802,-0.2105684,8.819944,4.197011,0.0,0.0,0.0
21043134495812,-0.18664017,8.800801,4.2927237,0.0,0.0,0.0
21043136874822,-0.23449662,8.839087,4.503292,0.0,0.0,0.0
21043139253885,-0.23449662,8.7673025,4.5655055,0.0,0.0,0.0
21043141632895,-0.30149564,8.776874,4.4602213,0.0,0.0,0.0
21043144011854,-0.33499518,8.800801,4.240082,0.0,0.0,0.0
21043146390916,-0.3397808,8.82473,4.106084,0.0,0.0,0.0
21043148769979,-0.38285163,8.786445,4.0773697,0.0,0.0,0.0
21043151148989,-0.42592242,8.776874,4.1874394,0.0,0.0,0.0
21043153527999,-0.46899325,8.762517,4.321438,0.0,0.0,0.0
21043155907010,-0.4881358,8.700303,4.369294,0.0,0.0,0.0
21043158286020,-0.51206404,8.685946,4.359723,0.0,0.0,0.0
21043160665083,-0.52163535,8.729017,4.2975097,0.0,0.0,0.0
21043163044093,-0.55034924,8.79123,4.240082,0.0,0.0,0.0
21043165423104,-0.5455636,8.724232,4.1443686,0.0,0.0,0.0
21043167802114,-0.56470615,8.781659,4.139583,0.0,0.0,0.0
21043170181177,-0.57906306,8.772088,4.220939,0.0,0.0,0.0
21043172560187,-0.55513483,8.733803,4.3645086,0.0,0.0,0.0
21043174939197,-0.5838487,8.724232,4.4841495,0.0,0.0,0.0
21043177318208,-0.55034924,8.71466,4.45065,0.0,0.0,0.0
21043179697218,-0.5072784,8.690732,4.302295,0.0,0.0,0.0
21043182076281,-0.4546363,8.666803,4.1443686,0.0,0.0,0.0
21043184455291,-0.4211368,8.666803,4.115655,0.0,0.0,0.0
21043186834302,-0.33020952,8.652447,4.249653,0.0,0.0,0.0
21043189213312,-0.24885355,8.609376,4.4075794,0.0,0.0,0.0
21043191592374,-0.15314065,8.628518,4.4554358,0.0,0.0,0.0
21043193971385,0.0047856453,8.618947,4.388437,0.0,0.0,0.0
21043196350395,0.15314065,8.63809,4.2687955,0.0,0.0,0.0
21043198729406,0.30149564,8.652447,4.1587257,0.0,0.0,0.0
21043201108468,0.41635114,8.63809,4.101298,0.0,0.0,0.0
21043203487479,0.5407779,8.56152,4.106084,0.0,0.0,0.0
21043205866489,0.6269195,8.475378,4.23051,0.0,0.0,0.0
21043208245499,0.70348984,8.370093,4.4410787,0.0,0.0,0.0
21043210624510,0.7800602,8.384451,4.761717,0.0,0.0,0.0
21043213003572,0.7848458,8.489735,5.111069,0.0,0.0,0.0
21043215382583,0.8279166,8.628518,5.197211,0.0,0.0,0.0
21043217761593,0.89491564,8.666803,4.733003,0.0,0.0,0.0
21043220140604,0.95712906,8.762517,4.0295134,0.0,0.0,0.0
21043222519666,0.9762716,8.906086,3.6801612,0.0,0.0,0.0
21043224898677,1.0432707,8.867801,3.9338005,0.0,0.0,0.0
21043227277687,1.0767702,8.85823,4.599005,0.0,0.0,0.0
21043229656645,1.1533405,8.82473,5.0344987,0.0,0.0,0.0
21043232035708,1.2346965,8.805588,4.948357,0.0,0.0,0.0
21043234414770,1.2873386,8.867801,4.536792,0.0,0.0,0.0
21043236793781,1.3256238,8.9013,4.0965123,0.0,0.0,0.0
21043239172791,1.2299109,8.891729,3.9338005,0.0,0.0,0.0
21043241551802,1.0432707,8.796016,4.082155,0.0,0.0,0.0
21043243930864,0.7322037,8.709874,4.4171505,0.0,0.0,0.0
21043246309874,0.3924229,8.662018,4.7856455,0.0,0.0,0.0
21043248688885,0.076570325,8.633304,4.9866424,0.0,0.0,0.0
21043251067895,-0.2009971,8.580662,4.833502,0.0,0.0,0.0
21043253446958,-0.37328035,8.456235,4.388437,0.0,0.0,0.0
21043255825968,-0.55513483,8.585447,4.0103707,0.0,0.0,0.0
21043258204979,-0.6795616,8.671589,4.125226,0.0,0.0,0.0
21043260583989,-0.5024927,8.437093,4.5942197,0.0,0.0,0.0
21043262962999,-0.33020952,8.666803,5.178068,0.0,0.0,0.0
21043265342062,0.023928227,9.059227,5.4221363,0.0,0.0,0.0
21043267721072,0.42592242,8.848659,4.9340005,0.0,0.0,0.0
21043270100083,0.6221339,8.724232,4.130012,0.0,0.0,0.0
21043272479093,0.6556334,8.973084,3.6466618,0.0,0.0,0.0
21043274858156,0.61734825,8.968299,3.8811584,0.0,0.0,0.0
21043277237166,0.47856453,8.681161,4.45065,0.0,0.0,0.0
21043279616177,0.2727818,8.662018,4.991428,0.0,0.0,0.0
21043281995187,0.18185452,8.752945,5.1254263,0.0,0.0,0.0
21043284374197,0.10049855,8.628518,4.7808595,0.0,0.0,0.0
21043286753260,-0.043070808,8.63809,4.249653,0.0,0.0,0.0
21043289132270,-0.16271193,8.819944,3.7854455,0.0,0.0,0.0
21043291511281,-0.2632105,8.85823,3.6658044,0.0,0.0,0.0
21043293890291,-0.35413775,8.762517,3.8907297,0.0,0.0,0.0
21043296269354,-0.5072784,8.79123,4.369294,0.0,0.0,0.0
21043298648364,-0.59342,8.829515,4.7138605,0.0,0.0,0.0
21043301027374,-0.6412765,8.82473,4.718646,0.0,0.0,0.0
21043303406385,-0.7369894,8.891729,4.3501515,0.0,0.0,0.0
21043305785395,-0.8853444,9.059227,3.9673,0.0,0.0,0.0
21043308164458,-0.9762716,9.078369,3.8093736,0.0,0.0,0.0
21043310543468,-1.0576276,9.097511,3.9864426,0.0,0.0,0.0
21043312922479,-1.1485549,9.174082,4.359723,0.0,0.0,0.0
21043315301489,-1.1964114,9.2075815,4.7042894,0.0,0.0,0.0
21043317680552,-1.1724831,9.2075815,4.7712884,0.0,0.0,0.0
21043320059562,-1.0959128,9.255438,4.5655055,0.0,0.0,0.0
21043322438572,-0.9092726,9.360723,4.206582,0.0,0.0,0.0
21043324817583,-0.6556334,9.38465,3.938586,0.0,0.0,0.0
21043327196593,-0.28713873,9.379865,3.8907297,0.0,0.0,0.0
21043329575656,0.09571291,9.375079,4.0390844,0.0,0.0,0.0
21043331954666,0.47377887,9.332008,4.249653,0.0,0.0,0.0
21043334333677,0.8039884,9.250652,4.345366,0.0,0.0,0.0
21043336712687,1.0719845,9.226724,4.287938,0.0,0.0,0.0
21043339091749,1.2777673,9.212367,4.1587257,0.0,0.0,0.0
21043341470760,1.4500505,9.159725,4.0869412,0.0,0.0,0.0
21043343849770,1.5840486,9.15494,4.173083,0.0,0.0,0.0
21043346228781,1.7084754,9.150154,4.345366,0.0,0.0,0.0
21043348607791,1.7994026,9.107083,4.469793,0.0,0.0,0.0
21043350986854,1.8903298,9.068798,4.465007,0.0,0.0,0.0
21043353365864,1.9621146,9.08794,4.3262234,0.0,0.0,0.0
21043355744874,2.0051854,9.0544405,4.0869412,0.0,0.0,0.0
21043358123885,2.0291135,9.025727,3.9098723,0.0,0.0,0.0
21043360502947,2.0195422,8.992228,3.871587,0.0,0.0,0.0
21043362881958,1.9238294,8.939586,4.0438704,0.0,0.0,0.0
21043365260968,1.7898313,8.839087,4.2975097,0.0,0.0,0.0
21043367639979,1.5457634,8.7673025,4.479364,0.0,0.0,0.0
21043370019041,1.2011969,8.7673025,4.5224347,0.0,0.0,0.0
21043372398052,0.86141616,8.733803,4.45065,0.0,0.0,0.0
21043374777062,0.45942193,8.719446,4.398008,0.0,0.0,0.0
21043377156072,0.13878371,8.743374,4.4602213,0.0,0.0,0.0
21043379535083,-0.15792629,8.724232,4.5798626,0.0,0.0,0.0
21043381914145,-0.33020952,8.695518,4.6755753,0.0,0.0,0.0
21043384293156,-0.45942193,8.733803,4.7138605,0.0,0.0,0.0
21043386672166,-0.5407779,8.776874,4.6899323,0.0,0.0,0.0
21043389051177,-0.5407779,8.786445,4.6229334,0.0,0.0,0.0
21043391430239,-0.5312066,8.819944,4.570291,0.0,0.0,0.0
21043393809249,-0.4546363,8.810373,4.5559344,0.0,0.0,0.0
21043396188260,-0.34456646,8.839087,4.6085763,0.0,0.0,0.0
21043398567270,-0.2727818,8.848659,4.666004,0.0,0.0,0.0
21043400946333,-0.20578274,8.815159,4.7377887,0.0,0.0,0.0
21043403325343,-0.148355,8.810373,4.7282176,0.0,0.0,0.0
21043405704354,-0.124426775,8.805588,4.7138605,0.0,0.0,0.0
21043408083364,-0.076570325,8.762517,4.6612186,0.0,0.0,0.0
21043410462374,-0.062213387,8.7673025,4.6325045,0.0,0.0,0.0
21043412841437,-0.047856454,8.733803,4.6372905,0.0,0.0,0.0
21043415220447,-0.047856454,8.657232,4.6564326,0.0,0.0,0.0
21043417599458,-0.05742774,8.647661,4.6468616,0.0,0.0,0.0
21043419978468,-0.06699903,8.618947,4.575077,0.0,0.0,0.0
21043422357531,-0.07178468,8.623733,4.517649,0.0,0.0,0.0
21043424736541,-0.08135597,8.623733,4.412365,0.0,0.0,0.0
21043427115552,-0.07178468,8.63809,4.369294,0.0,0.0,0.0
21043429494562,-0.06699903,8.642876,4.331009,0.0,0.0,0.0
21043431873572,-0.038285162,8.633304,4.354937,0.0,0.0,0.0
21043434252635,-0.014356935,8.647661,4.4075794,0.0,0.0,0.0
21043436631645,0.023928227,8.671589,4.4410787,0.0,0.0,0.0
21043439010656,0.09571291,8.719446,4.4458647,0.0,0.0,0.0
21043441389718,0.13878371,8.748159,4.4075794,0.0,0.0,0.0
21043443768677,0.23928227,8.781659,4.3405805,0.0,0.0,0.0
21043446147739,0.32542387,8.848659,4.3070807,0.0,0.0,0.0
21043448526749,0.44506502,8.867801,4.3118663,0.0,0.0,0.0
21043450905760,0.55034924,8.877372,4.2927237,0.0,0.0,0.0
21043453284822,0.6221339,8.9013,4.2975097,0.0,0.0,0.0
21043455663833,0.6795616,8.9013,4.3070807,0.0,0.0,0.0
21043458042843,0.7465607,8.915657,4.254439,0.0,0.0,0.0
21043460421854,0.7848458,8.915657,4.1778684,0.0,0.0,0.0
21043462800916,0.7513463,8.920443,4.0869412,0.0,0.0,0.0
21043465179927,0.70348984,8.9013,4.058227,0.0,0.0,0.0
21043467558937,0.61734825,8.9013,4.0438704,0.0,0.0,0.0
21043469937843,0.52163535,8.906086,4.0534415,0.0,0.0,0.0
21043472316958,0.41635114,8.882157,4.063013,0.0,0.0,0.0
21043474696020,0.32063824,8.877372,4.034299,0.0,0.0,0.0
21043477075031,0.21535404,8.872586,4.019942,0.0,0.0,0.0
21043479453989,0.13399807,8.886943,4.0007997,0.0,0.0,0.0
21043481833052,0.086141616,8.891729,3.9720855,0.0,0.0,0.0
21043484212062,0.033499517,8.930014,4.0007997,0.0,0.0,0.0
21043486591124,-0.047856454,8.939586,4.0534415,0.0,0.0,0.0
21043488970135,-0.10049855,8.958728,4.115655,0.0,0.0,0.0
21043491349145,-0.15314065,8.987442,4.15394,0.0,0.0,0.0
21043493728156,-0.19621146,9.035298,4.15394,0.0,0.0,0.0
21043496107218,-0.2009971,9.0544405,4.125226,0.0,0.0,0.0
21043498486229,-0.22492532,9.08794,4.0869412,0.0,0.0,0.0
21043500865239,-0.23928227,9.102298,4.0773697,0.0,0.0,0.0
21043503244249,-0.2632105,9.102298,4.101298,0.0,0.0,0.0
21043505623312,-0.2632105,9.135797,4.1587257,0.0,0.0,0.0
21043508002322,-0.27756742,9.164511,4.182654,0.0,0.0,0.0
21043510381333,-0.29671,9.150154,4.2161536,0.0,0.0,0.0
21043512760343,-0.30149564,9.12144,4.2017965,0.0,0.0,0.0
21043515139354,-0.28713873,9.135797,4.173083,0.0,0.0,0.0
21043517518416,-0.24885355,9.135797,4.1443686,0.0,0.0,0.0
21043519897427,-0.2536392,9.111869,4.1347976,0.0,0.0,0.0
21043522276437,-0.22971097,9.064013,4.168297,0.0,0.0,0.0
21043524655447,-0.23449662,9.016156,4.206582,0.0,0.0,0.0
21043527034510,-0.2009971,8.987442,4.2448673,0.0,0.0,0.0
21043529413520,-0.17228323,8.977871,4.2352962,0.0,0.0,0.0
21043531792479,-0.14356937,8.958728,4.211368,0.0,0.0,0.0
21043534171541,-0.14356937,8.915657,4.206582,0.0,0.0,0.0
21043536550552,-0.17228323,8.891729,4.197011,0.0,0.0,0.0
21043538929614,-0.2009971,8.906086,4.220939,0.0,0.0,0.0
21043541308624,-0.23449662,8.882157,4.23051,0.0,0.0,0.0
21043543687635,-0.28713873,8.853444,4.254439,0.0,0.0,0.0
21043546066645,-0.3684947,8.863015,4.273581,0.0,0.0,0.0
21043548445708,-0.44506502,8.85823,4.2927237,0.0,0.0,0.0
21043550824718,-0.5024927,8.863015,4.321438,0.0,0.0,0.0
21043553203729,-0.5694918,8.853444,4.369294,0.0,0.0,0.0
21043555582739,-0.6364908,8.834301,4.4075794,0.0,0.0,0.0
21043557961802,-0.6939186,8.829515,4.4410787,0.0,0.0,0.0
21043560340812,-0.7465607,8.848659,4.469793,0.0,0.0,0.0
21043562719822,-0.7465607,8.85823,4.508078,0.0,0.0,0.0
21043565098833,-0.7369894,8.848659,4.4841495,0.0,0.0,0.0
21043567477895,-0.6843473,8.829515,4.4315076,0.0,0.0,0.0
21043569856906,-0.57906306,8.82473,4.412365,0.0,0.0,0.0
21043572235916,-0.47856453,8.819944,4.426722,0.0,0.0,0.0
21043574614927,-0.36370903,8.805588,4.45065,0.0,0.0,0.0
21043576993937,-0.22492532,8.805588,4.4554358,0.0,0.0,0.0
21043579372999,-0.11006984,8.800801,4.426722,0.0,0.0,0.0
21043581752010,0.023928227,8.796016,4.426722,0.0,0.0,0.0
21043584131020,0.13878371,8.7673025,4.412365,0.0,0.0,0.0
21043586510031,0.21535404,8.7673025,4.398008,0.0,0.0,0.0
21043588889093,0.31106696,8.743374,4.402794,0.0,0.0,0.0
21043591268104,0.3589234,8.724232,4.4410787,0.0,0.0,0.0
21043593647114,0.37806597,8.724232,4.4458647,0.0,0.0,0.0
21043596026124,0.41156548,8.71466,4.4554358,0.0,0.0,0.0
21043598405187,0.41156548,8.719446,4.4745784,0.0,0.0,0.0
21043600784197,0.40677986,8.719446,4.436293,0.0,0.0,0.0
21043603163208,0.4019942,8.705089,4.4315076,0.0,0.0,0.0
21043605542218,0.39720857,8.743374,4.426722,0.0,0.0,0.0
21043607921177,0.37328035,8.748159,4.4075794,0.0,0.0,0.0
21043610300291,0.38763726,8.729017,4.398008,0.0,0.0,0.0
21043612679302,0.3493521,8.752945,4.3740797,0.0,0.0,0.0
21043615058312,0.3397808,8.786445,4.3788652,0.0,0.0,0.0
21043617437322,0.32063824,8.762517,4.3836513,0.0,0.0,0.0
21043619816385,0.28713873,8.7673025,4.354937,0.0,0.0,0.0
21043622195395,0.30149564,8.839087,4.3501515,0.0,0.0,0.0
21043624574406,0.29671,8.85823,4.359723,0.0,0.0,0.0
21043626953416,0.28713873,8.834301,4.3740797,0.0,0.0,0.0
21043629332479,0.29671,8.872586,4.3836513,0.0,0.0,0.0
21043631711489,0.33020952,8.920443,4.3645086,0.0,0.0,0.0
21043634090499,0.37328035,8.920443,4.354937,0.0,0.0,0.0
21043636469510,0.41156548,8.915657,4.331009,0.0,0.0,0.0
21043638848468,0.44985065,8.930014,4.3262234,0.0,0.0,0.0
21043641227583,0.46899325,8.930014,4.321438,0.0,0.0,0.0
21043643606593,0.47856453,8.930014,4.302295,0.0,0.0,0.0
21043645985604,0.4881358,8.944371,4.3070807,0.0,0.0,0.0
21043648364614,0.47377887,8.9348,4.302295,0.0,0.0,0.0
21043650743677,0.41156548,8.930014,4.302295,0.0,0.0,0.0
21043653122687,0.34456646,8.930014,4.273581,0.0,0.0,0.0
21043655501697,0.2632105,8.930014,4.287938,0.0,0.0,0.0
21043657880708,0.11964113,8.886943,4.2975097,0.0,0.0,0.0
21043660259718,0.033499517,8.867801,4.2927237,0.0,0.0,0.0
21043662638781,-0.02871387,8.886943,4.2592244,0.0,0.0,0.0
21043665017791,-0.10049855,8.839087,4.249653,0.0,0.0,0.0
21043667396802,-0.13878371,8.848659,4.23051,0.0,0.0,0.0
21043669775812,-0.13399807,8.839087,4.2017965,0.0,0.0,0.0
21043672154874,-0.148355,8.863015,4.1874394,0.0,0.0,0.0
21043674533885,-0.14356937,8.863015,4.1635113,0.0,0.0,0.0
21043676912895,-0.12921242,8.9013,4.1491547,0.0,0.0,0.0
21043679291906,-0.10049855,8.896515,4.1587257,0.0,0.0,0.0
21043681670968,-0.047856454,8.886943,4.1874394,0.0,0.0,0.0
21043684049979,-0.009571291,8.882157,4.206582,0.0,0.0,0.0
21043686428989,0.047856454,8.896515,4.254439,0.0,0.0,0.0
21043688807999,0.086141616,8.896515,4.26401,0.0,0.0,0.0
21043691187062,0.08135597,8.930014,4.240082,0.0,0.0,0.0
21043693566072,0.07178468,8.958728,4.206582,0.0,0.0,0.0
21043695945083,0.05742774,8.968299,4.1778684,0.0,0.0,0.0
21043698324093,0.023928227,8.963513,4.168297,0.0,0.0,0.0
21043700703104,-0.023928227,8.9826565,4.1778684,0.0,0.0,0.0
21043703082166,-0.043070808,8.987442,4.211368,0.0,0.0,0.0
21043705461177,-0.06699903,8.992228,4.240082,0.0,0.0,0.0
21043707840187,-0.12921242,8.997013,4.2448673,0.0,0.0,0.0
21043710219197,-0.18185452,9.001799,4.254439,0.0,0.0,0.0
21043712598208,-0.26799613,8.968299,4.240082,0.0,0.0,0.0
21043714977270,-0.3062813,8.963513,4.2257247,0.0,0.0,0.0
21043717356281,-0.34456646,8.968299,4.206582,0.0,0.0,0.0
21043719735291,-0.3924229,8.9348,4.197011,0.0,0.0,0.0
21043722114302,-0.42592242,8.949157,4.240082,0.0,0.0,0.0
21043724493364,-0.45942193,8.930014,4.2592244,0.0,0.0,0.0
21043726872374,-0.4881358,8.9108715,4.2592244,0.0,0.0,0.0
21043729251385,-0.49292147,8.930014,4.2592244,0.0,0.0,0.0
21043731630395,-0.4546363,8.9348,4.240082,0.0,0.0,0.0
21043734009458,-0.42592242,8.920443,4.220939,0.0,0.0,0.0
21043736388468,-0.37328035,8.9348,4.2161536,0.0,0.0,0.0
21043738767479,-0.30149564,8.9348,4.23051,0.0,0.0,0.0
21043741146489,-0.22013968,8.920443,4.23051,0.0,0.0,0.0
21043743525499,-0.13878371,8.896515,4.2352962,0.0,0.0,0.0
21043745904562,-0.06699903,8.877372,4.2448673,0.0,0.0,0.0
21043748283572,0.033499517,8.867801,4.2592244,0.0,0.0,0.0
21043750662583,0.076570325,8.848659,4.302295,0.0,0.0,0.0
21043753041593,0.124426775,8.848659,4.316652,0.0,0.0,0.0
21043755420656,0.14356937,8.805588,4.321438,0.0,0.0,0.0
21043757799666,0.14356937,8.810373,4.3262234,0.0,0.0,0.0
21043760178677,0.11964113,8.82473,4.2927237,0.0,0.0,0.0
21043762557687,0.08135597,8.819944,4.2687955,0.0,0.0,0.0
21043764936697,0.023928227,8.815159,4.254439,0.0,0.0,0.0
21043767315760,-0.07178468,8.805588,4.2592244,0.0,0.0,0.0
21043769694770,-0.11485548,8.810373,4.249653,0.0,0.0,0.0
21043772073781,-0.18185452,8.82473,4.2448673,0.0,0.0,0.0
21043774452843,-0.2632105,8.815159,4.249653,0.0,0.0,0.0
21043776831854,-0.30149564,8.819944,4.249653,0.0,0.0,0.0
21043779210864,-0.3589234,8.829515,4.249653,0.0,0.0,0.0
21043781589874,-0.37806597,8.863015,4.2448673,0.0,0.0,0.0
21043783968885,-0.38285163,8.863015,4.26401,0.0,0.0,0.0
21043786347947,-0.33020952,8.891729,4.273581,0.0,0.0,0.0
21043788726958,-0.27756742,8.915657,4.287938,0.0,0.0,0.0
21043791105968,-0.22971097,8.939586,4.2927237,0.0,0.0,0.0
21043793484979,-0.13399807,8.9348,4.2831526,0.0,0.0,0.0
21043795864041,-0.019142581,8.930014,4.2592244,0.0,0.0,0.0
21043798243052,0.0526421,8.915657,4.240082,0.0,0.0,0.0
21043800622062,0.13878371,8.925228,4.220939,0.0,0.0,0.0
21043803001072,0.21535404,8.9348,4.220939,0.0,0.0,0.0
21043805380135,0.25842485,8.944371,4.211368,0.0,0.0,0.0
21043807759145,0.2727818,8.953942,4.2161536,0.0,0.0,0.0
21043810138156,0.29671,8.963513,4.182654,0.0,0.0,0.0
21043812517166,0.29671,8.968299,4.1587257,0.0,0.0,0.0
21043814896177,0.2727818,8.958728,4.1491547,0.0,0.0,0.0
21043817275239,0.21535404,8.958728,4.1443686,0.0,0.0,0.0
21043819654249,0.13399807,8.963513,4.125226,0.0,0.0,0.0
21043822033260,0.062213387,8.953942,4.130012,0.0,0.0,0.0
21043824412270,-0.009571291,8.949157,4.1347976,0.0,0.0,0.0
21043826791333,-0.086141616,8.944371,4.1587257,0.0,0.0,0.0
21043829170343,-0.17228323,8.930014,4.1491547,0.0,0.0,0.0
21043831549354,-0.2009971,8.9348,4.1443686,0.0,0.0,0.0
21043833928364,-0.24885355,8.915657,4.1491547,0.0,0.0,0.0
21043836307374,-0.29192436,8.906086,4.168297,0.0,0.0,0.0
21043838686437,-0.29192436,8.925228,4.168297,0.0,0.0,0.0
21043841065447,-0.28235307,8.944371,4.1635113,0.0,0.0,0.0
21043843444458,-0.30149564,8.953942,4.15394,0.0,0.0,0.0
21043845823520,-0.2632105,8.949157,4.168297,0.0,0.0,0.0
21043848202531,-0.22971097,8.949157,4.173083,0.0,0.0,0.0
21043850581541,-0.20578274,8.9348,4.1874394,0.0,0.0,0.0
21043852960552,-0.2105684,8.9348,4.2017965,0.0,0.0,0.0
21043855339562,-0.22013968,8.930014,4.2257247,0.0,0.0,0.0
21043857718624,-0.21535404,8.925228,4.26401,0.0,0.0,0.0
21043860097635,-0.22013968,8.939586,4.2687955,0.0,0.0,0.0
21043862476645,-0.24885355,8.949157,4.273581,0.0,0.0,0.0
21043864855656,-0.28235307,8.953942,4.26401,0.0,0.0,0.0
21043867234718,-0.31585258,8.930014,4.273581,0.0,0.0,0.0
21043869613729,-0.33499518,8.939586,4.273581,0.0,0.0,0.0
21043871992739,-0.4019942,8.925228,4.2975097,0.0,0.0,0.0
21043874371749,-0.38285163,8.891729,4.2975097,0.0,0.0,0.0
21043876750812,-0.38763726,8.886943,4.3070807,0.0,0.0,0.0
21043879129822,-0.40677986,8.891729,4.3070807,0.0,0.0,0.0
21043881508833,-0.38763726,8.886943,4.287938,0.0,0.0,0.0
21043883887843,-0.36370903,8.872586,4.2687955,0.0,0.0,0.0
21043886266854,-0.29671,8.853444,4.254439,0.0,0.0,0.0
21043888645916,-0.2536392,8.85823,4.2352962,0.0,0.0,0.0
21043891024927,-0.18664017,8.872586,4.2448673,0.0,0.0,0.0
21043893403937,-0.09092726,8.872586,4.249653,0.0,0.0,0.0
21043895782947,-0.033499517,8.882157,4.254439,0.0,0.0,0.0
21043898162010,0.033499517,8.867801,4.2592244,0.0,0.0,0.0
21043900541020,0.09571291,8.853444,4.26401,0.0,0.0,0.0
21043902920031,0.11964113,8.877372,4.2687955,0.0,0.0,0.0
21043905299041,0.11485548,8.9108715,4.2687955,0.0,0.0,0.0
21043907678104,0.13878371,8.925228,4.2831526,0.0,0.0,0.0
21043910057114,0.11964113,8.925228,4.278367,0.0,0.0,0.0
21043912436124,0.07178468,8.925228,4.2831526,0.0,0.0,0.0
21043914815083,0.019142581,8.939586,4.278367,0.0,0.0,0.0
21043917194145,-0.014356935,8.944371,4.2687955,0.0,0.0,0.0
21043919573208,-0.06699903,8.973084,4.2687955,0.0,0.0,0.0
21043921952218,-0.12921242,8.9826565,4.273581,0.0,0.0,0.0
21043924331229,-0.17228323,8.992228,4.26401,0.0,0.0,0.0
21043926710239,-0.17706887,8.977871,4.249653,0.0,0.0,0.0
21043929089302,-0.19621146,8.9826565,4.254439,0.0,0.0,0.0
21043931468312,-0.22492532,8.968299,4.26401,0.0,0.0,0.0
21043933847322,-0.22013968,8.963513,4.2687955,0.0,0.0,0.0
21043936226333,-0.23449662,8.939586,4.2687955,0.0,0.0,0.0
21043938605395,-0.18664017,8.925228,4.254439,0.0,0.0,0.0
21043940984406,-0.17706887,8.944371,4.249653,0.0,0.0,0.0
21043943363416,-0.148355,8.944371,4.254439,0.0,0.0,0.0
21043945742427,-0.124426775,8.925228,4.220939,0.0,0.0,0.0
21043948121489,-0.086141616,8.906086,4.2257247,0.0,0.0,0.0
21043950500499,-0.0526421,8.920443,4.2257247,0.0,0.0,0.0
21043952879510,-0.019142581,8.920443,4.2352962,0.0,0.0,0.0
21043955258520,0.014356935,8.915657,4.23051,0.0,0.0,0.0
21043957637531,0.014356935,8.9108715,4.2161536,0.0,0.0,0.0
21043960016593,0.023928227,8.944371,4.211368,0.0,0.0,0.0
21043962395604,0.014356935,8.9108715,4.206582,0.0,0.0,0.0
21043964774562,0.009571291,8.9013,4.206582,0.0,0.0,0.0
21043967153624,-0.019142581,8.906086,4.2017965,0.0,0.0,0.0
21043969532687,-0.02871387,8.891729,4.1874394,0.0,0.0,0.0
21043971911697,-0.05742774,8.906086,4.1874394,0.0,0.0,0.0
21043974290708,-0.09092726,8.920443,4.2017965,0.0,0.0,0.0
21043976669718,-0.07178468,8.915657,4.2017965,0.0,0.0,0.0
21043979048781,-0.06699903,8.930014,4.197011,0.0,0.0,0.0
21043981427791,-0.06699903,8.925228,4.197011,0.0,0.0,0.0
21043983806802,-0.07178468,8.939586,4.197011,0.0,0.0,0.0
21043986185812,-0.05742774,8.9348,4.2017965,0.0,0.0,0.0
21043988564822,-0.047856454,8.944371,4.1778684,0.0,0.0,0.0
21043990943885,-0.038285162,8.939586,4.173083,0.0,0.0,0.0
21043993322895,-0.038285162,8.949157,4.1635113,0.0,0.0,0.0
21043995701906,-0.023928227,8.9348,4.1778684,0.0,0.0,0.0
21043998080916,-0.0047856453,8.949157,4.182654,0.0,0.0,0.0
21044000459979,-0.02871387,8.949157,4.182654,0.0,0.0,0.0
21044002838989,-0.019142581,8.949157,4.182654,0.0,0.0,0.0
21044005217999,-0.014356935,8.930014,4.1778684,0.0,0.0,0.0
21044007597010,-0.043070808,8.9348,4.197011,0.0,0.0,0.0
21044009976072,-0.07178468,8.963513,4.2017965,0.0,0.0,0.0
21044012355083,-0.11964113,8.949157,4.1874394,0.0,0.0,0.0
21044014734093,-0.13399807,8.925228,4.182654,0.0,0.0,0.0
21044017113104,-0.18185452,8.9348,4.2017965,0.0,0.0,0.0
21044019492114,-0.22492532,8.944371,4.23051,0.0,0.0,0.0
21044021871177,-0.23928227,8.949157,4.2257247,0.0,0.0,0.0
21044024250135,-0.22971097,8.939586,4.220939,0.0,0.0,0.0
21044026629197,-0.24885355,8.953942,4.23051,0.0,0.0,0.0
21044029008208,-0.24885355,8.930014,4.23051,0.0,0.0,0.0
21044031387270,-0.24885355,8.9108715,4.211368,0.0,0.0,0.0
21044033766281,-0.22492532,8.915657,4.197011,0.0,0.0,0.0
21044036145291,-0.18664017,8.939586,4.1874394,0.0,0.0,0.0
21044038524302,-0.15792629,8.930014,4.1778684,0.0,0.0,0.0
21044040903364,-0.12921242,8.939586,4.168297,0.0,0.0,0.0
21044043282374,-0.1052842,8.9348,4.168297,0.0,0.0,0.0
21044045661385,-0.076570325,8.906086,4.173083,0.0,0.0,0.0
21044048040395,-0.02871387,8.906086,4.1778684,0.0,0.0,0.0
21044050419406,-0.02871387,8.9348,4.197011,0.0,0.0,0.0
21044052798468,-0.009571291,8.939586,4.2257247,0.0,0.0,0.0
21044055177479,0.0047856453,8.944371,4.2352962,0.0,0.0,0.0
21044057556489,0.019142581,8.920443,4.240082,0.0,0.0,0.0
21044059935499,0.0,8.939586,4.211368,0.0,0.0,0.0
21044062314562,0.0047856453,8.953942,4.2161536,0.0,0.0,0.0
21044064693572,0.009571291,8.973084,4.211368,0.0,0.0,0.0
21044067072583,-0.009571291,8.963513,4.2257247,0.0,0.0,0.0
21044069451593,-0.043070808,8.973084,4.2352962,0.0,0.0,0.0
21044071830656,-0.0526421,8.9826565,4.23051,0.0,0.0,0.0
21044074209666,-0.076570325,8.968299,4.2257247,0.0,0.0,0.0
21044076588677,-0.086141616,8.977871,4.2257247,0.0,0.0,0.0
21044078967687,-0.062213387,8.987442,4.197011,0.0,0.0,0.0
21044081346697,-0.062213387,8.963513,4.197011,0.0,0.0,0.0
21044083725760,-0.043070808,8.968299,4.2257247,0.0,0.0,0.0
21044086104770,-0.019142581,8.977871,4.2352962,0.0,0.0,0.0
21044088483781,0.0047856453,8.968299,4.23051,0.0,0.0,0.0
21044090862791,0.043070808,8.939586,4.2257247,0.0,0.0,0.0
21044093241854,0.11485548,8.939586,4.220939,0.0,0.0,0.0
21044095620864,0.18664017,8.953942,4.2017965,0.0,0.0,0.0
21044097999874,0.2440679,8.968299,4.211368,0.0,0.0,0.0
21044100378885,0.2632105,8.925228,4.211368,0.0,0.0,0.0
21044102757947,0.32063824,8.930014,4.206582,0.0,0.0,0.0
21044105136958,0.3589234,8.920443,4.2017965,0.0,0.0,0.0
21044107515968,0.38285163,8.9013,4.1874394,0.0,0.0,0.0
21044109894979,0.3924229,8.9108715,4.1874394,0.0,0.0,0.0
21044112274041,0.40677986,8.915657,4.1635113,0.0,0.0,0.0
21044114653052,0.4019942,8.9108715,4.168297,0.0,0.0,0.0
21044117032062,0.4019942,8.925228,4.182654,0.0,0.0,0.0
21044119411072,0.3589234,8.920443,4.197011,0.0,0.0,0.0
21044121790135,0.32063824,8.920443,4.197011,0.0,0.0,0.0
21044124169145,0.28713873,8.9108715,4.197011,0.0,0.0,0.0
21044126548156,0.2536392,8.9108715,4.182654,0.0,0.0,0.0
21044128927166,0.21535404,8.939586,4.206582,0.0,0.0,0.0
21044131306177,0.17228323,8.944371,4.2161536,0.0,0.0,0.0
21044133685239,0.15792629,8.930014,4.211368,0.0,0.0,0.0
21044136064249,0.18185452,8.9348,4.2017965,0.0,0.0,0.0
21044138443260,0.16271193,8.920443,4.2017965,0.0,0.0,0.0
21044140822270,0.13399807,8.930014,4.197011,0.0,0.0,0.0
21044143201333,0.124426775,8.9348,4.211368,0.0,0.0,0.0
21044145580343,0.11964113,8.944371,4.2017965,0.0,0.0,0.0
21044147959354,0.13399807,8.958728,4.197011,0.0,0.0,0.0
21044150338364,0.124426775,8.963513,4.2017965,0.0,0.0,0.0
21044152717374,0.14356937,8.958728,4.2017965,0.0,0.0,0.0
21044155096437,0.15314065,8.963513,4.173083,0.0,0.0,0.0
21044157475447,0.16271193,8.973084,4.1635113,0.0,0.0,0.0
21044159854458,0.15792629,8.992228,4.1778684,0.0,0.0,0.0
21044162233468,0.18185452,8.987442,4.173083,0.0,0.0,0.0
21044164612531,0.19621146,8.9826565,4.182654,0.0,0.0,0.0
21044166991541,0.22492532,8.958728,4.182654,0.0,0.0,0.0
21044169370552,0.25842485,8.939586,4.182654,0.0,0.0,0.0
21044171749562,0.2727818,8.9348,4.1874394,0.0,0.0,0.0
21044174128624,0.27756742,8.930014,4.197011,0.0,0.0,0.0
21044176507635,0.26799613,8.896515,4.197011,0.0,0.0,0.0
21044178886645,0.29671,8.891729,4.173083,0.0,0.0,0.0
21044181265656,0.3062813,8.886943,4.173083,0.0,0.0,0.0
21044183644718,0.31106696,8.930014,4.173083,0.0,0.0,0.0
21044186023729,0.3062813,8.944371,4.1635113,0.0,0.0,0.0
21044188402739,0.31106696,8.944371,4.173083,0.0,0.0,0.0
21044190781749,0.31106696,8.930014,4.168297,0.0,0.0,0.0
21044193160760,0.3397808,8.953942,4.1778684,0.0,0.0,0.0
21044195539822,0.33499518,8.977871,4.1778684,0.0,0.0,0.0
21044197918833,0.32063824,8.958728,4.1587257,0.0,0.0,0.0
21044200297843,0.33499518,8.992228,4.1347976,0.0,0.0,0.0
21044202676854,0.3589234,8.987442,4.139583,0.0,0.0,0.0
21044205055916,0.35413775,8.992228,4.1491547,0.0,0.0,0.0
21044207434927,0.35413775,8.992228,4.139583,0.0,0.0,0.0
21044209813937,0.35413775,8.9826565,4.125226,0.0,0.0,0.0
21044212192947,0.3493521,8.9826565,4.125226,0.0,0.0,0.0
21044214572010,0.3684947,8.997013,4.091727,0.0,0.0,0.0
21044216951020,0.37328035,8.963513,4.0534415,0.0,0.0,0.0
21044219330031,0.36370903,8.953942,4.024728,0.0,0.0,0.0
21044221709041,0.3493521,8.953942,4.019942,0.0,0.0,0.0
21044224088104,0.3493521,8.939586,4.0438704,0.0,0.0,0.0
21044226467114,0.36370903,8.930014,4.0438704,0.0,0.0,0.0
21044228846124,0.3684947,8.930014,4.058227,0.0,0.0,0.0
21044231225135,0.3493521,8.925228,4.0438704,0.0,0.0,0.0
21044233604145,0.34456646,8.920443,4.005585,0.0,0.0,0.0
21044235983208,0.33499518,8.968299,3.991228,0.0,0.0,0.0
21044238362218,0.3397808,8.977871,4.005585,0.0,0.0,0.0
21044240741177,0.29192436,8.963513,4.0103707,0.0,0.0,0.0
21044243120239,0.2727818,8.987442,4.0438704,0.0,0.0,0.0
21044245499249,0.2536392,9.001799,4.063013,0.0,0.0,0.0
21044247878312,0.23449662,9.016156,4.082155,0.0,0.0,0.0
21044250257322,0.22492532,9.01137,4.072584,0.0,0.0,0.0
21044252636333,0.2009971,9.016156,4.072584,0.0,0.0,0.0
21044255015395,0.18664017,9.035298,4.0677986,0.0,0.0,0.0
21044257394406,0.17228323,9.030513,4.091727,0.0,0.0,0.0
21044259773416,0.17706887,9.016156,4.1108694,0.0,0.0,0.0
21044262152427,0.18664017,8.987442,4.130012,0.0,0.0,0.0
21044264531489,0.16749759,8.958728,4.130012,0.0,0.0,0.0
21044266910499,0.148355,8.958728,4.139583,0.0,0.0,0.0
21044269289510,0.16749759,8.963513,4.1443686,0.0,0.0,0.0
21044271668520,0.17706887,8.939586,4.139583,0.0,0.0,0.0
21044274047531,0.19142582,8.944371,4.1443686,0.0,0.0,0.0
21044276426593,0.19621146,8.925228,4.168297,0.0,0.0,0.0
21044278805604,0.19621146,8.891729,4.173083,0.0,0.0,0.0
21044281184614,0.2105684,8.9108715,4.168297,0.0,0.0,0.0
21044283563624,0.21535404,8.9013,4.1635113,0.0,0.0,0.0
21044285942687,0.23449662,8.882157,4.1635113,0.0,0.0,0.0
21044288321697,0.22971097,8.886943,4.15394,0.0,0.0,0.0
21044290700656,0.22013968,8.882157,4.1587257,0.0,0.0,0.0
21044293079718,0.22971097,8.882157,4.1587257,0.0,0.0,0.0
21044295458781,0.23449662,8.867801,4.1635113,0.0,0.0,0.0
21044297837791,0.22013968,8.877372,4.1635113,0.0,0.0,0.0
21044300216802,0.21535404,8.877372,4.182654,0.0,0.0,0.0
21044302595812,0.19621146,8.896515,4.1922255,0.0,0.0,0.0
21044304974822,0.17706887,8.882157,4.1922255,0.0,0.0,0.0
21044307353885,0.15792629,8.877372,4.2017965,0.0,0.0,0.0
21044309732895,0.124426775,8.886943,4.2257247,0.0,0.0,0.0
21044312111906,0.11964113,8.872586,4.2257247,0.0,0.0,0.0
21044314490916,0.12921242,8.882157,4.2257247,0.0,0.0,0.0
21044316869979,0.11964113,8.896515,4.2352962,0.0,0.0,0.0
21044319248989,0.124426775,8.891729,4.23051,0.0,0.0,0.0
21044321627999,0.12921242,8.891729,4.211368,0.0,0.0,0.0
21044324007010,0.14356937,8.9013,4.182654,0.0,0.0,0.0
21044326386072,0.16271193,8.9108715,4.2017965,0.0,0.0,0.0
21044328765083,0.148355,8.925228,4.1874394,0.0,0.0,0.0
21044331144041,0.15314065,8.896515,4.197011,0.0,0.0,0.0
21044333523104,0.16749759,8.9013,4.1922255,0.0,0.0,0.0
21044335902114,0.19142582,8.9108715,4.2017965,0.0,0.0,0.0
21044338281177,0.2105684,8.915657,4.1874394,0.0,0.0,0.0
21044340660187,0.17228323,8.920443,4.1922255,0.0,0.0,0.0
21044343039197,0.19621146,8.920443,4.1874394,0.0,0.0,0.0
21044345418208,0.15792629,8.9108715,4.206582,0.0,0.0,0.0
21044347797270,0.17706887,8.920443,4.2161536,0.0,0.0,0.0
21044350176281,0.18664017,8.925228,4.220939,0.0,0.0,0.0
21044352555291,0.16271193,8.949157,4.240082,0.0,0.0,0.0
21044354934302,0.16749759,8.953942,4.2257247,0.0,0.0,0.0
21044357313364,0.17706887,8.949157,4.23051,0.0,0.0,0.0
21044359692374,0.16749759,8.925228,4.249653,0.0,0.0,0.0
21044362071385,0.148355,8.915657,4.2687955,0.0,0.0,0.0
21044364450395,0.14356937,8.920443,4.287938,0.0,0.0,0.0
21044366829458,0.15314065,8.925228,4.2927237,0.0,0.0,0.0
21044369208468,0.11964113,8.9108715,4.3118663,0.0,0.0,0.0
21044371587479,0.1052842,8.906086,4.316652,0.0,0.0,0.0
21044373966489,0.08135597,8.882157,4.2927237,0.0,0.0,0.0
21044376345552,0.06699903,8.867801,4.316652,0.0,0.0,0.0
21044378724562,0.07178468,8.853444,4.3118663,0.0,0.0,0.0
21044381103572,0.07178468,8.867801,4.302295,0.0,0.0,0.0
21044383482583,0.06699903,8.843872,4.3070807,0.0,0.0,0.0
21044385861645,0.09092726,8.829515,4.3262234,0.0,0.0,0.0
21044388240656,0.07178468,8.834301,4.321438,0.0,0.0,0.0
21044390619666,0.05742774,8.82473,4.3262234,0.0,0.0,0.0
21044392998677,0.05742774,8.805588,4.3357944,0.0,0.0,0.0
21044395377687,0.086141616,8.819944,4.3357944,0.0,0.0,0.0
21044397756749,0.1052842,8.829515,4.345366,0.0,0.0,0.0
21044400135760,0.12921242,8.82473,4.3357944,0.0,0.0,0.0
21044402514770,0.17228323,8.829515,4.3405805,0.0,0.0,0.0
21044404893781,0.18664017,8.829515,4.321438,0.0,0.0,0.0
21044407272843,0.19621146,8.848659,4.3262234,0.0,0.0,0.0
21044409651854,0.2105684,8.863015,4.3262234,0.0,0.0,0.0
21044412030864,0.22013968,8.843872,4.316652,0.0,0.0,0.0
21044414409874,0.22971097,8.863015,4.3357944,0.0,0.0,0.0
21044416788885,0.22971097,8.882157,4.331009,0.0,0.0,0.0
21044419167947,0.2440679,8.863015,4.354937,0.0,0.0,0.0
21044421546958,0.2440679,8.867801,4.3501515,0.0,0.0,0.0
21044423925968,0.24885355,8.85823,4.354937,0.0,0.0,0.0
21044426304979,0.22971097,8.872586,4.3501515,0.0,0.0,0.0
21044428684041,0.22492532,8.9013,4.354937,0.0,0.0,0.0
21044431062999,0.22492532,8.915657,4.359723,0.0,0.0,0.0
21044433442062,0.23449662,8.9108715,4.345366,0.0,0.0,0.0
21044435821072,0.2009971,8.925228,4.359723,0.0,0.0,0.0
21044438200135,0.2105684,8.949157,4.354937,0.0,0.0,0.0
21044440579145,0.2105684,8.925228,4.3501515,0.0,0.0,0.0
21044442958156,0.22492532,8.9348,4.3405805,0.0,0.0,0.0
21044445337166,0.25842485,8.939586,4.3118663,0.0,0.0,0.0
21044447716229,0.26799613,8.949157,4.321438,0.0,0.0,0.0
21044450095239,0.3062813,8.915657,4.316652,0.0,0.0,0.0
21044452474249,0.33499518,8.925228,4.3070807,0.0,0.0,0.0
21044454853260,0.3589234,8.920443,4.316652,0.0,0.0,0.0
21044457232322,0.37806597,8.930014,4.3262234,0.0,0.0,0.0
21044459611333,0.41156548,8.920443,4.3070807,0.0,0.0,0.0
21044461990343,0.4354937,8.906086,4.3118663,0.0,0.0,0.0
21044464369354,0.44027936,8.891729,4.3070807,0.0,0.0,0.0
21044466748364,0.43070808,8.886943,4.3070807,0.0,0.0,0.0
21044469127427,0.4354937,8.85823,4.3070807,0.0,0.0,0.0
21044471506437,0.4019942,8.853444,4.3118663,0.0,0.0,0.0
21044473885447,0.3684947,8.867801,4.302295,0.0,0.0,0.0
21044476264458,0.37806597,8.85823,4.3118663,0.0,0.0,0.0
21044478643520,0.38285163,8.843872,4.316652,0.0,0.0,0.0
21044481022531,0.34456646,8.829515,4.3118663,0.0,0.0,0.0
21044483401541,0.3397808,8.829515,4.2831526,0.0,0.0,0.0
21044485780552,0.31106696,8.839087,4.2687955,0.0,0.0,0.0
21044488159614,0.31106696,8.85823,4.254439,0.0,0.0,0.0
21044490538624,0.33499518,8.882157,4.26401,0.0,0.0,0.0
21044492917635,0.32063824,8.853444,4.2592244,0.0,0.0,0.0
21044495296645,0.32542387,8.863015,4.249653,0.0,0.0,0.0
21044497675656,0.35413775,8.877372,4.254439,0.0,0.0,0.0
21044500054718,0.38285163,8.863015,4.2592244,0.0,0.0,0.0
21044502433729,0.35413775,8.882157,4.23051,0.0,0.0,0.0
21044504812739,0.35413775,8.843872,4.23051,0.0,0.0,0.0
21044507191802,0.35413775,8.843872,4.2448673,0.0,0.0,0.0
21044509570812,0.3589234,8.877372,4.23051,0.0,0.0,0.0
21044511949822,0.3397808,8.906086,4.23051,0.0,0.0,0.0
21044514328833,0.3493521,8.882157,4.2352962,0.0,0.0,0.0
21044516707843,0.3493521,8.915657,4.2161536,0.0,0.0,0.0
21044519086906,0.32542387,8.915657,4.197011,0.0,0.0,0.0
21044521465916,0.31585258,8.915657,4.1635113,0.0,0.0,0.0
21044523844927,0.29192436,8.920443,4.1635113,0.0,0.0,0.0
21044526223937,0.2632105,8.920443,4.1587257,0.0,0.0,0.0
21044528602999,0.23928227,8.920443,4.168297,0.0,0.0,0.0
21044530982010,0.21535404,8.939586,4.182654,0.0,0.0,0.0
21044533361020,0.21535404,8.944371,4.197011,0.0,0.0,0.0
21044535740031,0.20578274,8.939586,4.206582,0.0,0.0,0.0
21044538119093,0.23449662,8.920443,4.197011,0.0,0.0,0.0
21044540498104,0.23928227,8.915657,4.1874394,0.0,0.0,0.0
21044542877114,0.2727818,8.920443,4.182654,0.0,0.0,0.0
21044545256124,0.27756742,8.9013,4.2017965,0.0,0.0,0.0
21044547635187,0.28235307,8.925228,4.211368,0.0,0.0,0.0
21044550014197,0.29192436,8.906086,4.211368,0.0,0.0,0.0
21044552393208,0.29671,8.9013,4.2017965,0.0,0.0,0.0
21044554772218,0.28713873,8.891729,4.197011,0.0,0.0,0.0
21044557151229,0.3062813,8.906086,4.2161536,0.0,0.0,0.0
21044559530291,0.32063824,8.877372,4.2161536,0.0,0.0,0.0
21044561909302,0.28713873,8.891729,4.2352962,0.0,0.0,0.0
21044564288312,0.25842485,8.915657,4.240082,0.0,0.0,0.0
21044566667322,0.2440679,8.925228,4.249653,0.0,0.0,0.0
21044569046385,0.22013968,8.920443,4.2592244,0.0,0.0,0.0
21044571425395,0.19621146,8.930014,4.273581,0.0,0.0,0.0
21044573804406,0.19621146,8.9348,4.2592244,0.0,0.0,0.0
21044576183416,0.17706887,8.925228,4.254439,0.0,0.0,0.0
21044578562479,0.16749759,8.920443,4.26401,0.0,0.0,0.0
21044580941489,0.16749759,8.9013,4.26401,0.0,0.0,0.0
21044583320499,0.19621146,8.906086,4.273581,0.0,0.0,0.0
21044585699510,0.2105684,8.896515,4.2687955,0.0,0.0,0.0
21044588078572,0.22971097,8.872586,4.278367,0.0,0.0,0.0
21044590457583,0.23449662,8.867801,4.2687955,0.0,0.0,0.0
21044592836593,0.23928227,8.85823,4.249653,0.0,0.0,0.0
21044595215604,0.27756742,8.863015,4.254439,0.0,0.0,0.0
21044597594614,0.32542387,8.85823,4.26401,0.0,0.0,0.0
21044599973677,0.3397808,8.85823,4.2687955,0.0,0.0,0.0
21044602352687,0.37328035,8.848659,4.2927237,0.0,0.0,0.0
21044604731697,0.35413775,8.867801,4.287938,0.0,0.0,0.0
21044607110708,0.37806597,8.863015,4.2927237,0.0,0.0,0.0
21044609489770,0.3684947,8.867801,4.287938,0.0,0.0,0.0
21044611868781,0.32542387,8.863015,4.2831526,0.0,0.0,0.0
21044614247791,0.32063824,8.863015,4.287938,0.0,0.0,0.0
21044616626802,0.30149564,8.839087,4.2975097,0.0,0.0,0.0
21044619005864,0.26799613,8.82473,4.316652,0.0,0.0,0.0
21044621384874,0.23449662,8.819944,4.3262234,0.0,0.0,0.0
21044623763885,0.20578274,8.82473,4.345366,0.0,0.0,0.0
21044626142895,0.17706887,8.843872,4.345366,0.0,0.0,0.0
21044628521906,0.13878371,8.829515,4.321438,0.0,0.0,0.0
21044630900968,0.11964113,8.843872,4.3405805,0.0,0.0,0.0
21044633279979,0.086141616,8.848659,4.345366,0.0,0.0,0.0
21044635658989,0.086141616,8.848659,4.354937,0.0,0.0,0.0
21044638037999,0.08135597,8.843872,4.369294,0.0,0.0,0.0
21044640417062,0.09092726,8.829515,4.3740797,0.0,0.0,0.0
21044642796072,0.09571291,8.848659,4.3740797,0.0,0.0,0.0
21044645175083,0.10049855,8.853444,4.398008,0.0,0.0,0.0
21044647554093,0.11964113,8.867801,4.402794,0.0,0.0,0.0
21044649933156,0.12921242,8.85823,4.426722,0.0,0.0,0.0
21044652312166,0.13399807,8.872586,4.398008,0.0,0.0,0.0
21044654691177,0.11964113,8.877372,4.354937,0.0,0.0,0.0
21044657070187,0.11485548,8.872586,4.388437,0.0,0.0,0.0
21044659449249,0.11964113,8.829515,4.4554358,0.0,0.0,0.0
21044661828260,0.09092726,8.834301,4.4889355,0.0,0.0,0.0
21044664207270,0.11006984,8.848659,4.503292,0.0,0.0,0.0
21044666586281,0.10049855,8.85823,4.45065,0.0,0.0,0.0
21044668965343,0.08135597,8.815159,4.4075794,0.0,0.0,0.0
21044671344354,0.076570325,8.82473,4.3740797,0.0,0.0,0.0
21044673723364,0.09571291,8.834301,4.3645086,0.0,0.0,0.0
21044676102322,0.062213387,8.839087,4.369294,0.0,0.0,0.0
21044678481385,0.06699903,8.834301,4.3932223,0.0,0.0,0.0
21044680860447,0.07178468,8.815159,4.412365,0.0,0.0,0.0
21044683239458,0.09571291,8.82473,4.402794,0.0,0.0,0.0
21044685618468,0.086141616,8.829515,4.369294,0.0,0.0,0.0
21044687997479,0.12921242,8.843872,4.3262234,0.0,0.0,0.0
21044690376541,0.15792629,8.839087,4.3118663,0.0,0.0,0.0
21044692755552,0.15792629,8.843872,4.302295,0.0,0.0,0.0
21044695134510,0.2009971,8.839087,4.316652,0.0,0.0,0.0
21044697513572,0.22971097,8.85823,4.3262234,0.0,0.0,0.0
21044699892583,0.24885355,8.85823,4.302295,0.0,0.0,0.0
21044702271645,0.27756742,8.867801,4.273581,0.0,0.0,0.0
21044704650656,0.28235307,8.9013,4.240082,0.0,0.0,0.0
21044707029666,0.25842485,8.925228,4.206582,0.0,0.0,0.0
21044709408729,0.27756742,8.925228,4.2017965,0.0,0.0,0.0
21044711787739,0.25842485,8.915657,4.1922255,0.0,0.0,0.0
21044714166749,0.22971097,8.944371,4.197011,0.0,0.0,0.0
21044716545760,0.2009971,8.949157,4.182654,0.0,0.0,0.0
21044718924770,0.15792629,8.977871,4.182654,0.0,0.0,0.0
21044721303833,0.124426775,8.987442,4.1443686,0.0,0.0,0.0
21044723682843,0.15314065,8.992228,4.130012,0.0,0.0,0.0
21044726061854,0.124426775,9.01137,4.1108694,0.0,0.0,0.0
21044728440864,0.08135597,9.001799,4.101298,0.0,0.0,0.0
21044730819927,0.07178468,9.006584,4.0869412,0.0,0.0,0.0
21044733198937,0.076570325,9.020942,4.0869412,0.0,0.0,0.0
21044735577947,0.09571291,9.016156,4.082155,0.0,0.0,0.0
21044737956958,0.124426775,9.040084,4.0677986,0.0,0.0,0.0
21044740335968,0.15314065,9.035298,4.0438704,0.0,0.0,0.0
21044742715031,0.18185452,9.016156,4.0438704,0.0,0.0,0.0
21044745094041,0.22013968,9.025727,4.048656,0.0,0.0,0.0
21044747473052,0.23928227,9.016156,4.0295134,0.0,0.0,0.0
21044749852114,0.23928227,9.025727,4.048656,0.0,0.0,0.0
21044752231124,0.23928227,9.044869,4.0677986,0.0,0.0,0.0
21044754610135,0.25842485,9.025727,4.0773697,0.0,0.0,0.0
21044756989145,0.24885355,9.020942,4.058227,0.0,0.0,0.0
21044759368156,0.2440679,9.01137,4.0390844,0.0,0.0,0.0
21044761747218,0.2536392,9.001799,4.0438704,0.0,0.0,0.0
21044764126229,0.2440679,9.01137,4.063013,0.0,0.0,0.0
21044766505239,0.23928227,9.020942,4.0534415,0.0,0.0,0.0
21044768884249,0.22971097,9.025727,4.0534415,0.0,0.0,0.0
21044771263312,0.23928227,9.016156,4.058227,0.0,0.0,0.0
21044773642322,0.22492532,8.997013,4.072584,0.0,0.0,0.0
21044776021333,0.20578274,8.9826565,4.0390844,0.0,0.0,0.0
21044778400343,0.22492532,8.977871,4.034299,0.0,0.0,0.0
21044780779406,0.26799613,8.9826565,4.0295134,0.0,0.0,0.0
21044783158416,0.32542387,8.953942,4.048656,0.0,0.0,0.0
21044785537427,0.35413775,8.963513,4.0534415,0.0,0.0,0.0
21044787916437,0.3924229,8.963513,4.048656,0.0,0.0,0.0
21044790295499,0.4019942,8.953942,4.0534415,0.0,0.0,0.0
21044792674510,0.4354937,8.949157,4.0534415,0.0,0.0,0.0
21044795053520,0.44985065,8.930014,4.0534415,0.0,0.0,0.0
21044797432531,0.45942193,8.958728,4.0534415,0.0,0.0,0.0
21044799811593,0.4546363,8.949157,4.063013,0.0,0.0,0.0
21044802190604,0.45942193,8.939586,4.082155,0.0,0.0,0.0
21044804569614,0.44027936,8.939586,4.0677986,0.0,0.0,0.0
21044806948624,0.40677986,8.987442,4.0965123,0.0,0.0,0.0
21044809327635,0.3924229,8.973084,4.091727,0.0,0.0,0.0
21044811706697,0.37328035,8.958728,4.091727,0.0,0.0,0.0
21044814085708,0.36370903,8.944371,4.1108694,0.0,0.0,0.0
21044816464718,0.33020952,8.968299,4.1204405,0.0,0.0,0.0
21044818843729,0.29192436,8.968299,4.1443686,0.0,0.0,0.0
21044821222791,0.27756742,8.9826565,4.1491547,0.0,0.0,0.0
21044823601802,0.27756742,8.958728,4.1635113,0.0,0.0,0.0
21044825980812,0.26799613,8.963513,4.173083,0.0,0.0,0.0
21044828359822,0.25842485,8.949157,4.173083,0.0,0.0,0.0
21044830738885,0.25842485,8.949157,4.182654,0.0,0.0,0.0
21044833117895,0.2727818,8.939586,4.206582,0.0,0.0,0.0
21044835496906,0.2727818,8.920443,4.220939,0.0,0.0,0.0
21044837875916,0.28235307,8.915657,4.23051,0.0,0.0,0.0
21044840254979,0.3062813,8.906086,4.2352962,0.0,0.0,0.0
21044842633989,0.31585258,8.891729,4.254439,0.0,0.0,0.0
21044845012999,0.3062813,8.9013,4.254439,0.0,0.0,0.0
21044847392010,0.31106696,8.896515,4.249653,0.0,0.0,0.0
21044849771072,0.30149564,8.896515,4.2687955,0.0,0.0,0.0
21044852150083,0.29192436,8.877372,4.278367,0.0,0.0,0.0
21044854529093,0.29192436,8.863015,4.287938,0.0,0.0,0.0
21044856908104,0.2632105,8.867801,4.2975097,0.0,0.0,0.0
21044859287114,0.2536392,8.85823,4.2927237,0.0,0.0,0.0
21044861666177,0.2440679,8.834301,4.302295,0.0,0.0,0.0
21044864045187,0.22971097,8.805588,4.2975097,0.0,0.0,0.0
21044866424197,0.22971097,8.839087,4.287938,0.0,0.0,0.0
21044868803208,0.22971097,8.796016,4.3070807,0.0,0.0,0.0
21044871182218,0.22492532,8.810373,4.302295,0.0,0.0,0.0
21044873561281,0.22013968,8.819944,4.2975097,0.0,0.0,0.0
21044875940291,0.24885355,8.781659,4.3118663,0.0,0.0,0.0
21044878319302,0.29192436,8.800801,4.2975097,0.0,0.0,0.0
21044880698364,0.33020952,8.82473,4.321438,0.0,0.0,0.0
21044883077374,0.3589234,8.815159,4.302295,0.0,0.0,0.0
21044885456385,0.3589234,8.829515,4.3118663,0.0,0.0,0.0
21044887835395,0.3684947,8.839087,4.302295,0.0,0.0,0.0
21044890214406,0.3589234,8.853444,4.3118663,0.0,0.0,0.0
21044892593468,0.3684947,8.839087,4.3070807,0.0,0.0,0.0
21044894972479,0.35413775,8.843872,4.287938,0.0,0.0,0.0
21044897351489,0.36370903,8.848659,4.2927237,0.0,0.0,0.0
21044899730499,0.35413775,8.867801,4.2927237,0.0,0.0,0.0
21044902109562,0.3493521,8.867801,4.302295,0.0,0.0,0.0
21044904488572,0.3397808,8.863015,4.2831526,0.0,0.0,0.0
21044906867583,0.29671,8.886943,4.278367,0.0,0.0,0.0
21044909246593,0.27756742,8.891729,4.278367,0.0,0.0,0.0
21044911625656,0.28235307,8.9108715,4.2592244,0.0,0.0,0.0
21044914004666,0.2632105,8.915657,4.249653,0.0,0.0,0.0
21044916383677,0.26799613,8.9348,4.2592244,0.0,0.0,0.0
21044918762687,0.22013968,8.9348,4.2687955,0.0,0.0,0.0
21044921141749,0.21535404,8.9348,4.2592244,0.0,0.0,0.0
21044923520708,0.20578274,8.930014,4.2687955,0.0,0.0,0.0
21044925899770,0.22492532,8.920443,4.278367,0.0,0.0,0.0
21044928278781,0.21535404,8.9013,4.26401,0.0,0.0,0.0
21044930657843,0.2105684,8.915657,4.2592244,0.0,0.0,0.0
21044933036854,0.2105684,8.930014,4.240082,0.0,0.0,0.0
21044935415864,0.2009971,8.925228,4.249653,0.0,0.0,0.0
21044937794874,0.19142582,8.896515,4.2352962,0.0,0.0,0.0
21044940173885,0.18185452,8.915657,4.2352962,0.0,0.0,0.0
21044942552947,0.18185452,8.906086,4.2592244,0.0,0.0,0.0
21044944931958,0.15792629,8.877372,4.26401,0.0,0.0,0.0
21044947310968,0.12921242,8.891729,4.2687955,0.0,0.0,0.0
21044949689979,0.09571291,8.882157,4.26401,0.0,0.0,0.0
21044952069041,0.076570325,8.867801,4.2831526,0.0,0.0,0.0
21044954448052,0.038285162,8.848659,4.287938,0.0,0.0,0.0
21044956827062,0.038285162,8.843872,4.302295,0.0,0.0,0.0
21044959206072,0.019142581,8.882157,4.3118663,0.0,0.0,0.0
21044961585135,-0.0047856453,8.872586,4.321438,0.0,0.0,0.0
21044963964145,-0.019142581,8.843872,4.331009,0.0,0.0,0.0
21044966343156,-0.014356935,8.839087,4.3501515,0.0,0.0,0.0
21044968722166,-0.009571291,8.882157,4.3501515,0.0,0.0,0.0
21044971101229,0.009571291,8.877372,4.3405805,0.0,0.0,0.0
21044973480239,0.047856454,8.877372,4.345366,0.0,0.0,0.0
21044975859249,0.06699903,8.886943,4.3357944,0.0,0.0,0.0
21044978238260,0.08135597,8.896515,4.3405805,0.0,0.0,0.0
21044980617322,0.1052842,8.9013,4.3357944,0.0,0.0,0.0
21044982996333,0.148355,8.9108715,4.3645086,0.0,0.0,0.0
21044985375343,0.19142582,8.920443,4.369294,0.0,0.0,0.0
21044987754354,0.19142582,8.9013,4.369294,0.0,0.0,0.0
21044990133364,0.18185452,8.906086,4.369294,0.0,0.0,0.0
21044992512427,0.17228323,8.896515,4.3788652,0.0,0.0,0.0
21044994891437,0.17228323,8.9108715,4.3836513,0.0,0.0,0.0
21044997270447,0.17228323,8.9108715,4.3740797,0.0,0.0,0.0
21044999649458,0.16749759,8.906086,4.3501515,0.0,0.0,0.0
21045002028520,0.15314065,8.896515,4.345366,0.0,0.0,0.0
21045004407531,0.12921242,8.872586,4.3357944,0.0,0.0,0.0
21045006786541,0.12921242,8.85823,4.316652,0.0,0.0,0.0
21045009165552,0.11964113,8.834301,4.321438,0.0,0.0,0.0
21045011544614,0.13399807,8.85823,4.3262234,0.0,0.0,0.0
21045013923624,0.14356937,8.853444,4.3262234,0.0,0.0,0.0
21045016302635,0.16749759,8.829515,4.3118663,0.0,0.0,0.0
21045018681645,0.18664017,8.834301,4.2927237,0.0,0.0,0.0
21045021060708,0.22013968,8.853444,4.2927237,0.0,0.0,0.0
21045023439718,0.22013968,8.848659,4.287938,0.0,0.0,0.0
21045025818729,0.2440679,8.843872,4.2975097,0.0,0.0,0.0
21045028197739,0.24885355,8.848659,4.2975097,0.0,0.0,0.0
21045030576749,0.2632105,8.85823,4.2927237,0.0,0.0,0.0
21045032955812,0.27756742,8.85823,4.2927237,0.0,0.0,0.0
21045035334822,0.2536392,8.863015,4.302295,0.0,0.0,0.0
21045037713833,0.23928227,8.877372,4.302295,0.0,0.0,0.0
21045040092843,0.23928227,8.863015,4.3070807,0.0,0.0,0.0
21045042471906,0.22492532,8.853444,4.278367,0.0,0.0,0.0
21045044850916,0.21535404,8.863015,4.2592244,0.0,0.0,0.0
21045047229927,0.21535404,8.886943,4.254439,0.0,0.0,0.0
21045049608937,0.19142582,8.896515,4.273581,0.0,0.0,0.0
21045051987999,0.17706887,8.896515,4.278367,0.0,0.0,0.0
21045054367010,0.19142582,8.891729,4.249653,0.0,0.0,0.0
21045056746020,0.17228323,8.9108715,4.2352962,0.0,0.0,0.0
21045059125031,0.17228323,8.9013,4.23051,0.0,0.0,0.0
21045061504093,0.19142582,8.915657,4.2352962,0.0,0.0,0.0
21045063883104,0.22013968,8.9108715,4.2257247,0.0,0.0,0.0
21045066262114,0.2536392,8.944371,4.2161536,0.0,0.0,0.0
21045068641124,0.29192436,8.920443,4.2017965,0.0,0.0,0.0
21045071020135,0.3397808,8.906086,4.1874394,0.0,0.0,0.0
21045073399197,0.37806597,8.925228,4.1778684,0.0,0.0,0.0
21045075778208,0.41156548,8.9108715,4.1587257,0.0,0.0,0.0
21045078157218,0.4354937,8.906086,4.15394,0.0,0.0,0.0
21045080536281,0.4354937,8.896515,4.1587257,0.0,0.0,0.0
21045082915291,0.44506502,8.925228,4.1443686,0.0,0.0,0.0
21045085294302,0.42592242,8.920443,4.1443686,0.0,0.0,0.0
21045087673312,0.44506502,8.906086,4.1443686,0.0,0.0,0.0
21045090052322,0.43070808,8.915657,4.1443686,0.0,0.0,0.0
21045092431385,0.44027936,8.944371,4.1443686,0.0,0.0,0.0
21045094810395,0.41156548,8.949157,4.1491547,0.0,0.0,0.0
21045097189406,0.3924229,8.944371,4.1347976,0.0,0.0,0.0
21045099568416,0.38763726,8.949157,4.1491547,0.0,0.0,0.0
21045101947479,0.37806597,8.953942,4.1635113,0.0,0.0,0.0
21045104326489,0.3493521,8.949157,4.1587257,0.0,0.0,0.0
21045106705499,0.3493521,8.963513,4.1635113,0.0,0.0,0.0
21045109084458,0.34456646,8.977871,4.1587257,0.0,0.0,0.0
21045111463572,0.34456646,8.997013,4.139583,0.0,0.0,0.0
21045113842583,0.3493521,8.9826565,4.130012,0.0,0.0,0.0
21045116221593,0.35413775,8.958728,4.1443686,0.0,0.0,0.0
21045118600604,0.37806597,8.949157,4.1491547,0.0,0.0,0.0
21045120979666,0.39720857,8.958728,4.168297,0.0,0.0,0.0
21045123358677,0.42592242,8.958728,4.1587257,0.0,0.0,0.0
21045125737687,0.43070808,8.958728,4.1635113,0.0,0.0,0.0
21045128116697,0.44027936,8.953942,4.15394,0.0,0.0,0.0
21045130495708,0.4546363,8.920443,4.1635113,0.0,0.0,0.0
21045132874770,0.4354937,8.930014,4.1874394,0.0,0.0,0.0
21045135253781,0.4211368,8.920443,4.173083,0.0,0.0,0.0
21045137632791,0.4211368,8.925228,4.2017965,0.0,0.0,0.0
21045140011802,0.38763726,8.925228,4.220939,0.0,0.0,0.0
21045142390864,0.36370903,8.930014,4.2161536,0.0,0.0,0.0
21045144769874,0.3493521,8.9348,4.220939,0.0,0.0,0.0
21045147148885,0.29192436,8.944371,4.220939,0.0,0.0,0.0
21045149527895,0.2727818,8.939586,4.2257247,0.0,0.0,0.0
21045151906958,0.24885355,8.939586,4.220939,0.0,0.0,0.0
21045154285968,0.21535404,8.9108715,4.240082,0.0,0.0,0.0
21045156664979,0.22013968,8.9108715,4.2257247,0.0,0.0,0.0
21045159043989,0.22492532,8.906086,4.2448673,0.0,0.0,0.0
21045161423052,0.2440679,8.906086,4.2257247,0.0,0.0,0.0
21045163802062,0.22971097,8.896515,4.254439,0.0,0.0,0.0
21045166181072,0.26799613,8.891729,4.2687955,0.0,0.0,0.0
21045168560083,0.2727818,8.882157,4.26401,0.0,0.0,0.0
21045170939145,0.29671,8.9013,4.2592244,0.0,0.0,0.0
21045173318156,0.33499518,8.9013,4.2448673,0.0,0.0,0.0
21045175697166,0.37806597,8.886943,4.2448673,0.0,0.0,0.0
21045178076177,0.38763726,8.863015,4.2448673,0.0,0.0,0.0
21045180455187,0.4019942,8.863015,4.2352962,0.0,0.0,0.0
21045182834249,0.4019942,8.867801,4.2352962,0.0,0.0,0.0
21045185213260,0.4019942,8.848659,4.249653,0.0,0.0,0.0
21045187592270,0.41156548,8.843872,4.240082,0.0,0.0,0.0
21045189971281,0.3924229,8.834301,4.240082,0.0,0.0,0.0
21045192350343,0.38285163,8.848659,4.23051,0.0,0.0,0.0
21045194729354,0.34456646,8.853444,4.23051,0.0,0.0,0.0
21045197108364,0.3493521,8.867801,4.2448673,0.0,0.0,0.0
21045199487374,0.31585258,8.882157,4.249653,0.0,0.0,0.0
21045201866437,0.29192436,8.877372,4.240082,0.0,0.0,0.0
21045204245447,0.2727818,8.886943,4.278367,0.0,0.0,0.0
21045206624458,0.23928227,8.915657,4.26401,0.0,0.0,0.0
21045209003468,0.22971097,8.915657,4.26401,0.0,0.0,0.0
21045211382531,0.22013968,8.9013,4.26401,0.0,0.0,0.0
21045213761541,0.23449662,8.906086,4.278367,0.0,0.0,0.0
21045216140552,0.25842485,8.906086,4.273581,0.0,0.0,0.0
21045218519562,0.29192436,8.906086,4.249653,0.0,0.0,0.0
21045220898572,0.28713873,8.920443,4.2592244,0.0,0.0,0.0
21045223277635,0.32542387,8.920443,4.26401,0.0,0.0,0.0
21045225656645,0.33020952,8.886943,4.249653,0.0,0.0,0.0
21045228035656,0.35413775,8.877372,4.240082,0.0,0.0,0.0
21045230414666,0.34456646,8.915657,4.23051,0.0,0.0,0.0
21045232793729,0.3493521,8.906086,4.2352962,0.0,0.0,0.0
21045235172739,0.3493521,8.9013,4.240082,0.0,0.0,0.0
21045237551749,0.33499518,8.896515,4.2448673,0.0,0.0,0.0
21045239930760,0.35413775,8.886943,4.240082,0.0,0.0,0.0
21045242309822,0.33499518,8.9013,4.2448673,0.0,0.0,0.0
21045244688833,0.32542387,8.920443,4.249653,0.0,0.0,0.0
21045247067843,0.29671,8.925228,4.2352962,0.0,0.0,0.0
21045249446854,0.27756742,8.915657,4.220939,0.0,0.0,0.0
21045251825916,0.2536392,8.891729,4.2352962,0.0,0.0,0.0
21045254204927,0.22013968,8.906086,4.23051,0.0,0.0,0.0
21045256583937,0.19142582,8.915657,4.23051,0.0,0.0,0.0
21045258962947,0.16749759,8.915657,4.23051,0.0,0.0,0.0
21045261341958,0.2009971,8.891729,4.240082,0.0,0.0,0.0
21045263721020,0.17706887,8.882157,4.23051,0.0,0.0,0.0
21045266100031,0.19621146,8.891729,4.2257247,0.0,0.0,0.0
21045268479041,0.18664017,8.891729,4.240082,0.0,0.0,0.0
21045270858104,0.18185452,8.896515,4.2161536,0.0,0.0,0.0
21045273237114,0.18185452,8.891729,4.23051,0.0,0.0,0.0
21045275616124,0.19621146,8.925228,4.2161536,0.0,0.0,0.0
21045277995135,0.21535404,8.906086,4.23051,0.0,0.0,0.0
21045280374145,0.21535404,8.906086,4.2161536,0.0,0.0,0.0
21045282753208,0.22492532,8.915657,4.2017965,0.0,0.0,0.0
21045285132218,0.20578274,8.886943,4.2161536,0.0,0.0,0.0
21045287511229,0.18185452,8.886943,4.2352962,0.0,0.0,0.0
21045289890239,0.17706887,8.9013,4.23051,0.0,0.0,0.0
21045292269302,0.17706887,8.920443,4.23051,0.0,0.0,0.0
21045294648312,0.17706887,8.896515,4.2448673,0.0,0.0,0.0
21045297027322,0.15314065,8.886943,4.211368,0.0,0.0,0.0
21045299406333,0.17228323,8.915657,4.23051,0.0,0.0,0.0
21045301785395,0.14356937,8.9108715,4.2352962,0.0,0.0,0.0
21045304164406,0.148355,8.886943,4.249653,0.0,0.0,0.0
21045306543416,0.13399807,8.9013,4.240082,0.0,0.0,0.0
21045308922427,0.13878371,8.896515,4.254439,0.0,0.0,0.0
21045311301437,0.11964113,8.915657,4.254439,0.0,0.0,0.0
21045313680499,0.15792629,8.920443,4.26401,0.0,0.0,0.0
21045316059510,0.148355,8.9013,4.2592244,0.0,0.0,0.0
21045318438520,0.148355,8.9013,4.2448673,0.0,0.0,0.0
21045320817531,0.16749759,8.9108715,4.2592244,0.0,0.0,0.0
21045323196593,0.2009971,8.920443,4.2831526,0.0,0.0,0.0
21045325575604,0.2009971,8.930014,4.278367,0.0,0.0,0.0
21045327954614,0.18664017,8.9348,4.287938,0.0,0.0,0.0
21045330333624,0.18185452,8.9348,4.278367,0.0,0.0,0.0
21045332712687,0.19142582,8.939586,4.273581,0.0,0.0,0.0
21045335091697,0.16749759,8.939586,4.2831526,0.0,0.0,0.0
21045337470708,0.18664017,8.925228,4.278367,0.0,0.0,0.0
21045339849718,0.19621146,8.9108715,4.278367,0.0,0.0,0.0
21045342228781,0.18664017,8.915657,4.278367,0.0,0.0,0.0
21045344607791,0.17228323,8.9108715,4.302295,0.0,0.0,0.0
21045346986802,0.18185452,8.882157,4.287938,0.0,0.0,0.0
21045349365812,0.16749759,8.896515,4.273581,0.0,0.0,0.0
21045351744874,0.16749759,8.906086,4.278367,0.0,0.0,0.0
21045354123885,0.15792629,8.896515,4.2927237,0.0,0.0,0.0
21045356502895,0.18185452,8.877372,4.287938,0.0,0.0,0.0
21045358881906,0.2009971,8.848659,4.287938,0.0,0.0,0.0
21045361260968,0.2105684,8.843872,4.2975097,0.0,0.0,0.0
21045363639979,0.19142582,8.853444,4.2831526,0.0,0.0,0.0
21045366018989,0.18185452,8.843872,4.26401,0.0,0.0,0.0
21045368397999,0.18664017,8.843872,4.2687955,0.0,0.0,0.0
21045370777010,0.19142582,8.843872,4.273581,0.0,0.0,0.0
21045373156072,0.18664017,8.848659,4.2687955,0.0,0.0,0.0
21045375535083,0.19142582,8.85823,4.254439,0.0,0.0,0.0
21045377914093,0.18185452,8.839087,4.26401,0.0,0.0,0.0
21045380293104,0.17706887,8.829515,4.273581,0.0,0.0,0.0
21045382672166,0.15792629,8.877372,4.273581,0.0,0.0,0.0
21045385051177,0.15792629,8.886943,4.26401,0.0,0.0,0.0
21045387430187,0.15792629,8.882157,4.2592244,0.0,0.0,0.0
21045389809197,0.12921242,8.896515,4.2352962,0.0,0.0,0.0
21045392188260,0.124426775,8.9108715,4.254439,0.0,0.0,0.0
21045394567270,0.12921242,8.906086,4.254439,0.0,0.0,0.0
21045396946281,0.13399807,8.915657,4.2592244,0.0,0.0,0.0
21045399325291,0.15314065,8.930014,4.2592244,0.0,0.0,0.0
21045401704354,0.148355,8.949157,4.2592244,0.0,0.0,0.0
21045404083364,0.16749759,8.939586,4.2448673,0.0,0.0,0.0
21045406462374,0.18664017,8.930014,4.2448673,0.0,0.0,0.0
21045408841385,0.2105684,8.9348,4.2257247,0.0,0.0,0.0
21045411220447,0.23928227,8.9348,4.2017965,0.0,0.0,0.0
21045413599458,0.2440679,8.939586,4.1922255,0.0,0.0,0.0
21045415978468,0.25842485,8.949157,4.206582,0.0,0.0,0.0
21045418357479,0.27756742,8.949157,4.206582,0.0,0.0,0.0
21045420736489,0.28713873,8.944371,4.1778684,0.0,0.0,0.0
21045423115552,0.29671,8.925228,4.1922255,0.0,0.0,0.0
21045425494562,0.31106696,8.958728,4.2017965,0.0,0.0,0.0
21045427873572,0.3062813,8.953942,4.182654,0.0,0.0,0.0
21045430252583,0.3062813,8.939586,4.1635113,0.0,0.0,0.0
21045432631645,0.28713873,8.939586,4.1778684,0.0,0.0,0.0
21045435010656,0.26799613,8.944371,4.182654,0.0,0.0,0.0
21045437389666,0.2440679,8.968299,4.1778684,0.0,0.0,0.0
21045439768677,0.2440679,8.939586,4.173083,0.0,0.0,0.0
21045442147739,0.22971097,8.930014,4.1587257,0.0,0.0,0.0
21045444526749,0.23449662,8.915657,4.15394,0.0,0.0,0.0
21045446905760,0.23928227,8.9348,4.1635113,0.0,0.0,0.0
21045449284770,0.21535404,8.939586,4.173083,0.0,0.0,0.0
21045451663781,0.2105684,8.9348,4.1587257,0.0,0.0,0.0
21045454042843,0.2105684,8.9348,4.168297,0.0,0.0,0.0
