t_ns,ax,ay,az,bx,by,bz
19711081985905,0.4211368,8.733803,4.4410787,0.0,0.0,0.0
19711084364968,0.5168497,8.71466,4.3836513,0.0,0.0,0.0
19711086744239,0.63170516,8.729017,4.388437,0.0,0.0,0.0
19711089123301,0.6795616,8.738588,4.398008,0.0,0.0,0.0
19711091502468,0.67477596,8.743374,4.398008,0.0,0.0,0.0
19711093881582,0.6412765,8.781659,4.402794,0.0,0.0,0.0
19711096260645,0.55034924,8.819944,4.421936,0.0,0.0,0.0
19711098639811,0.40677986,8.839087,4.4075794,0.0,0.0,0.0
19711101018874,0.2727818,8.863015,4.3645086,0.0,0.0,0.0
19711103398041,0.12921242,8.925228,4.345366,0.0,0.0,0.0
19711105777155,-0.014356935,8.953942,4.3357944,0.0,0.0,0.0
19711108156270,-0.12921242,8.906086,4.359723,0.0,0.0,0.0
19711110535384,-0.26799613,8.882157,4.398008,0.0,0.0,0.0
19711112914499,-0.32542387,8.863015,4.45065,0.0,0.0,0.0
19711115293614,-0.33499518,8.839087,4.4745784,0.0,0.0,0.0
19711117672728,-0.31106696,8.781659,4.508078,0.0,0.0,0.0
19711120051843,-0.24885355,8.748159,4.4985065,0.0,0.0,0.0
19711122430957,-0.16271193,8.719446,4.479364,0.0,0.0,0.0
19711124810072,-0.05742774,8.690732,4.4841495,0.0,0.0,0.0
19711127189134,0.05742774,8.666803,4.479364,0.0,0.0,0.0
19711129568301,0.14356937,8.647661,4.479364,0.0,0.0,0.0
19711131947416,0.22971097,8.676374,4.4841495,0.0,0.0,0.0
19711134326530,0.31106696,8.681161,4.4841495,0.0,0.0,0.0
19711136705645,0.37328035,8.719446,4.465007,0.0,0.0,0.0
19711139084759,0.3924229,8.762517,4.426722,0.0,0.0,0.0
19711141463874,0.3924229,8.819944,4.398008,0.0,0.0,0.0
19711143842989,0.3397808,8.843872,4.3740797,0.0,0.0,0.0
19711146222103,0.26799613,8.877372,4.388437,0.0,0.0,0.0
19711148601218,0.18185452,8.877372,4.4410787,0.0,0.0,0.0
19711150980332,0.1052842,8.877372,4.4841495,0.0,0.0,0.0
19711153359447,0.019142581,8.886943,4.508078,0.0,0.0,0.0
19711155738561,-0.086141616,8.872586,4.5559344,0.0,0.0,0.0
19711158117676,-0.14356937,8.85823,4.551149,0.0,0.0,0.0
19711160496791,-0.2105684,8.829515,4.546363,0.0,0.0,0.0
19711162875905,-0.23928227,8.796016,4.551149,0.0,0.0,0.0
19711165255020,-0.23449662,8.7577305,4.575077,0.0,0.0,0.0
19711167634134,-0.18185452,8.762517,4.570291,0.0,0.0,0.0
19711170013249,-0.1052842,8.762517,4.5942197,0.0,0.0,0.0
19711172392364,0.0,8.7673025,4.5655055,0.0,0.0,0.0
19711174771478,0.10049855,8.776874,4.5272202,0.0,0.0,0.0
19711177150593,0.23449662,8.772088,4.4745784,0.0,0.0,0.0
19711179529707,0.3684947,8.772088,4.45065,0.0,0.0,0.0
19711181908822,0.4833502,8.805588,4.4602213,0.0,0.0,0.0
19711184287936,0.5455636,8.819944,4.465007,0.0,0.0,0.0
19711186667051,0.60777694,8.819944,4.4602213,0.0,0.0,0.0
19711189046166,0.61734825,8.819944,4.45065,0.0,0.0,0.0
19711191425280,0.5982057,8.82473,4.436293,0.0,0.0,0.0
19711193804395,0.57427746,8.82473,4.4410787,0.0,0.0,0.0
19711196183509,0.51206404,8.810373,4.45065,0.0,0.0,0.0
19711198562624,0.4019942,8.810373,4.4602213,0.0,0.0,0.0
19711200941739,0.31106696,8.7577305,4.469793,0.0,0.0,0.0
19711203320853,0.22971097,8.733803,4.4985065,0.0,0.0,0.0
19711205699968,0.14356937,8.729017,4.4985065,0.0,0.0,0.0
19711208079082,0.062213387,8.7577305,4.493721,0.0,0.0,0.0
19711210458197,0.0047856453,8.752945,4.4745784,0.0,0.0,0.0
19711212837311,-0.014356935,8.772088,4.4602213,0.0,0.0,0.0
19711215216426,0.0,8.786445,4.4554358,0.0,0.0,0.0
19711217595541,-0.009571291,8.805588,4.426722,0.0,0.0,0.0
19711219974655,0.023928227,8.839087,4.4171505,0.0,0.0,0.0
19711222353770,0.05742774,8.882157,4.402794,0.0,0.0,0.0
19711224732884,0.1052842,8.872586,4.3788652,0.0,0.0,0.0
19711227111999,0.16271193,8.896515,4.388437,0.0,0.0,0.0
19711229491114,0.19621146,8.915657,4.369294,0.0,0.0,0.0
19711231870228,0.22013968,8.896515,4.388437,0.0,0.0,0.0
19711234249343,0.25842485,8.863015,4.4171505,0.0,0.0,0.0
19711236628457,0.2536392,8.853444,4.4458647,0.0,0.0,0.0
19711239007572,0.22492532,8.82473,4.508078,0.0,0.0,0.0
19711241386686,0.19621146,8.796016,4.5128636,0.0,0.0,0.0
19711243765801,0.19142582,8.772088,4.5224347,0.0,0.0,0.0
19711246144916,0.11006984,8.743374,4.5224347,0.0,0.0,0.0
19711248524030,0.043070808,8.719446,4.536792,0.0,0.0,0.0
19711250903145,0.009571291,8.709874,4.536792,0.0,0.0,0.0
19711253282259,-0.033499517,8.695518,4.546363,0.0,0.0,0.0
19711255661374,-0.076570325,8.71466,4.551149,0.0,0.0,0.0
19711258040489,-0.11485548,8.738588,4.5559344,0.0,0.0,0.0
19711260419603,-0.148355,8.752945,4.536792,0.0,0.0,0.0
19711262798718,-0.13878371,8.762517,4.5128636,0.0,0.0,0.0
19711265177832,-0.124426775,8.800801,4.479364,0.0,0.0,0.0
19711267556947,-0.1052842,8.834301,4.4602213,0.0,0.0,0.0
19711269936009,-0.1052842,8.829515,4.4410787,0.0,0.0,0.0
19711272315176,-0.07178468,8.805588,4.469793,0.0,0.0,0.0
19711274694291,-0.043070808,8.79123,4.4841495,0.0,0.0,0.0
19711277073405,-0.033499517,8.79123,4.4889355,0.0,0.0,0.0
19711279452520,0.0,8.776874,4.503292,0.0,0.0,0.0
19711281831634,0.038285162,8.786445,4.503292,0.0,0.0,0.0
19711284210749,0.086141616,8.733803,4.5128636,0.0,0.0,0.0
19711286589916,0.10049855,8.719446,4.469793,0.0,0.0,0.0
19711288969030,0.12921242,8.724232,4.4745784,0.0,0.0,0.0
19711291348093,0.13878371,8.724232,4.465007,0.0,0.0,0.0
19711293727259,0.11485548,8.729017,4.4410787,0.0,0.0,0.0
19711296106374,0.14356937,8.733803,4.436293,0.0,0.0,0.0
19711298485489,0.16271193,8.776874,4.4075794,0.0,0.0,0.0
19711300864603,0.17228323,8.819944,4.3932223,0.0,0.0,0.0
19711303243718,0.17228323,8.848659,4.3932223,0.0,0.0,0.0
19711305622832,0.13878371,8.863015,4.3740797,0.0,0.0,0.0
19711308001947,0.13399807,8.863015,4.359723,0.0,0.0,0.0
19711310381061,0.13878371,8.886943,4.3645086,0.0,0.0,0.0
19711312760176,0.09571291,8.882157,4.354937,0.0,0.0,0.0
19711315139291,0.11485548,8.853444,4.369294,0.0,0.0,0.0
19711317518405,0.11485548,8.85823,4.3836513,0.0,0.0,0.0
19711319897520,0.11964113,8.82473,4.3788652,0.0,0.0,0.0
19711322276634,0.11964113,8.796016,4.4075794,0.0,0.0,0.0
19711324655749,0.13878371,8.772088,4.4410787,0.0,0.0,0.0
19711327034864,0.16271193,8.748159,4.479364,0.0,0.0,0.0
19711329413978,0.2009971,8.738588,4.479364,0.0,0.0,0.0
19711331793093,0.21535404,8.733803,4.4841495,0.0,0.0,0.0
19711334172207,0.22013968,8.776874,4.4745784,0.0,0.0,0.0
19711336551322,0.22971097,8.79123,4.465007,0.0,0.0,0.0
19711338930436,0.20578274,8.810373,4.479364,0.0,0.0,0.0
19711341309551,0.18185452,8.815159,4.4841495,0.0,0.0,0.0
19711343688666,0.14356937,8.819944,4.508078,0.0,0.0,0.0
19711346067780,0.11006984,8.834301,4.517649,0.0,0.0,0.0
19711348446895,0.07178468,8.85823,4.5272202,0.0,0.0,0.0
19711350826009,0.033499517,8.848659,4.56072,0.0,0.0,0.0
19711353205124,0.009571291,8.82473,4.570291,0.0,0.0,0.0
19711355584239,0.0047856453,8.796016,4.546363,0.0,0.0,0.0
19711357963353,0.009571291,8.786445,4.536792,0.0,0.0,0.0
19711360342468,0.014356935,8.776874,4.5415773,0.0,0.0,0.0
19711362721582,0.02871387,8.7673025,4.551149,0.0,0.0,0.0
19711365100697,0.038285162,8.7673025,4.551149,0.0,0.0,0.0
19711367479811,0.0526421,8.776874,4.5415773,0.0,0.0,0.0
19711369858926,0.06699903,8.79123,4.536792,0.0,0.0,0.0
19711372238041,0.07178468,8.805588,4.5320063,0.0,0.0,0.0
19711374617103,0.06699903,8.853444,4.493721,0.0,0.0,0.0
19711376996270,0.076570325,8.877372,4.4410787,0.0,0.0,0.0
19711379375384,0.08135597,8.9013,4.421936,0.0,0.0,0.0
19711381754499,0.07178468,8.925228,4.398008,0.0,0.0,0.0
19711384133614,0.062213387,8.939586,4.388437,0.0,0.0,0.0
19711386512728,0.05742774,8.920443,4.3932223,0.0,0.0,0.0
19711388891843,0.043070808,8.925228,4.402794,0.0,0.0,0.0
19711391270905,0.009571291,8.877372,4.412365,0.0,0.0,0.0
19711393650072,0.019142581,8.867801,4.4410787,0.0,0.0,0.0
19711396029186,0.0526421,8.853444,4.4315076,0.0,0.0,0.0
19711398408301,0.08135597,8.800801,4.398008,0.0,0.0,0.0
19711400787416,0.13399807,8.781659,4.388437,0.0,0.0,0.0
19711403166530,0.20578274,8.762517,4.3788652,0.0,0.0,0.0
19711405545645,0.2727818,8.748159,4.359723,0.0,0.0,0.0
19711407924759,0.31585258,8.7673025,4.345366,0.0,0.0,0.0
19711410303874,0.3493521,8.776874,4.359723,0.0,0.0,0.0
19711412682989,0.40677986,8.800801,4.369294,0.0,0.0,0.0
19711415062103,0.4211368,8.829515,4.3740797,0.0,0.0,0.0
19711417441218,0.41635114,8.853444,4.354937,0.0,0.0,0.0
19711419820332,0.38763726,8.891729,4.3405805,0.0,0.0,0.0
19711422199447,0.3589234,8.915657,4.345366,0.0,0.0,0.0
19711424578561,0.30149564,8.939586,4.354937,0.0,0.0,0.0
19711426957676,0.2009971,8.939586,4.359723,0.0,0.0,0.0
19711429336791,0.12921242,8.9348,4.398008,0.0,0.0,0.0
19711431715905,0.07178468,8.906086,4.4554358,0.0,0.0,0.0
19711434095020,-0.0047856453,8.872586,4.4985065,0.0,0.0,0.0
19711436474134,-0.038285162,8.819944,4.546363,0.0,0.0,0.0
19711438853249,-0.06699903,8.776874,4.5798626,0.0,0.0,0.0
19711441232364,-0.038285162,8.743374,4.5655055,0.0,0.0,0.0
19711443611478,-0.009571291,8.71466,4.575077,0.0,0.0,0.0
19711445990593,0.019142581,8.695518,4.575077,0.0,0.0,0.0
19711448369707,0.086141616,8.671589,4.570291,0.0,0.0,0.0
19711450748770,0.148355,8.657232,4.5798626,0.0,0.0,0.0
19711453127936,0.20578274,8.671589,4.536792,0.0,0.0,0.0
19711455507051,0.22492532,8.705089,4.5320063,0.0,0.0,0.0
19711457886166,0.23449662,8.762517,4.5272202,0.0,0.0,0.0
19711460265280,0.2632105,8.786445,4.4985065,0.0,0.0,0.0
19711462644395,0.2727818,8.781659,4.402794,0.0,0.0,0.0
19711465023509,0.25842485,8.82473,4.412365,0.0,0.0,0.0
19711467402624,0.2440679,8.839087,4.4602213,0.0,0.0,0.0
19711469781739,0.19621146,8.82473,4.4985065,0.0,0.0,0.0
19711472160853,0.14356937,8.815159,4.5224347,0.0,0.0,0.0
19711474539968,0.086141616,8.772088,4.4889355,0.0,0.0,0.0
19711476919082,0.02871387,8.7673025,4.5128636,0.0,0.0,0.0
19711479298197,-0.033499517,8.781659,4.4985065,0.0,0.0,0.0
19711481677311,-0.09092726,8.705089,4.479364,0.0,0.0,0.0
19711484056426,-0.09092726,8.681161,4.469793,0.0,0.0,0.0
19711486435541,-0.07178468,8.671589,4.4985065,0.0,0.0,0.0
19711488814655,-0.0526421,8.671589,4.5224347,0.0,0.0,0.0
19711491193770,0.0,8.671589,4.493721,0.0,0.0,0.0
19711493572884,0.07178468,8.700303,4.469793,0.0,0.0,0.0
19711495951999,0.15792629,8.743374,4.4315076,0.0,0.0,0.0
19711498331114,0.2632105,8.800801,4.3932223,0.0,0.0,0.0
19711500710228,0.35413775,8.805588,4.3501515,0.0,0.0,0.0
19711503089343,0.41635114,8.867801,4.354937,0.0,0.0,0.0
19711505468457,0.4642076,8.891729,4.369294,0.0,0.0,0.0
19711507847572,0.4977071,8.896515,4.3932223,0.0,0.0,0.0
19711510226686,0.5024927,8.915657,4.4075794,0.0,0.0,0.0
19711512605801,0.5024927,8.920443,4.4075794,0.0,0.0,0.0
19711514984916,0.4546363,8.891729,4.421936,0.0,0.0,0.0
19711517364030,0.3924229,8.872586,4.4315076,0.0,0.0,0.0
19711519743145,0.31106696,8.853444,4.4841495,0.0,0.0,0.0
19711522122259,0.25842485,8.877372,4.5320063,0.0,0.0,0.0
19711524501374,0.19621146,8.839087,4.4745784,0.0,0.0,0.0
19711526880489,0.148355,8.810373,4.4410787,0.0,0.0,0.0
19711529259655,0.10049855,8.810373,4.4410787,0.0,0.0,0.0
19711531638770,0.06699903,8.805588,4.4554358,0.0,0.0,0.0
19711534017832,0.062213387,8.810373,4.4458647,0.0,0.0,0.0
19711536396999,0.062213387,8.79123,4.426722,0.0,0.0,0.0
19711538776114,0.08135597,8.82473,4.3932223,0.0,0.0,0.0
19711541155228,0.10049855,8.877372,4.3788652,0.0,0.0,0.0
19711543534343,0.13878371,8.85823,4.345366,0.0,0.0,0.0
19711545913457,0.17228323,8.872586,4.3501515,0.0,0.0,0.0
19711548292572,0.19621146,8.9013,4.345366,0.0,0.0,0.0
19711550671686,0.23928227,8.915657,4.3645086,0.0,0.0,0.0
19711553050801,0.25842485,8.9108715,4.402794,0.0,0.0,0.0
19711555429916,0.2440679,8.886943,4.426722,0.0,0.0,0.0
19711557808978,0.22013968,8.9108715,4.4602213,0.0,0.0,0.0
19711560188145,0.20578274,8.863015,4.465007,0.0,0.0,0.0
19711562567259,0.13399807,8.839087,4.4745784,0.0,0.0,0.0
19711564946374,0.11964113,8.786445,4.503292,0.0,0.0,0.0
19711567325489,0.08135597,8.762517,4.5224347,0.0,0.0,0.0
19711569704603,0.02871387,8.762517,4.551149,0.0,0.0,0.0
19711572083718,0.0,8.733803,4.5320063,0.0,0.0,0.0
19711574462832,-0.014356935,8.705089,4.5224347,0.0,0.0,0.0
19711576841947,0.009571291,8.733803,4.4985065,0.0,0.0,0.0
19711579221009,0.043070808,8.724232,4.4745784,0.0,0.0,0.0
19711581600176,0.06699903,8.748159,4.465007,0.0,0.0,0.0
19711583979291,0.11006984,8.752945,4.4554358,0.0,0.0,0.0
19711586358405,0.15314065,8.781659,4.4458647,0.0,0.0,0.0
19711588737520,0.18185452,8.786445,4.4554358,0.0,0.0,0.0
19711591116634,0.2009971,8.834301,4.4410787,0.0,0.0,0.0
19711593495749,0.22492532,8.891729,4.4554358,0.0,0.0,0.0
19711595874864,0.23449662,8.877372,4.4458647,0.0,0.0,0.0
19711598253978,0.2009971,8.886943,4.4745784,0.0,0.0,0.0
19711600633093,0.2009971,8.9108715,4.493721,0.0,0.0,0.0
19711603012207,0.19142582,8.9013,4.508078,0.0,0.0,0.0
19711605391322,0.16271193,8.867801,4.575077,0.0,0.0,0.0
19711607770436,0.18664017,8.834301,4.6085763,0.0,0.0,0.0
19711610149551,0.17706887,8.800801,4.627719,0.0,0.0,0.0
19711612528666,0.18185452,8.762517,4.627719,0.0,0.0,0.0
19711614907780,0.20578274,8.738588,4.618148,0.0,0.0,0.0
19711617286895,0.19621146,8.705089,4.575077,0.0,0.0,0.0
19711619666009,0.20578274,8.71466,4.508078,0.0,0.0,0.0
19711622045124,0.20578274,8.685946,4.45065,0.0,0.0,0.0
19711624424239,0.19621146,8.71466,4.436293,0.0,0.0,0.0
19711626803353,0.21535404,8.719446,4.4315076,0.0,0.0,0.0
19711629182468,0.23449662,8.733803,4.426722,0.0,0.0,0.0
19711631561582,0.2105684,8.772088,4.412365,0.0,0.0,0.0
19711633940697,0.22971097,8.772088,4.398008,0.0,0.0,0.0
19711636319811,0.23449662,8.82473,4.4075794,0.0,0.0,0.0
19711638698926,0.2536392,8.839087,4.3932223,0.0,0.0,0.0
19711641078041,0.2632105,8.848659,4.398008,0.0,0.0,0.0
19711643457155,0.24885355,8.867801,4.4171505,0.0,0.0,0.0
19711645836270,0.19142582,8.863015,4.479364,0.0,0.0,0.0
19711648215384,0.14356937,8.853444,4.517649,0.0,0.0,0.0
19711650594499,0.06699903,8.848659,4.5415773,0.0,0.0,0.0
19711652973614,0.019142581,8.796016,4.5415773,0.0,0.0,0.0
19711655352728,-0.043070808,8.79123,4.536792,0.0,0.0,0.0
19711657731843,-0.086141616,8.79123,4.536792,0.0,0.0,0.0
19711660110957,-0.10049855,8.762517,4.517649,0.0,0.0,0.0
19711662490072,-0.11485548,8.748159,4.493721,0.0,0.0,0.0
19711664869186,-0.1052842,8.733803,4.4602213,0.0,0.0,0.0
19711667248301,-0.062213387,8.724232,4.4410787,0.0,0.0,0.0
19711669627416,0.009571291,8.733803,4.4075794,0.0,0.0,0.0
19711672006530,0.0526421,8.7673025,4.3932223,0.0,0.0,0.0
19711674385645,0.08135597,8.805588,4.3836513,0.0,0.0,0.0
19711676764759,0.124426775,8.82473,4.3932223,0.0,0.0,0.0
19711679143874,0.15792629,8.853444,4.402794,0.0,0.0,0.0
19711681522989,0.15314065,8.85823,4.436293,0.0,0.0,0.0
19711683902051,0.17706887,8.882157,4.45065,0.0,0.0,0.0
19711686281218,0.18185452,8.867801,4.4841495,0.0,0.0,0.0
19711688660332,0.19621146,8.863015,4.5415773,0.0,0.0,0.0
19711691039447,0.16271193,8.829515,4.575077,0.0,0.0,0.0
19711693418561,0.16271193,8.805588,4.618148,0.0,0.0,0.0
19711695797676,0.15792629,8.762517,4.6325045,0.0,0.0,0.0
19711698176791,0.15792629,8.719446,4.618148,0.0,0.0,0.0
19711700555905,0.15792629,8.700303,4.5942197,0.0,0.0,0.0
19711702935020,0.148355,8.700303,4.5894337,0.0,0.0,0.0
19711705314134,0.16271193,8.705089,4.56072,0.0,0.0,0.0
19711707693249,0.16749759,8.695518,4.546363,0.0,0.0,0.0
19711710072364,0.17706887,8.681161,4.5272202,0.0,0.0,0.0
19711712451478,0.16749759,8.724232,4.508078,0.0,0.0,0.0
19711714830593,0.18185452,8.705089,4.4985065,0.0,0.0,0.0
19711717209707,0.2009971,8.700303,4.4985065,0.0,0.0,0.0
19711719588822,0.2105684,8.743374,4.493721,0.0,0.0,0.0
19711721967884,0.25842485,8.772088,4.465007,0.0,0.0,0.0
19711724347051,0.29192436,8.7673025,4.469793,0.0,0.0,0.0
19711726726166,0.32542387,8.781659,4.4889355,0.0,0.0,0.0
19711729105280,0.3589234,8.786445,4.4841495,0.0,0.0,0.0
19711731484395,0.37806597,8.800801,4.5224347,0.0,0.0,0.0
19711733863509,0.39720857,8.800801,4.5655055,0.0,0.0,0.0
19711736242624,0.3924229,8.786445,4.599005,0.0,0.0,0.0
19711738621739,0.37806597,8.805588,4.599005,0.0,0.0,0.0
19711741000853,0.32063824,8.776874,4.5655055,0.0,0.0,0.0
19711743379968,0.2536392,8.800801,4.5320063,0.0,0.0,0.0
19711745759082,0.22013968,8.815159,4.508078,0.0,0.0,0.0
19711748138197,0.16749759,8.810373,4.465007,0.0,0.0,0.0
19711750517311,0.11964113,8.815159,4.4171505,0.0,0.0,0.0
19711752896426,0.062213387,8.815159,4.3836513,0.0,0.0,0.0
19711755275541,0.038285162,8.848659,4.354937,0.0,0.0,0.0
19711757654655,0.05742774,8.848659,4.3357944,0.0,0.0,0.0
19711760033770,0.076570325,8.853444,4.321438,0.0,0.0,0.0
19711762412884,0.11485548,8.867801,4.331009,0.0,0.0,0.0
19711764791999,0.17706887,8.877372,4.331009,0.0,0.0,0.0
19711767171114,0.22971097,8.863015,4.354937,0.0,0.0,0.0
19711769550228,0.28713873,8.872586,4.3836513,0.0,0.0,0.0
19711771929343,0.32542387,8.863015,4.436293,0.0,0.0,0.0
19711774308457,0.38285163,8.834301,4.4554358,0.0,0.0,0.0
19711776687572,0.41156548,8.82473,4.4841495,0.0,0.0,0.0
19711779066686,0.42592242,8.815159,4.4841495,0.0,0.0,0.0
19711781445801,0.44027936,8.800801,4.493721,0.0,0.0,0.0
19711783824916,0.4354937,8.79123,4.4889355,0.0,0.0,0.0
19711786204030,0.39720857,8.781659,4.4985065,0.0,0.0,0.0
19711788583145,0.35413775,8.762517,4.5224347,0.0,0.0,0.0
19711790962259,0.33020952,8.786445,4.517649,0.0,0.0,0.0
19711793341374,0.32063824,8.781659,4.4985065,0.0,0.0,0.0
19711795720489,0.28713873,8.786445,4.4889355,0.0,0.0,0.0
19711798099603,0.2632105,8.762517,4.469793,0.0,0.0,0.0
19711800478718,0.21535404,8.762517,4.4410787,0.0,0.0,0.0
19711802857832,0.19621146,8.7673025,4.421936,0.0,0.0,0.0
19711805236947,0.16271193,8.748159,4.4458647,0.0,0.0,0.0
19711807616061,0.148355,8.748159,4.465007,0.0,0.0,0.0
19711809995176,0.11485548,8.7673025,4.465007,0.0,0.0,0.0
19711812374291,0.1052842,8.772088,4.4889355,0.0,0.0,0.0
19711814753405,0.09092726,8.776874,4.479364,0.0,0.0,0.0
19711817132520,0.124426775,8.800801,4.469793,0.0,0.0,0.0
19711819511634,0.09571291,8.800801,4.4745784,0.0,0.0,0.0
19711821890749,0.08135597,8.82473,4.4889355,0.0,0.0,0.0
19711824269864,0.08135597,8.834301,4.517649,0.0,0.0,0.0
19711826649030,0.076570325,8.834301,4.503292,0.0,0.0,0.0
19711829028093,0.076570325,8.853444,4.5128636,0.0,0.0,0.0
19711831407207,0.043070808,8.872586,4.5128636,0.0,0.0,0.0
19711833786322,0.07178468,8.867801,4.493721,0.0,0.0,0.0
19711836165436,0.07178468,8.843872,4.4889355,0.0,0.0,0.0
19711838544551,0.09092726,8.839087,4.479364,0.0,0.0,0.0
19711840923666,0.13399807,8.848659,4.4554358,0.0,0.0,0.0
19711843302780,0.19142582,8.839087,4.4554358,0.0,0.0,0.0
19711845681947,0.2440679,8.810373,4.465007,0.0,0.0,0.0
19711848061061,0.32542387,8.805588,4.4554358,0.0,0.0,0.0
19711850440176,0.38285163,8.79123,4.436293,0.0,0.0,0.0
19711852819239,0.45942193,8.762517,4.436293,0.0,0.0,0.0
19711855198353,0.47377887,8.762517,4.465007,0.0,0.0,0.0
19711857577468,0.47377887,8.776874,4.465007,0.0,0.0,0.0
19711859956582,0.45942193,8.738588,4.4315076,0.0,0.0,0.0
19711862335749,0.47377887,8.752945,4.402794,0.0,0.0,0.0
19711864714864,0.42592242,8.79123,4.402794,0.0,0.0,0.0
19711867093926,0.3684947,8.800801,4.388437,0.0,0.0,0.0
19711869473093,0.3062813,8.805588,4.3836513,0.0,0.0,0.0
19711871852207,0.24885355,8.82473,4.359723,0.0,0.0,0.0
19711874231322,0.2009971,8.848659,4.345366,0.0,0.0,0.0
19711876610436,0.17228323,8.886943,4.3405805,0.0,0.0,0.0
19711878989551,0.124426775,8.891729,4.345366,0.0,0.0,0.0
19711881368666,0.08135597,8.906086,4.3645086,0.0,0.0,0.0
19711883747780,0.0526421,8.906086,4.359723,0.0,0.0,0.0
19711886126895,0.009571291,8.906086,4.369294,0.0,0.0,0.0
19711888506009,0.0,8.920443,4.398008,0.0,0.0,0.0
19711890885124,-0.019142581,8.9108715,4.4315076,0.0,0.0,0.0
19711893264239,-0.033499517,8.85823,4.4602213,0.0,0.0,0.0
19711895643353,-0.033499517,8.834301,4.4841495,0.0,0.0,0.0
19711898022468,-0.038285162,8.819944,4.469793,0.0,0.0,0.0
19711900401582,-0.0526421,8.79123,4.4841495,0.0,0.0,0.0
19711902780697,-0.009571291,8.743374,4.5128636,0.0,0.0,0.0
19711905159811,0.043070808,8.709874,4.5415773,0.0,0.0,0.0
19711907538926,0.08135597,8.700303,4.5655055,0.0,0.0,0.0
19711909918041,0.1052842,8.695518,4.584648,0.0,0.0,0.0
19711912297155,0.19142582,8.705089,4.5942197,0.0,0.0,0.0
19711914676270,0.2536392,8.724232,4.5942197,0.0,0.0,0.0
19711917055384,0.28235307,8.743374,4.5942197,0.0,0.0,0.0
19711919434499,0.27756742,8.738588,4.5942197,0.0,0.0,0.0
19711921813614,0.27756742,8.71466,4.5942197,0.0,0.0,0.0
19711924192728,0.25842485,8.733803,4.5894337,0.0,0.0,0.0
19711926571843,0.2105684,8.752945,4.6037908,0.0,0.0,0.0
19711928950957,0.13399807,8.7577305,4.613362,0.0,0.0,0.0
19711931330072,0.10049855,8.7673025,4.618148,0.0,0.0,0.0
19711933709186,0.0526421,8.7577305,4.5942197,0.0,0.0,0.0
19711936088301,0.0,8.7673025,4.570291,0.0,0.0,0.0
19711938467416,-0.038285162,8.7577305,4.5559344,0.0,0.0,0.0
19711940846530,-0.047856454,8.762517,4.5320063,0.0,0.0,0.0
19711943225645,-0.023928227,8.752945,4.5320063,0.0,0.0,0.0
19711945604759,0.0,8.786445,4.5415773,0.0,0.0,0.0
19711947983874,0.047856454,8.79123,4.536792,0.0,0.0,0.0
19711950362989,0.09092726,8.82473,4.5272202,0.0,0.0,0.0
19711952742103,0.11964113,8.815159,4.493721,0.0,0.0,0.0
19711955121218,0.15314065,8.843872,4.4554358,0.0,0.0,0.0
19711957500332,0.17228323,8.843872,4.436293,0.0,0.0,0.0
19711959879447,0.16749759,8.877372,4.4171505,0.0,0.0,0.0
19711962258561,0.16749759,8.891729,4.4171505,0.0,0.0,0.0
19711964637676,0.18185452,8.9013,4.412365,0.0,0.0,0.0
19711967016791,0.19142582,8.9013,4.4315076,0.0,0.0,0.0
19711969395905,0.19621146,8.886943,4.436293,0.0,0.0,0.0
19711971774968,0.21535404,8.891729,4.4410787,0.0,0.0,0.0
19711974154134,0.2536392,8.848659,4.436293,0.0,0.0,0.0
19711976533249,0.28235307,8.834301,4.4458647,0.0,0.0,0.0
19711978912364,0.27756742,8.796016,4.436293,0.0,0.0,0.0
19711981291478,0.3062813,8.776874,4.4458647,0.0,0.0,0.0
19711983670593,0.33020952,8.7673025,4.4602213,0.0,0.0,0.0
19711986049707,0.3397808,8.71466,4.45065,0.0,0.0,0.0
19711988428822,0.3589234,8.719446,4.4410787,0.0,0.0,0.0
19711990807936,0.37328035,8.719446,4.45065,0.0,0.0,0.0
19711993187051,0.40677986,8.748159,4.421936,0.0,0.0,0.0
19711995566166,0.41156548,8.738588,4.412365,0.0,0.0,0.0
19711997945280,0.41156548,8.786445,4.4075794,0.0,0.0,0.0
19712000324395,0.37806597,8.819944,4.3932223,0.0,0.0,0.0
19712002703509,0.3684947,8.829515,4.4075794,0.0,0.0,0.0
19712005082624,0.34456646,8.853444,4.4171505,0.0,0.0,0.0
19712007461739,0.3397808,8.872586,4.412365,0.0,0.0,0.0
19712009840853,0.32542387,8.863015,4.4171505,0.0,0.0,0.0
19712012219968,0.29192436,8.853444,4.4458647,0.0,0.0,0.0
19712014599082,0.2632105,8.834301,4.4554358,0.0,0.0,0.0
19712016978197,0.24885355,8.805588,4.465007,0.0,0.0,0.0
19712019357311,0.2536392,8.800801,4.4554358,0.0,0.0,0.0
19712021736426,0.2440679,8.810373,4.4315076,0.0,0.0,0.0
19712024115541,0.2440679,8.772088,4.4315076,0.0,0.0,0.0
19712026494655,0.2536392,8.7673025,4.4315076,0.0,0.0,0.0
19712028873770,0.2727818,8.786445,4.4410787,0.0,0.0,0.0
19712031252884,0.2440679,8.796016,4.4315076,0.0,0.0,0.0
19712033631999,0.23449662,8.781659,4.421936,0.0,0.0,0.0
19712036011114,0.22492532,8.810373,4.412365,0.0,0.0,0.0
19712038390228,0.2105684,8.839087,4.402794,0.0,0.0,0.0
19712040769343,0.2009971,8.829515,4.402794,0.0,0.0,0.0
19712043148457,0.17706887,8.863015,4.4075794,0.0,0.0,0.0
19712045527572,0.14356937,8.877372,4.426722,0.0,0.0,0.0
19712047906686,0.13399807,8.872586,4.45065,0.0,0.0,0.0
19712050285801,0.10049855,8.867801,4.465007,0.0,0.0,0.0
19712052664916,0.09571291,8.839087,4.503292,0.0,0.0,0.0
19712055044030,0.09092726,8.82473,4.5415773,0.0,0.0,0.0
19712057423145,0.11964113,8.781659,4.5798626,0.0,0.0,0.0
19712059802259,0.17228323,8.647661,4.5655055,0.0,0.0,0.0
19712062181374,0.19621146,8.34138,4.402794,0.0,0.0,0.0
19712064560489,0.33020952,8.130812,4.125226,0.0,0.0,0.0
19712066939603,0.52163535,8.671589,3.6801612,0.0,0.0,0.0
19712069318718,0.5024927,9.245867,3.010171,0.0,0.0,0.0
19712071697832,0.4833502,9.107083,3.2350962,0.0,0.0,0.0
19712074076947,0.9667004,8.685946,4.2975097,0.0,0.0,0.0
19712076456061,0.8709874,8.71466,5.575277,0.0,0.0,0.0
19712078835176,0.5982057,8.848659,6.0825553,0.0,0.0,0.0
19712081214291,0.76570326,8.882157,5.575277,0.0,0.0,0.0
19712083593405,0.8709874,8.973084,4.4075794,0.0,0.0,0.0
19712085972520,0.5024927,9.145369,3.455236,0.0,0.0,0.0
19712088351634,0.3684947,9.221938,3.4408789,0.0,0.0,0.0
19712090730749,0.5694918,9.178867,3.9768713,0.0,0.0,0.0
19712093109864,0.18185452,9.111869,4.8861437,0.0,0.0,0.0
19712095488978,0.08135597,8.815159,5.828916,0.0,0.0,0.0
19712097868093,0.37806597,8.5423765,6.0107703,0.0,0.0,0.0
19712100247207,0.12921242,8.695518,5.096712,0.0,0.0,0.0
19712102626322,-0.22013968,8.925228,3.7471602,0.0,0.0,0.0
19712105005436,-0.038285162,8.805588,2.8905299,0.0,0.0,0.0
19712107384551,0.19142582,8.63809,2.9862428,0.0,0.0,0.0
19712109763666,-0.124426775,8.618947,3.9720855,0.0,0.0,0.0
19712112142780,-0.023928227,8.432307,5.144569,0.0,0.0,0.0
19712114521895,0.4211368,8.312666,5.56092,0.0,0.0,0.0
19712116901009,0.5312066,8.456235,4.938786,0.0,0.0,0.0
19712119280124,0.7178468,8.705089,3.7615173,0.0,0.0,0.0
19712121659239,1.0049855,8.863015,2.885744,0.0,0.0,0.0
19712124038353,1.105484,8.915657,2.6943183,0.0,0.0,0.0
19712126417468,1.0767702,8.953942,3.0915267,0.0,0.0,0.0
19712128796582,1.0767702,8.987442,3.9673,0.0,0.0,0.0
19712131175697,1.1485549,8.891729,4.7282176,0.0,0.0,0.0
19712133554811,0.86141616,8.896515,5.1062837,0.0,0.0,0.0
19712135933926,0.6556334,8.877372,4.8382874,0.0,0.0,0.0
19712138313041,0.6221339,8.949157,4.173083,0.0,0.0,0.0
19712140692155,0.45942193,9.116654,3.507878,0.0,0.0,0.0
19712143071270,0.17706887,9.312865,3.3116665,0.0,0.0,0.0
19712145450384,0.019142581,9.442079,3.7040894,0.0,0.0,0.0
19712147829499,-0.0047856453,9.403793,4.287938,0.0,0.0,0.0
19712150208614,-0.13878371,9.332008,4.709075,0.0,0.0,0.0
19712152587728,-0.11485548,9.288938,4.699504,0.0,0.0,0.0
19712154966843,-0.038285162,9.265009,4.3357944,0.0,0.0,0.0
19712157345957,-0.023928227,9.274581,3.8668015,0.0,0.0,0.0
19712159725072,0.05742774,9.298509,3.7328033,0.0,0.0,0.0
19712162104186,0.27756742,9.140582,4.058227,0.0,0.0,0.0
19712164483301,0.39720857,9.030513,4.642076,0.0,0.0,0.0
19712166862416,0.43070808,8.939586,5.0392847,0.0,0.0,0.0
19712169241530,0.6221339,8.872586,5.0105705,0.0,0.0,0.0
19712171620645,0.7848458,8.79123,4.642076,0.0,0.0,0.0
19712173999759,0.86141616,8.724232,4.072584,0.0,0.0,0.0
19712176378874,0.9284152,8.719446,3.7184465,0.0,0.0,0.0
19712178757989,1.0193424,8.700303,3.7280176,0.0,0.0,0.0
19712181137051,1.0767702,8.56152,4.019942,0.0,0.0,0.0
19712183516218,1.1437693,8.49452,4.3740797,0.0,0.0,0.0
19712185895332,1.2011969,8.599805,4.5894337,0.0,0.0,0.0
19712188274447,1.253839,8.60459,4.5272202,0.0,0.0,0.0
19712190653561,1.3160524,8.6141615,4.168297,0.0,0.0,0.0
19712193032676,1.2346965,8.752945,3.9146578,0.0,0.0,0.0
19712195411791,1.282553,8.834301,3.842873,0.0,0.0,0.0
19712197790905,1.2107682,8.85823,4.130012,0.0,0.0,0.0
19712200170020,1.038485,8.891729,4.493721,0.0,0.0,0.0
19712202549134,0.79920274,9.01137,4.8382874,0.0,0.0,0.0
19712204928249,0.66041905,9.006584,4.9292145,0.0,0.0,0.0
19712207307364,0.49292147,8.992228,4.847859,0.0,0.0,0.0
19712209686478,0.26799613,9.030513,4.6372905,0.0,0.0,0.0
19712212065593,0.15792629,9.020942,4.508078,0.0,0.0,0.0
19712214444707,0.11485548,8.987442,4.5894337,0.0,0.0,0.0
19712216823822,0.11006984,8.949157,4.761717,0.0,0.0,0.0
19712219202936,0.10049855,8.953942,5.0009995,0.0,0.0,0.0
19712221582051,0.19621146,8.839087,5.096712,0.0,0.0,0.0
19712223961166,0.32542387,8.800801,4.9674997,0.0,0.0,0.0
19712226340332,0.44027936,8.877372,4.6229334,0.0,0.0,0.0
19712228719447,0.53599226,8.906086,4.254439,0.0,0.0,0.0
19712231098509,0.61734825,8.85823,4.1922255,0.0,0.0,0.0
19712233477676,0.63170516,8.776874,4.3405805,0.0,0.0,0.0
19712235856739,0.47377887,8.695518,4.5942197,0.0,0.0,0.0
19712238235905,0.28713873,8.547162,4.7425747,0.0,0.0,0.0
19712240614968,0.15792629,8.427522,4.6468616,0.0,0.0,0.0
19712242994134,-0.07178468,8.432307,4.402794,0.0,0.0,0.0
19712245373197,-0.29671,8.408379,4.115655,0.0,0.0,0.0
19712247752364,-0.4546363,8.336594,4.034299,0.0,0.0,0.0
19712250131478,-0.56470615,8.288737,4.197011,0.0,0.0,0.0
19712252510593,-0.6556334,8.250452,4.503292,0.0,0.0,0.0
19712254889707,-0.6939186,8.250452,4.7377887,0.0,0.0,0.0
19712257268770,-0.64606214,8.303095,4.8095737,0.0,0.0,0.0
19712259647936,-0.55034924,8.413164,4.733003,0.0,0.0,0.0
19712262027051,-0.37806597,8.547162,4.517649,0.0,0.0,0.0
19712264406166,-0.15314065,8.676374,4.3118663,0.0,0.0,0.0
19712266785280,0.07178468,8.796016,4.3070807,0.0,0.0,0.0
19712269164395,0.32063824,8.863015,4.5415773,0.0,0.0,0.0
19712271543509,0.526421,8.9108715,4.8765726,0.0,0.0,0.0
19712273922624,0.6891329,8.949157,5.0679984,0.0,0.0,0.0
19712276301686,0.8279166,9.006584,4.9722853,0.0,0.0,0.0
19712278680853,0.91884387,9.044869,4.694718,0.0,0.0,0.0
19712281059968,0.9284152,9.102298,4.4602213,0.0,0.0,0.0
19712283439082,0.89013004,9.135797,4.426722,0.0,0.0,0.0
19712285818197,0.7800602,9.102298,4.6085763,0.0,0.0,0.0
19712288197311,0.59342,9.01137,4.85743,0.0,0.0,0.0
19712290576426,0.33499518,8.973084,5.015356,0.0,0.0,0.0
19712292955541,0.07178468,8.997013,4.981857,0.0,0.0,0.0
19712295334603,-0.17228323,8.920443,4.790431,0.0,0.0,0.0
19712297713770,-0.41156548,8.839087,4.584648,0.0,0.0,0.0
19712300092884,-0.61734825,8.886943,4.5224347,0.0,0.0,0.0
19712302471999,-0.74177504,8.863015,4.599005,0.0,0.0,0.0
19712304851114,-0.81834537,8.776874,4.833502,0.0,0.0,0.0
19712307230228,-0.7609176,8.705089,5.0536413,0.0,0.0,0.0
19712309609343,-0.71306115,8.705089,5.144569,0.0,0.0,0.0
19712311988457,-0.5886344,8.666803,5.005785,0.0,0.0,0.0
19712314367572,-0.38285163,8.618947,4.8191447,0.0,0.0,0.0
19712316746686,-0.14356937,8.518449,4.6564326,0.0,0.0,0.0
19712319125801,0.076570325,8.384451,4.5798626,0.0,0.0,0.0
19712321504916,0.29192436,8.355737,4.599005,0.0,0.0,0.0
19712323884030,0.47856453,8.374879,4.685147,0.0,0.0,0.0
19712326263145,0.6029913,8.269595,4.752146,0.0,0.0,0.0
19712328642259,0.6891329,8.106883,4.718646,0.0,0.0,0.0
19712331021374,0.7513463,8.097312,4.6468616,0.0,0.0,0.0
19712333400489,0.7704889,8.16431,4.436293,0.0,0.0,0.0
19712335779603,0.66041905,8.327023,4.359723,0.0,0.0,0.0
19712338158718,0.65084773,8.480164,4.4889355,0.0,0.0,0.0
19712340537832,0.51206404,8.551949,4.733003,0.0,0.0,0.0
19712342916947,0.27756742,8.662018,4.8909297,0.0,0.0,0.0
19712345296061,0.0526421,8.877372,4.9196434,0.0,0.0,0.0
19712347675176,-0.09092726,9.020942,4.8526444,0.0,0.0,0.0
19712350054291,-0.2727818,9.030513,4.7425747,0.0,0.0,0.0
19712352433405,-0.4354937,9.126225,4.7377887,0.0,0.0,0.0
19712354812520,-0.4833502,9.107083,4.7712884,0.0,0.0,0.0
19712357191634,-0.47377887,9.040084,4.9196434,0.0,0.0,0.0
19712359570749,-0.34456646,8.949157,4.9292145,0.0,0.0,0.0
19712361949864,-0.19142582,8.939586,4.85743,0.0,0.0,0.0
19712364328978,0.076570325,8.896515,4.6229334,0.0,0.0,0.0
19712366708093,0.32063824,8.800801,4.3645086,0.0,0.0,0.0
19712369087207,0.59342,8.772088,4.1204405,0.0,0.0,0.0
19712371466322,0.8135597,8.786445,3.9864426,0.0,0.0,0.0
19712373845436,0.9619147,8.7673025,3.9338005,0.0,0.0,0.0
19712376224551,1.0049855,8.748159,3.9816568,0.0,0.0,0.0
19712378603666,0.971486,8.733803,4.0103707,0.0,0.0,0.0
19712380982780,0.81834537,8.781659,4.0534415,0.0,0.0,0.0
19712383361895,0.6125626,8.839087,4.063013,0.0,0.0,0.0
19712385741009,0.29671,8.877372,4.1204405,0.0,0.0,0.0
19712388120124,-0.05742774,8.915657,4.197011,0.0,0.0,0.0
19712390499239,-0.3493521,8.896515,4.345366,0.0,0.0,0.0
19712392878353,-0.6412765,8.848659,4.5655055,0.0,0.0,0.0
19712395257468,-0.8566305,8.79123,4.7282176,0.0,0.0,0.0
19712397636582,-0.9954142,8.805588,4.7856455,0.0,0.0,0.0
19712400015697,-1.052842,8.829515,4.723432,0.0,0.0,0.0
19712402394811,-1.0336994,8.834301,4.56072,0.0,0.0,0.0
19712404773926,-0.9236295,8.800801,4.4602213,0.0,0.0,0.0
19712407153041,-0.7178468,8.762517,4.4889355,0.0,0.0,0.0
19712409532155,-0.55034924,8.786445,4.7569313,0.0,0.0,0.0
19712411911270,-0.20578274,8.705089,4.8526444,0.0,0.0,0.0
19712414290384,0.076570325,8.743374,4.74736,0.0,0.0,0.0
19712416669499,0.28713873,8.853444,4.503292,0.0,0.0,0.0
19712419048614,0.5455636,8.882157,4.331009,0.0,0.0,0.0
19712421427728,0.70348984,8.863015,4.359723,0.0,0.0,0.0
19712423806843,0.8470592,8.886943,4.4985065,0.0,0.0,0.0
19712426185957,0.86141616,8.877372,4.7282176,0.0,0.0,0.0
19712428565072,0.86141616,8.7673025,4.8239303,0.0,0.0,0.0
19712430944186,0.72263247,8.743374,4.8526444,0.0,0.0,0.0
19712433323301,0.56470615,8.762517,4.723432,0.0,0.0,0.0
19712435702416,0.31585258,8.7577305,4.618148,0.0,0.0,0.0
19712438081530,0.09571291,8.695518,4.5894337,0.0,0.0,0.0
19712440460645,-0.15314065,8.700303,4.618148,0.0,0.0,0.0
19712442839759,-0.43070808,8.695518,4.7042894,0.0,0.0,0.0
19712445218874,-0.57906306,8.685946,4.733003,0.0,0.0,0.0
19712447597936,-0.74177504,8.700303,4.718646,0.0,0.0,0.0
19712449977103,-0.8039884,8.743374,4.546363,0.0,0.0,0.0
19712452356218,-0.8039884,8.772088,4.4315076,0.0,0.0,0.0
19712454735332,-0.6987042,8.738588,4.331009,0.0,0.0,0.0
19712457114447,-0.6029913,8.752945,4.388437,0.0,0.0,0.0
19712459493561,-0.4211368,8.709874,4.4985065,0.0,0.0,0.0
19712461872676,-0.15792629,8.671589,4.6372905,0.0,0.0,0.0
19712464251791,0.11006984,8.647661,4.694718,0.0,0.0,0.0
19712466630905,0.36370903,8.63809,4.599005,0.0,0.0,0.0
19712469010020,0.5886344,8.628518,4.4889355,0.0,0.0,0.0
19712471389134,0.82313097,8.623733,4.4458647,0.0,0.0,0.0
19712473768249,0.98584294,8.585447,4.45065,0.0,0.0,0.0
19712476147364,1.0624132,8.580662,4.5320063,0.0,0.0,0.0
19712478526478,1.1006985,8.566305,4.6612186,0.0,0.0,0.0
19712480905593,1.1006985,8.566305,4.7425747,0.0,0.0,0.0
19712483284707,1.0241281,8.585447,4.7282176,0.0,0.0,0.0
19712485663822,0.89013004,8.618947,4.6372905,0.0,0.0,0.0
19712488042936,0.6987042,8.623733,4.5320063,0.0,0.0,0.0
19712490422051,0.55034924,8.662018,4.465007,0.0,0.0,0.0
19712492801166,0.34456646,8.752945,4.5415773,0.0,0.0,0.0
19712495180228,0.2440679,8.695518,4.5894337,0.0,0.0,0.0
19712497559395,0.124426775,8.709874,4.7425747,0.0,0.0,0.0
19712499938509,0.09092726,8.738588,4.752146,0.0,0.0,0.0
19712502317624,0.07178468,8.781659,4.694718,0.0,0.0,0.0
19712504696739,0.15792629,8.7673025,4.5942197,0.0,0.0,0.0
19712507075853,0.22013968,8.815159,4.570291,0.0,0.0,0.0
19712509454968,0.32542387,8.805588,4.6037908,0.0,0.0,0.0
19712511834082,0.40677986,8.843872,4.7042894,0.0,0.0,0.0
19712514213197,0.49292147,8.815159,4.7377887,0.0,0.0,0.0
19712516592311,0.60777694,8.834301,4.733003,0.0,0.0,0.0
19712518971426,0.6939186,8.839087,4.699504,0.0,0.0,0.0
19712521350541,0.7465607,8.843872,4.6325045,0.0,0.0,0.0
19712523729655,0.75613195,8.867801,4.599005,0.0,0.0,0.0
19712526108770,0.8039884,8.882157,4.546363,0.0,0.0,0.0
19712528487884,0.7609176,8.882157,4.613362,0.0,0.0,0.0
19712530866999,0.7465607,8.85823,4.6612186,0.0,0.0,0.0
19712533246114,0.72263247,8.85823,4.6899323,0.0,0.0,0.0
19712535625228,0.6891329,8.848659,4.6612186,0.0,0.0,0.0
19712538004343,0.66041905,8.834301,4.6085763,0.0,0.0,0.0
19712540383457,0.57906306,8.853444,4.6037908,0.0,0.0,0.0
19712542762572,0.55034924,8.839087,4.570291,0.0,0.0,0.0
19712545141686,0.4833502,8.79123,4.5942197,0.0,0.0,0.0
19712547520801,0.4546363,8.748159,4.6037908,0.0,0.0,0.0
19712549899916,0.3924229,8.7577305,4.6372905,0.0,0.0,0.0
19712552279030,0.31585258,8.729017,4.6325045,0.0,0.0,0.0
19712554658145,0.31585258,8.671589,4.5894337,0.0,0.0,0.0
19712557037259,0.28235307,8.695518,4.570291,0.0,0.0,0.0
19712559416374,0.29671,8.666803,4.5798626,0.0,0.0,0.0
19712561795489,0.27756742,8.642876,4.6325045,0.0,0.0,0.0
19712564174603,0.31585258,8.63809,4.6468616,0.0,0.0,0.0
19712566553718,0.3397808,8.623733,4.6468616,0.0,0.0,0.0
19712568932832,0.3397808,8.595019,4.6037908,0.0,0.0,0.0
19712571311947,0.33499518,8.580662,4.56072,0.0,0.0,0.0
19712573691061,0.29192436,8.575876,4.584648,0.0,0.0,0.0
19712576070176,0.28235307,8.513663,4.6085763,0.0,0.0,0.0
19712578449291,0.2105684,8.489735,4.694718,0.0,0.0,0.0
19712580828405,0.15314065,8.504091,4.7042894,0.0,0.0,0.0
19712583207520,0.062213387,8.537591,4.6803613,0.0,0.0,0.0
19712585586582,0.038285162,8.556734,4.5894337,0.0,0.0,0.0
19712587965749,-0.038285162,8.618947,4.5415773,0.0,0.0,0.0
19712590344864,-0.062213387,8.6141615,4.4841495,0.0,0.0,0.0
19712592723978,-0.062213387,8.628518,4.551149,0.0,0.0,0.0
19712595103093,-0.02871387,8.590233,4.627719,0.0,0.0,0.0
19712597482207,0.05742774,8.618947,4.685147,0.0,0.0,0.0
19712599861322,0.13399807,8.595019,4.6803613,0.0,0.0,0.0
19712602240436,0.29192436,8.556734,4.599005,0.0,0.0,0.0
19712604619551,0.37806597,8.56152,4.551149,0.0,0.0,0.0
19712606998614,0.526421,8.566305,4.469793,0.0,0.0,0.0
19712609377780,0.6125626,8.580662,4.4602213,0.0,0.0,0.0
19712611756895,0.7082755,8.609376,4.4410787,0.0,0.0,0.0
19712614136009,0.7704889,8.623733,4.469793,0.0,0.0,0.0
19712616515124,0.8279166,8.671589,4.45065,0.0,0.0,0.0
19712618894239,0.8422736,8.733803,4.3740797,0.0,0.0,0.0
19712621273353,0.8470592,8.834301,4.2831526,0.0,0.0,0.0
19712623652468,0.8470592,8.886943,4.249653,0.0,0.0,0.0
19712626031582,0.8422736,8.906086,4.287938,0.0,0.0,0.0
19712628410749,0.8279166,8.930014,4.3501515,0.0,0.0,0.0
19712630789811,0.7800602,8.992228,4.398008,0.0,0.0,0.0
19712633168926,0.7369894,8.9826565,4.3645086,0.0,0.0,0.0
19712635548041,0.67477596,8.9826565,4.3645086,0.0,0.0,0.0
19712637927207,0.61734825,8.987442,4.345366,0.0,0.0,0.0
19712640306322,0.5455636,9.01137,4.359723,0.0,0.0,0.0
19712642685384,0.4881358,8.997013,4.316652,0.0,0.0,0.0
19712645064551,0.42592242,9.030513,4.2592244,0.0,0.0,0.0
19712647443666,0.34456646,9.078369,4.2161536,0.0,0.0,0.0
19712649822676,0.32063824,9.078369,4.1778684,0.0,0.0,0.0
19712652201895,0.29192436,9.08794,4.197011,0.0,0.0,0.0
19712654581009,0.27756742,9.092726,4.2161536,0.0,0.0,0.0
19712656960072,0.31585258,9.08794,4.278367,0.0,0.0,0.0
19712659339239,0.3924229,9.035298,4.3070807,0.0,0.0,0.0
19712661718353,0.4977071,8.997013,4.3405805,0.0,0.0,0.0
19712664097416,0.5982057,8.9826565,4.359723,0.0,0.0,0.0
19712666476582,0.72263247,8.968299,4.2831526,0.0,0.0,0.0
19712668855697,0.82313097,8.997013,4.2352962,0.0,0.0,0.0
19712671234759,0.90448695,9.044869,4.1922255,0.0,0.0,0.0
19712673613926,1.0241281,9.020942,4.1874394,0.0,0.0,0.0
19712675993041,1.0719845,9.025727,4.26401,0.0,0.0,0.0
19712678372155,1.1294123,9.030513,4.345366,0.0,0.0,0.0
19712680751270,1.2059826,9.020942,4.4075794,0.0,0.0,0.0
19712683130384,1.282553,8.963513,4.4458647,0.0,0.0,0.0
19712685509499,1.3351951,8.906086,4.479364,0.0,0.0,0.0
19712687888614,1.3974084,8.863015,4.5415773,0.0,0.0,0.0
19712690267728,1.416551,8.834301,4.6325045,0.0,0.0,0.0
19712692646843,1.4069797,8.743374,4.718646,0.0,0.0,0.0
19712695025957,1.3734802,8.743374,4.8095737,0.0,0.0,0.0
19712697405072,1.2634103,8.700303,4.6707897,0.0,0.0,0.0
19712699784186,1.1581261,8.748159,4.5559344,0.0,0.0,0.0
19712702163249,0.9906286,8.748159,4.546363,0.0,0.0,0.0
19712704542416,0.79920274,8.815159,4.6468616,0.0,0.0,0.0
19712706921530,0.6795616,8.652447,4.599005,0.0,0.0,0.0
19712709300645,0.5886344,8.556734,4.551149,0.0,0.0,0.0
19712711679759,0.46899325,8.484949,4.551149,0.0,0.0,0.0
19712714058874,0.4642076,8.446664,4.7282176,0.0,0.0,0.0
19712716437989,0.41156548,8.293523,4.85743,0.0,0.0,0.0
19712718817103,0.42592242,8.3174515,4.8909297,0.0,0.0,0.0
19712721196218,0.4211368,8.355737,4.651647,0.0,0.0,0.0
19712723575332,0.42592242,8.312666,4.3788652,0.0,0.0,0.0
19712725954447,0.47856453,8.250452,4.254439,0.0,0.0,0.0
19712728333561,0.44985065,8.312666,4.45065,0.0,0.0,0.0
19712730712676,0.4211368,8.312666,4.718646,0.0,0.0,0.0
19712733091791,0.3684947,8.288737,4.9052863,0.0,0.0,0.0
19712735470905,0.33499518,8.389236,4.8909297,0.0,0.0,0.0
19712737850020,0.2536392,8.46102,4.7138605,0.0,0.0,0.0
19712740229134,0.16749759,8.499306,4.5128636,0.0,0.0,0.0
19712742608249,0.086141616,8.551949,4.398008,0.0,0.0,0.0
19712744987364,-0.009571291,8.657232,4.5320063,0.0,0.0,0.0
19712747366478,-0.086141616,8.618947,4.761717,0.0,0.0,0.0
19712749745593,-0.18185452,8.609376,5.015356,0.0,0.0,0.0
19712752124707,-0.2536392,8.676374,5.0823555,0.0,0.0,0.0
19712754503822,-0.32542387,8.748159,4.9770713,0.0,0.0,0.0
19712756882936,-0.3684947,8.743374,4.766503,0.0,0.0,0.0
19712759262051,-0.4211368,8.79123,4.6325045,0.0,0.0,0.0
19712761641166,-0.41156548,8.810373,4.5894337,0.0,0.0,0.0
19712764020280,-0.39720857,8.834301,4.6707897,0.0,0.0,0.0
19712766399395,-0.37806597,8.772088,4.7856455,0.0,0.0,0.0
19712768778509,-0.32063824,8.79123,4.8382874,0.0,0.0,0.0
19712771157624,-0.2440679,8.79123,4.7712884,0.0,0.0,0.0
19712773536739,-0.2009971,8.810373,4.627719,0.0,0.0,0.0
19712775915853,-0.15792629,8.834301,4.426722,0.0,0.0,0.0
19712778294968,-0.062213387,8.834301,4.3262234,0.0,0.0,0.0
19712780674030,-0.014356935,8.810373,4.3740797,0.0,0.0,0.0
19712783053197,0.0,8.829515,4.4985065,0.0,0.0,0.0
19712785432311,-0.0047856453,8.815159,4.618148,0.0,0.0,0.0
19712787811426,-0.014356935,8.834301,4.618148,0.0,0.0,0.0
19712790190541,-0.014356935,8.839087,4.517649,0.0,0.0,0.0
19712792569655,-0.043070808,8.863015,4.3836513,0.0,0.0,0.0
19712794948770,-0.1052842,8.853444,4.2927237,0.0,0.0,0.0
19712797327884,-0.13399807,8.853444,4.3070807,0.0,0.0,0.0
19712799706999,-0.16271193,8.810373,4.3932223,0.0,0.0,0.0
19712802086114,-0.18664017,8.786445,4.4889355,0.0,0.0,0.0
19712804465228,-0.18185452,8.805588,4.5320063,0.0,0.0,0.0
19712806844343,-0.16749759,8.815159,4.469793,0.0,0.0,0.0
19712809223457,-0.148355,8.819944,4.3740797,0.0,0.0,0.0
19712811602572,-0.14356937,8.867801,4.2687955,0.0,0.0,0.0
19712813981686,-0.11485548,8.896515,4.2257247,0.0,0.0,0.0
19712816360801,-0.07178468,8.9108715,4.287938,0.0,0.0,0.0
19712818739916,-0.02871387,8.906086,4.3836513,0.0,0.0,0.0
19712821119030,0.033499517,8.9348,4.436293,0.0,0.0,0.0
19712823498145,0.12921242,8.9348,4.4410787,0.0,0.0,0.0
19712825877259,0.22013968,8.944371,4.3788652,0.0,0.0,0.0
19712828256374,0.31106696,8.949157,4.321438,0.0,0.0,0.0
19712830635489,0.4211368,8.953942,4.2975097,0.0,0.0,0.0
19712833014603,0.5168497,8.944371,4.3118663,0.0,0.0,0.0
19712835393718,0.60777694,8.877372,4.412365,0.0,0.0,0.0
19712837772832,0.66041905,8.805588,4.465007,0.0,0.0,0.0
19712840151947,0.6987042,8.781659,4.4410787,0.0,0.0,0.0
19712842531009,0.75613195,8.695518,4.249653,0.0,0.0,0.0
19712844910176,0.72263247,8.585447,4.072584,0.0,0.0,0.0
19712847289291,0.7178468,8.56152,4.019942,0.0,0.0,0.0
19712849668405,0.70348984,8.551949,4.115655,0.0,0.0,0.0
19712852047520,0.6364908,8.504091,4.240082,0.0,0.0,0.0
19712854426634,0.53599226,8.590233,4.321438,0.0,0.0,0.0
19712856805749,0.4977071,8.729017,4.3740797,0.0,0.0,0.0
19712859184864,0.4642076,8.867801,4.3357944,0.0,0.0,0.0
19712861563978,0.4019942,9.030513,4.254439,0.0,0.0,0.0
19712863943093,0.35413775,9.131011,4.2017965,0.0,0.0,0.0
19712866322207,0.3062813,9.178867,4.206582,0.0,0.0,0.0
19712868701322,0.2009971,9.159725,4.278367,0.0,0.0,0.0
19712871080436,0.06699903,9.131011,4.354937,0.0,0.0,0.0
19712873459551,-0.062213387,9.040084,4.3357944,0.0,0.0,0.0
19712875838666,-0.22013968,8.939586,4.2161536,0.0,0.0,0.0
19712878217780,-0.40677986,8.920443,4.0773697,0.0,0.0,0.0
19712880596895,-0.59342,8.886943,3.9625144,0.0,0.0,0.0
19712882976009,-0.75613195,8.829515,3.9290147,0.0,0.0,0.0
19712885355124,-0.86141616,8.839087,3.9816568,0.0,0.0,0.0
19712887734239,-0.9379865,8.863015,4.0438704,0.0,0.0,0.0
19712890113353,-0.98584294,8.891729,4.082155,0.0,0.0,0.0
19712892492468,-0.9523434,8.9108715,4.048656,0.0,0.0,0.0
19712894871582,-0.80877405,8.997013,3.9481573,0.0,0.0,0.0
19712897250697,-0.6029913,9.08794,3.8572302,0.0,0.0,0.0
19712899629811,-0.38285163,9.159725,3.8237305,0.0,0.0,0.0
19712902008926,-0.14356937,9.221938,3.871587,0.0,0.0,0.0
19712904387989,0.09571291,9.2793665,3.9816568,0.0,0.0,0.0
19712906767155,0.29192436,9.327223,4.048656,0.0,0.0,0.0
19712909146270,0.44506502,9.379865,4.072584,0.0,0.0,0.0
19712911525384,0.5072784,9.394221,4.0534415,0.0,0.0,0.0
19712913904499,0.46899325,9.38465,4.0438704,0.0,0.0,0.0
19712916283614,0.38763726,9.355937,4.091727,0.0,0.0,0.0
19712918662728,0.21535404,9.312865,4.2161536,0.0,0.0,0.0
19712921041843,0.0,9.265009,4.3357944,0.0,0.0,0.0
19712923420957,-0.24885355,9.212367,4.4171505,0.0,0.0,0.0
19712925800072,-0.47856453,9.159725,4.4315076,0.0,0.0,0.0
19712928179186,-0.63170516,9.083155,4.3788652,0.0,0.0,0.0
19712930558301,-0.7800602,9.016156,4.345366,0.0,0.0,0.0
19712932937416,-0.8805587,8.958728,4.359723,0.0,0.0,0.0
19712935316530,-0.9236295,8.906086,4.3740797,0.0,0.0,0.0
19712937695645,-0.8709874,8.853444,4.398008,0.0,0.0,0.0
19712940074759,-0.7800602,8.786445,4.426722,0.0,0.0,0.0
19712942453874,-0.6652047,8.681161,4.4075794,0.0,0.0,0.0
19712944832989,-0.5455636,8.633304,4.316652,0.0,0.0,0.0
19712947212103,-0.37806597,8.709874,4.4075794,0.0,0.0,0.0
19712949591218,-0.17706887,8.662018,4.479364,0.0,0.0,0.0
19712951970332,-0.09571291,8.518449,4.493721,0.0,0.0,0.0
19712954349447,0.148355,8.566305,4.4841495,0.0,0.0,0.0
19712956728561,0.35413775,8.652447,4.4554358,0.0,0.0,0.0
19712959107676,0.5407779,8.585447,4.45065,0.0,0.0,0.0
19712961486791,0.6939186,8.566305,4.5415773,0.0,0.0,0.0
19712963865905,0.8470592,8.590233,4.642076,0.0,0.0,0.0
19712966245020,0.9236295,8.595019,4.699504,0.0,0.0,0.0
19712968624134,0.83748794,8.571091,4.699504,0.0,0.0,0.0
19712971003249,0.7752745,8.623733,4.6755753,0.0,0.0,0.0
19712973382364,0.5982057,8.642876,4.694718,0.0,0.0,0.0
19712975761478,0.38763726,8.657232,4.718646,0.0,0.0,0.0
19712978140593,0.16749759,8.647661,4.766503,0.0,0.0,0.0
19712980519707,-0.06699903,8.700303,4.8047876,0.0,0.0,0.0
19712982898822,-0.2440679,8.719446,4.8047876,0.0,0.0,0.0
19712985277936,-0.41156548,8.748159,4.800002,0.0,0.0,0.0
19712987657051,-0.44506502,8.776874,4.685147,0.0,0.0,0.0
19712990036166,-0.4546363,8.786445,4.627719,0.0,0.0,0.0
19712992415280,-0.41156548,8.786445,4.5415773,0.0,0.0,0.0
19712994794395,-0.3062813,8.819944,4.5272202,0.0,0.0,0.0
19712997173509,-0.15792629,8.800801,4.503292,0.0,0.0,0.0
19712999552624,-0.0047856453,8.810373,4.4841495,0.0,0.0,0.0
19713001931739,0.13878371,8.786445,4.45065,0.0,0.0,0.0
19713004310853,0.22013968,8.796016,4.421936,0.0,0.0,0.0
19713006690020,0.30149564,8.82473,4.388437,0.0,0.0,0.0
19713009069134,0.32063824,8.834301,4.3645086,0.0,0.0,0.0
19713011448197,0.3589234,8.867801,4.345366,0.0,0.0,0.0
19713013827364,0.35413775,8.886943,4.3740797,0.0,0.0,0.0
19713016206478,0.32542387,8.877372,4.3932223,0.0,0.0,0.0
19713018585593,0.31585258,8.891729,4.402794,0.0,0.0,0.0
19713020964707,0.2632105,8.886943,4.4075794,0.0,0.0,0.0
19713023343822,0.2632105,8.896515,4.398008,0.0,0.0,0.0
19713025722936,0.2009971,8.906086,4.3645086,0.0,0.0,0.0
19713028102051,0.17228323,8.906086,4.331009,0.0,0.0,0.0
19713030481114,0.11964113,8.891729,4.321438,0.0,0.0,0.0
19713032860280,0.10049855,8.9013,4.3405805,0.0,0.0,0.0
19713035239395,0.05742774,8.891729,4.354937,0.0,0.0,0.0
19713037618509,0.033499517,8.872586,4.3405805,0.0,0.0,0.0
19713039997572,0.033499517,8.85823,4.3118663,0.0,0.0,0.0
19713042376739,0.033499517,8.848659,4.273581,0.0,0.0,0.0
19713044755853,0.07178468,8.853444,4.23051,0.0,0.0,0.0
19713047134968,0.09571291,8.815159,4.2017965,0.0,0.0,0.0
19713049514082,0.18664017,8.781659,4.2352962,0.0,0.0,0.0
19713051893197,0.27756742,8.786445,4.2592244,0.0,0.0,0.0
19713054272311,0.32542387,8.7673025,4.278367,0.0,0.0,0.0
19713056651426,0.3589234,8.752945,4.273581,0.0,0.0,0.0
19713059030541,0.3684947,8.7673025,4.2592244,0.0,0.0,0.0
19713061409655,0.3397808,8.786445,4.2448673,0.0,0.0,0.0
19713063788770,0.27756742,8.796016,4.240082,0.0,0.0,0.0
19713066167884,0.17228323,8.819944,4.2687955,0.0,0.0,0.0
19713068546999,0.0526421,8.82473,4.302295,0.0,0.0,0.0
19713070926114,-0.086141616,8.839087,4.331009,0.0,0.0,0.0
19713073305228,-0.17706887,8.853444,4.3501515,0.0,0.0,0.0
19713075684343,-0.28713873,8.872586,4.331009,0.0,0.0,0.0
19713078063457,-0.41156548,8.867801,4.2975097,0.0,0.0,0.0
19713080442572,-0.45942193,8.906086,4.278367,0.0,0.0,0.0
19713082821686,-0.4546363,8.944371,4.278367,0.0,0.0,0.0
19713085200801,-0.41635114,8.973084,4.2831526,0.0,0.0,0.0
19713087579916,-0.3589234,8.963513,4.316652,0.0,0.0,0.0
19713089959030,-0.2632105,8.987442,4.3262234,0.0,0.0,0.0
19713092338145,-0.14356937,9.001799,4.316652,0.0,0.0,0.0
19713094717259,-0.038285162,8.973084,4.2975097,0.0,0.0,0.0
19713097096374,0.09092726,8.953942,4.287938,0.0,0.0,0.0
19713099475489,0.2105684,8.949157,4.2352962,0.0,0.0,0.0
19713101854603,0.29192436,8.944371,4.2448673,0.0,0.0,0.0
19713104233718,0.3493521,8.939586,4.2592244,0.0,0.0,0.0
19713106612832,0.37806597,8.920443,4.287938,0.0,0.0,0.0
19713108991947,0.38285163,8.939586,4.3070807,0.0,0.0,0.0
19713111371061,0.3397808,8.953942,4.2927237,0.0,0.0,0.0
19713113750176,0.3062813,8.949157,4.2448673,0.0,0.0,0.0
19713116129291,0.24885355,8.973084,4.2161536,0.0,0.0,0.0
19713118508405,0.18185452,8.963513,4.220939,0.0,0.0,0.0
19713120887468,0.11964113,8.920443,4.2352962,0.0,0.0,0.0
19713123266634,0.05742774,8.925228,4.2831526,0.0,0.0,0.0
19713125645749,-0.009571291,8.944371,4.3357944,0.0,0.0,0.0
19713128024864,-0.043070808,8.949157,4.3357944,0.0,0.0,0.0
19713130403978,-0.0047856453,8.920443,4.2687955,0.0,0.0,0.0
19713132783093,-0.02871387,8.915657,4.211368,0.0,0.0,0.0
19713135162207,0.009571291,8.9013,4.197011,0.0,0.0,0.0
19713137541322,0.05742774,8.896515,4.23051,0.0,0.0,0.0
19713139920436,0.10049855,8.882157,4.273581,0.0,0.0,0.0
19713142299551,0.16749759,8.882157,4.3118663,0.0,0.0,0.0
19713144678666,0.22492532,8.872586,4.3118663,0.0,0.0,0.0
19713147057728,0.27756742,8.886943,4.26401,0.0,0.0,0.0
19713149436895,0.32063824,8.882157,4.2352962,0.0,0.0,0.0
19713151816009,0.3589234,8.867801,4.2352962,0.0,0.0,0.0
19713154195124,0.3397808,8.85823,4.2831526,0.0,0.0,0.0
19713156574239,0.3493521,8.853444,4.331009,0.0,0.0,0.0
19713158953353,0.31585258,8.848659,4.3645086,0.0,0.0,0.0
19713161332468,0.29671,8.85823,4.3932223,0.0,0.0,0.0
19713163711582,0.25842485,8.848659,4.3788652,0.0,0.0,0.0
19713166090697,0.18664017,8.853444,4.359723,0.0,0.0,0.0
19713168469811,0.12921242,8.839087,4.359723,0.0,0.0,0.0
19713170848926,0.086141616,8.843872,4.3932223,0.0,0.0,0.0
19713173228041,0.076570325,8.839087,4.45065,0.0,0.0,0.0
19713175607155,0.062213387,8.834301,4.5128636,0.0,0.0,0.0
19713177986270,0.047856454,8.805588,4.536792,0.0,0.0,0.0
19713180365384,0.07178468,8.815159,4.517649,0.0,0.0,0.0
19713182744499,0.11006984,8.82473,4.4841495,0.0,0.0,0.0
19713185123614,0.16271193,8.79123,4.4745784,0.0,0.0,0.0
19713187502728,0.22492532,8.776874,4.493721,0.0,0.0,0.0
19713189881843,0.3062813,8.781659,4.5224347,0.0,0.0,0.0
19713192260957,0.3589234,8.752945,4.536792,0.0,0.0,0.0
19713194640072,0.38285163,8.762517,4.56072,0.0,0.0,0.0
19713197019186,0.42592242,8.748159,4.570291,0.0,0.0,0.0
19713199398301,0.43070808,8.752945,4.551149,0.0,0.0,0.0
19713201777416,0.40677986,8.752945,4.5272202,0.0,0.0,0.0
19713204156530,0.38285163,8.743374,4.5272202,0.0,0.0,0.0
19713206535645,0.33499518,8.748159,4.5415773,0.0,0.0,0.0
19713208914759,0.23449662,8.724232,4.551149,0.0,0.0,0.0
19713211293874,0.12921242,8.719446,4.56072,0.0,0.0,0.0
19713213672989,0.023928227,8.743374,4.584648,0.0,0.0,0.0
19713216052103,-0.0526421,8.733803,4.546363,0.0,0.0,0.0
19713218431218,-0.13399807,8.7673025,4.5128636,0.0,0.0,0.0
19713220810332,-0.19142582,8.776874,4.5128636,0.0,0.0,0.0
19713223189447,-0.22013968,8.776874,4.479364,0.0,0.0,0.0
19713225568509,-0.2536392,8.800801,4.4889355,0.0,0.0,0.0
19713227947676,-0.25842485,8.796016,4.493721,0.0,0.0,0.0
19713230326791,-0.22492532,8.79123,4.45065,0.0,0.0,0.0
19713232705905,-0.21535404,8.796016,4.426722,0.0,0.0,0.0
19713235085020,-0.16749759,8.834301,4.398008,0.0,0.0,0.0
19713237464134,-0.09092726,8.839087,4.398008,0.0,0.0,0.0
19713239843249,-0.038285162,8.848659,4.369294,0.0,0.0,0.0
19713242222364,0.0,8.867801,4.359723,0.0,0.0,0.0
19713244601478,0.08135597,8.891729,4.3788652,0.0,0.0,0.0
19713246980593,0.124426775,8.882157,4.3740797,0.0,0.0,0.0
19713249359707,0.2009971,8.891729,4.354937,0.0,0.0,0.0
19713251738822,0.22492532,8.9013,4.3405805,0.0,0.0,0.0
19713254117936,0.22492532,8.915657,4.354937,0.0,0.0,0.0
19713256497051,0.22492532,8.920443,4.345366,0.0,0.0,0.0
19713258876166,0.20578274,8.939586,4.359723,0.0,0.0,0.0
19713261255280,0.22492532,8.9348,4.3645086,0.0,0.0,0.0
19713263634395,0.19142582,8.939586,4.3836513,0.0,0.0,0.0
19713266013509,0.17706887,8.9348,4.388437,0.0,0.0,0.0
19713268392624,0.15792629,8.963513,4.388437,0.0,0.0,0.0
19713270771739,0.148355,8.930014,4.3836513,0.0,0.0,0.0
19713273150853,0.148355,8.896515,4.388437,0.0,0.0,0.0
19713275529968,0.13878371,8.891729,4.3788652,0.0,0.0,0.0
19713277909082,0.14356937,8.886943,4.388437,0.0,0.0,0.0
19713280288197,0.15314065,8.891729,4.3836513,0.0,0.0,0.0
19713282667311,0.148355,8.9013,4.388437,0.0,0.0,0.0
19713285046426,0.18185452,8.877372,4.369294,0.0,0.0,0.0
19713287425541,0.18664017,8.853444,4.3740797,0.0,0.0,0.0
19713289804603,0.20578274,8.872586,4.3501515,0.0,0.0,0.0
19713292183770,0.21535404,8.834301,4.3501515,0.0,0.0,0.0
19713294562936,0.2009971,8.815159,4.369294,0.0,0.0,0.0
19713296941999,0.21535404,8.810373,4.369294,0.0,0.0,0.0
19713299321114,0.17228323,8.839087,4.354937,0.0,0.0,0.0
19713301700228,0.17228323,8.834301,4.3645086,0.0,0.0,0.0
19713304079343,0.17706887,8.829515,4.369294,0.0,0.0,0.0
19713306458457,0.16749759,8.815159,4.3836513,0.0,0.0,0.0
19713308837572,0.18185452,8.805588,4.369294,0.0,0.0,0.0
19713311216686,0.17228323,8.815159,4.359723,0.0,0.0,0.0
19713313595853,0.18664017,8.819944,4.3501515,0.0,0.0,0.0
19713315974968,0.2105684,8.82473,4.3262234,0.0,0.0,0.0
19713318354030,0.25842485,8.829515,4.331009,0.0,0.0,0.0
19713320733197,0.27756742,8.805588,4.3118663,0.0,0.0,0.0
19713323112311,0.32063824,8.796016,4.316652,0.0,0.0,0.0
19713325491426,0.38763726,8.781659,4.331009,0.0,0.0,0.0
19713327870541,0.4354937,8.815159,4.3645086,0.0,0.0,0.0
19713330249655,0.44985065,8.829515,4.3836513,0.0,0.0,0.0
19713332628770,0.47856453,8.834301,4.3836513,0.0,0.0,0.0
19713335007989,0.4642076,8.839087,4.354937,0.0,0.0,0.0
19713337386999,0.47377887,8.834301,4.345366,0.0,0.0,0.0
19713339766114,0.43070808,8.839087,4.3405805,0.0,0.0,0.0
19713342145228,0.39720857,8.85823,4.3357944,0.0,0.0,0.0
19713344524343,0.32542387,8.819944,4.3645086,0.0,0.0,0.0
19713346903457,0.24885355,8.819944,4.3788652,0.0,0.0,0.0
19713349282572,0.18185452,8.796016,4.388437,0.0,0.0,0.0
19713351661686,0.08135597,8.772088,4.3932223,0.0,0.0,0.0
19713354040801,0.038285162,8.7673025,4.3740797,0.0,0.0,0.0
19713356419916,-0.033499517,8.781659,4.369294,0.0,0.0,0.0
19713358799030,-0.076570325,8.7673025,4.354937,0.0,0.0,0.0
19713361178145,-0.124426775,8.7577305,4.3740797,0.0,0.0,0.0
19713363557259,-0.14356937,8.748159,4.3836513,0.0,0.0,0.0
19713365936374,-0.15792629,8.748159,4.359723,0.0,0.0,0.0
19713368315489,-0.16749759,8.738588,4.3645086,0.0,0.0,0.0
19713370694603,-0.16749759,8.733803,4.3405805,0.0,0.0,0.0
19713373073718,-0.15314065,8.752945,4.3405805,0.0,0.0,0.0
19713375452780,-0.124426775,8.748159,4.321438,0.0,0.0,0.0
19713377831947,-0.07178468,8.733803,4.3070807,0.0,0.0,0.0
19713380211061,-0.062213387,8.738588,4.316652,0.0,0.0,0.0
19713382590176,-0.0526421,8.772088,4.3405805,0.0,0.0,0.0
19713384969291,-0.023928227,8.796016,4.345366,0.0,0.0,0.0
19713387348405,-0.019142581,8.82473,4.3645086,0.0,0.0,0.0
19713389727520,-0.023928227,8.839087,4.3788652,0.0,0.0,0.0
19713392106634,-0.0047856453,8.867801,4.402794,0.0,0.0,0.0
19713394485749,-0.0526421,8.886943,4.4410787,0.0,0.0,0.0
19713396864864,-0.09092726,8.9013,4.4602213,0.0,0.0,0.0
19713399243978,-0.09092726,8.920443,4.465007,0.0,0.0,0.0
19713401623093,-0.10049855,8.944371,4.493721,0.0,0.0,0.0
19713404002207,-0.1052842,8.944371,4.517649,0.0,0.0,0.0
19713406381322,-0.11485548,8.944371,4.508078,0.0,0.0,0.0
19713408760436,-0.12921242,8.920443,4.5224347,0.0,0.0,0.0
19713411139551,-0.086141616,8.915657,4.517649,0.0,0.0,0.0
19713413518666,-0.05742774,8.9108715,4.5128636,0.0,0.0,0.0
19713415897780,-0.023928227,8.896515,4.5224347,0.0,0.0,0.0
19713418276895,0.009571291,8.886943,4.5224347,0.0,0.0,0.0
19713420656009,0.047856454,8.853444,4.503292,0.0,0.0,0.0
19713423035124,0.076570325,8.853444,4.508078,0.0,0.0,0.0
19713425414239,0.11964113,8.839087,4.493721,0.0,0.0,0.0
19713427793301,0.16271193,8.819944,4.5128636,0.0,0.0,0.0
19713430172468,0.19142582,8.815159,4.5128636,0.0,0.0,0.0
19713432551582,0.23449662,8.819944,4.536792,0.0,0.0,0.0
19713434930697,0.22013968,8.79123,4.536792,0.0,0.0,0.0
19713437309811,0.22492532,8.786445,4.5320063,0.0,0.0,0.0
19713439688926,0.20578274,8.776874,4.5272202,0.0,0.0,0.0
19713442068041,0.18185452,8.786445,4.517649,0.0,0.0,0.0
19713444447155,0.148355,8.776874,4.517649,0.0,0.0,0.0
19713446826270,0.13399807,8.7577305,4.546363,0.0,0.0,0.0
19713449205384,0.11485548,8.748159,4.5415773,0.0,0.0,0.0
19713451584499,0.086141616,8.743374,4.536792,0.0,0.0,0.0
19713453963614,0.047856454,8.743374,4.517649,0.0,0.0,0.0
19713456342728,0.019142581,8.752945,4.536792,0.0,0.0,0.0
19713458721843,0.0,8.7577305,4.536792,0.0,0.0,0.0
19713461100957,0.019142581,8.752945,4.5415773,0.0,0.0,0.0
19713463480072,0.02871387,8.762517,4.536792,0.0,0.0,0.0
19713465859186,0.023928227,8.7673025,4.546363,0.0,0.0,0.0
19713468238301,0.033499517,8.796016,4.546363,0.0,0.0,0.0
19713470617416,0.05742774,8.819944,4.546363,0.0,0.0,0.0
19713472996530,0.076570325,8.805588,4.56072,0.0,0.0,0.0
19713475375645,0.0526421,8.829515,4.536792,0.0,0.0,0.0
19713477754707,0.062213387,8.839087,4.536792,0.0,0.0,0.0
19713480133874,0.07178468,8.834301,4.5415773,0.0,0.0,0.0
19713482512989,0.0526421,8.867801,4.536792,0.0,0.0,0.0
19713484892103,0.06699903,8.863015,4.5320063,0.0,0.0,0.0
19713487271218,0.06699903,8.863015,4.5415773,0.0,0.0,0.0
19713489650332,0.014356935,8.863015,4.546363,0.0,0.0,0.0
19713492029447,0.0,8.853444,4.546363,0.0,0.0,0.0
19713494408561,-0.014356935,8.872586,4.5224347,0.0,0.0,0.0
19713496787676,-0.038285162,8.891729,4.551149,0.0,0.0,0.0
19713499166791,-0.047856454,8.867801,4.5559344,0.0,0.0,0.0
19713501545905,-0.047856454,8.85823,4.546363,0.0,0.0,0.0
19713503925020,-0.062213387,8.848659,4.546363,0.0,0.0,0.0
19713506304134,-0.062213387,8.848659,4.56072,0.0,0.0,0.0
19713508683249,-0.02871387,8.82473,4.56072,0.0,0.0,0.0
19713511062364,-0.019142581,8.829515,4.551149,0.0,0.0,0.0
19713513441478,0.009571291,8.810373,4.536792,0.0,0.0,0.0
19713515820593,0.038285162,8.82473,4.5320063,0.0,0.0,0.0
19713518199655,0.05742774,8.796016,4.508078,0.0,0.0,0.0
19713520578770,0.0526421,8.752945,4.4889355,0.0,0.0,0.0
19713522957936,0.07178468,8.781659,4.4745784,0.0,0.0,0.0
19713525337051,0.076570325,8.7577305,4.4554358,0.0,0.0,0.0
19713527716166,0.08135597,8.748159,4.465007,0.0,0.0,0.0
19713530095280,0.062213387,8.733803,4.469793,0.0,0.0,0.0
19713532474447,0.047856454,8.705089,4.45065,0.0,0.0,0.0
19713534853509,0.043070808,8.724232,4.4458647,0.0,0.0,0.0
19713537232624,0.02871387,8.738588,4.4554358,0.0,0.0,0.0
19713539611739,0.047856454,8.752945,4.465007,0.0,0.0,0.0
19713541990905,0.062213387,8.810373,4.4602213,0.0,0.0,0.0
19713544369968,0.06699903,8.843872,4.465007,0.0,0.0,0.0
19713546749134,0.12921242,8.863015,4.5128636,0.0,0.0,0.0
19713549128249,0.16271193,8.863015,4.5224347,0.0,0.0,0.0
19713551507311,0.20578274,8.872586,4.546363,0.0,0.0,0.0
19713553886426,0.26799613,8.882157,4.551149,0.0,0.0,0.0
19713556265593,0.31585258,8.877372,4.5415773,0.0,0.0,0.0
19713558644707,0.37806597,8.843872,4.536792,0.0,0.0,0.0
19713561023822,0.44506502,8.829515,4.5272202,0.0,0.0,0.0
19713563402936,0.52163535,8.819944,4.508078,0.0,0.0,0.0
19713565782051,0.55034924,8.82473,4.508078,0.0,0.0,0.0
19713568161166,0.5886344,8.810373,4.5272202,0.0,0.0,0.0
19713570540280,0.60777694,8.800801,4.5128636,0.0,0.0,0.0
19713572919395,0.6125626,8.786445,4.503292,0.0,0.0,0.0
19713575298509,0.6029913,8.772088,4.508078,0.0,0.0,0.0
19713577677624,0.5599205,8.781659,4.517649,0.0,0.0,0.0
19713580056739,0.526421,8.762517,4.5415773,0.0,0.0,0.0
19713582435853,0.44985065,8.724232,4.5655055,0.0,0.0,0.0
19713584814968,0.3589234,8.705089,4.56072,0.0,0.0,0.0
19713587194082,0.30149564,8.685946,4.5894337,0.0,0.0,0.0
19713589573197,0.24885355,8.690732,4.613362,0.0,0.0,0.0
19713591952259,0.2009971,8.676374,4.6085763,0.0,0.0,0.0
19713594331426,0.14356937,8.657232,4.613362,0.0,0.0,0.0
19713596710541,0.11964113,8.633304,4.599005,0.0,0.0,0.0
19713599089655,0.11006984,8.63809,4.599005,0.0,0.0,0.0
19713601468770,0.09571291,8.623733,4.6037908,0.0,0.0,0.0
19713603847884,0.13878371,8.623733,4.6229334,0.0,0.0,0.0
19713606226947,0.16749759,8.595019,4.6325045,0.0,0.0,0.0
19713608606114,0.2009971,8.609376,4.6085763,0.0,0.0,0.0
19713610985228,0.2632105,8.623733,4.5798626,0.0,0.0,0.0
19713613364343,0.3062813,8.6141615,4.536792,0.0,0.0,0.0
19713615743457,0.31585258,8.623733,4.5272202,0.0,0.0,0.0
19713618122572,0.35413775,8.609376,4.4985065,0.0,0.0,0.0
19713620501686,0.38285163,8.599805,4.5128636,0.0,0.0,0.0
19713622880801,0.38763726,8.585447,4.5224347,0.0,0.0,0.0
19713625259916,0.41635114,8.595019,4.4985065,0.0,0.0,0.0
19713627639030,0.41635114,8.633304,4.4554358,0.0,0.0,0.0
19713630018145,0.38763726,8.662018,4.412365,0.0,0.0,0.0
19713632397259,0.39720857,8.676374,4.3932223,0.0,0.0,0.0
19713634776374,0.37806597,8.700303,4.3836513,0.0,0.0,0.0
19713637155489,0.38285163,8.709874,4.388437,0.0,0.0,0.0
19713639534603,0.3589234,8.786445,4.388437,0.0,0.0,0.0
19713641913718,0.37328035,8.819944,4.3836513,0.0,0.0,0.0
19713644292832,0.35413775,8.843872,4.3645086,0.0,0.0,0.0
19713646671947,0.34456646,8.882157,4.3357944,0.0,0.0,0.0
19713649051061,0.32063824,8.915657,4.302295,0.0,0.0,0.0
19713651430176,0.31585258,8.930014,4.2831526,0.0,0.0,0.0
19713653809291,0.29192436,8.939586,4.2592244,0.0,0.0,0.0
19713656188405,0.2632105,8.953942,4.278367,0.0,0.0,0.0
19713658567520,0.23928227,8.973084,4.2831526,0.0,0.0,0.0
19713660946634,0.22492532,8.968299,4.2975097,0.0,0.0,0.0
19713663325749,0.18664017,8.963513,4.2687955,0.0,0.0,0.0
19713665704864,0.17706887,8.949157,4.2257247,0.0,0.0,0.0
19713668083978,0.12921242,8.944371,4.211368,0.0,0.0,0.0
19713670463093,0.11006984,8.9108715,4.206582,0.0,0.0,0.0
19713672842207,0.08135597,8.930014,4.240082,0.0,0.0,0.0
19713675221322,0.07178468,8.930014,4.249653,0.0,0.0,0.0
19713677600436,0.06699903,8.9108715,4.278367,0.0,0.0,0.0
19713679979551,0.062213387,8.9013,4.278367,0.0,0.0,0.0
19713682358666,0.09092726,8.9108715,4.26401,0.0,0.0,0.0
19713684737780,0.13399807,8.906086,4.240082,0.0,0.0,0.0
19713687116895,0.16749759,8.886943,4.23051,0.0,0.0,0.0
19713689496009,0.21535404,8.867801,4.2592244,0.0,0.0,0.0
19713691875124,0.2632105,8.85823,4.302295,0.0,0.0,0.0
19713694254239,0.32542387,8.834301,4.331009,0.0,0.0,0.0
19713696633353,0.4019942,8.85823,4.354937,0.0,0.0,0.0
19713699012468,0.45942193,8.863015,4.369294,0.0,0.0,0.0
19713701391582,0.49292147,8.853444,4.388437,0.0,0.0,0.0
19713703770697,0.526421,8.863015,4.4315076,0.0,0.0,0.0
19713706149811,0.56470615,8.882157,4.465007,0.0,0.0,0.0
19713708528926,0.5599205,8.848659,4.5128636,0.0,0.0,0.0
19713710908041,0.53599226,8.867801,4.575077,0.0,0.0,0.0
19713713287155,0.5312066,8.882157,4.6085763,0.0,0.0,0.0
19713715666270,0.49292147,8.848659,4.6229334,0.0,0.0,0.0
19713718045384,0.46899325,8.839087,4.666004,0.0,0.0,0.0
19713720424499,0.39720857,8.82473,4.666004,0.0,0.0,0.0
19713722803614,0.34456646,8.810373,4.6707897,0.0,0.0,0.0
19713725182728,0.31106696,8.85823,4.6707897,0.0,0.0,0.0
19713727561843,0.25842485,8.834301,4.6612186,0.0,0.0,0.0
19713729940957,0.2632105,8.85823,4.627719,0.0,0.0,0.0
19713732320072,0.22492532,8.872586,4.599005,0.0,0.0,0.0
19713734699186,0.2009971,8.85823,4.575077,0.0,0.0,0.0
19713737078301,0.22971097,8.839087,4.570291,0.0,0.0,0.0
19713739457416,0.21535404,8.848659,4.613362,0.0,0.0,0.0
19713741836582,0.2536392,8.815159,4.6229334,0.0,0.0,0.0
19713744215645,0.27756742,8.786445,4.627719,0.0,0.0,0.0
19713746594759,0.30149564,8.729017,4.6372905,0.0,0.0,0.0
19713748973926,0.28235307,8.71466,4.6803613,0.0,0.0,0.0
19713751352989,0.28713873,8.662018,4.7042894,0.0,0.0,0.0
19713753732103,0.29192436,8.63809,4.699504,0.0,0.0,0.0
19713756111270,0.27756742,8.623733,4.6803613,0.0,0.0,0.0
19713758490384,0.24885355,8.623733,4.6325045,0.0,0.0,0.0
19713760869499,0.2105684,8.6141615,4.599005,0.0,0.0,0.0
19713763248561,0.18185452,8.571091,4.5798626,0.0,0.0,0.0
19713765627728,0.11964113,8.571091,4.642076,0.0,0.0,0.0
19713768006791,0.086141616,8.566305,4.694718,0.0,0.0,0.0
19713770385957,0.033499517,8.580662,4.7042894,0.0,0.0,0.0
19713772765072,-0.0047856453,8.628518,4.685147,0.0,0.0,0.0
19713775144186,-0.05742774,8.676374,4.6468616,0.0,0.0,0.0
19713777523301,-0.12921242,8.690732,4.5942197,0.0,0.0,0.0
19713779902416,-0.148355,8.709874,4.575077,0.0,0.0,0.0
19713782281530,-0.16271193,8.71466,4.584648,0.0,0.0,0.0
19713784660645,-0.15792629,8.695518,4.5942197,0.0,0.0,0.0
19713787039759,-0.19621146,8.690732,4.6085763,0.0,0.0,0.0
19713789418822,-0.21535404,8.743374,4.5655055,0.0,0.0,0.0
19713791797989,-0.19621146,8.748159,4.479364,0.0,0.0,0.0
19713794177103,-0.18664017,8.79123,4.4075794,0.0,0.0,0.0
19713796556218,-0.16749759,8.819944,4.369294,0.0,0.0,0.0
19713798935332,-0.16271193,8.848659,4.359723,0.0,0.0,0.0
19713801314447,-0.124426775,8.853444,4.359723,0.0,0.0,0.0
19713803693561,-0.09571291,8.829515,4.3932223,0.0,0.0,0.0
19713806072676,-0.07178468,8.839087,4.412365,0.0,0.0,0.0
19713808451791,-0.038285162,8.85823,4.402794,0.0,0.0,0.0
19713810830905,0.0,8.872586,4.3932223,0.0,0.0,0.0
19713813210020,0.033499517,8.872586,4.388437,0.0,0.0,0.0
19713815589134,0.06699903,8.867801,4.4410787,0.0,0.0,0.0
19713817968249,0.13399807,8.867801,4.469793,0.0,0.0,0.0
19713820347364,0.13399807,8.839087,4.493721,0.0,0.0,0.0
19713822726478,0.18185452,8.843872,4.536792,0.0,0.0,0.0
19713825105593,0.22013968,8.867801,4.517649,0.0,0.0,0.0
19713827484707,0.2632105,8.853444,4.493721,0.0,0.0,0.0
19713829863822,0.3062813,8.834301,4.4410787,0.0,0.0,0.0
19713832242936,0.36370903,8.829515,4.412365,0.0,0.0,0.0
19713834622051,0.38763726,8.829515,4.412365,0.0,0.0,0.0
19713837001166,0.41156548,8.834301,4.426722,0.0,0.0,0.0
19713839380280,0.42592242,8.853444,4.421936,0.0,0.0,0.0
19713841759395,0.43070808,8.882157,4.412365,0.0,0.0,0.0
19713844138509,0.39720857,8.915657,4.4171505,0.0,0.0,0.0
19713846517624,0.36370903,8.9348,4.412365,0.0,0.0,0.0
19713848896739,0.34456646,8.930014,4.4075794,0.0,0.0,0.0
19713851275853,0.3062813,8.949157,4.426722,0.0,0.0,0.0
19713853654968,0.26799613,8.9826565,4.4458647,0.0,0.0,0.0
19713856034082,0.22013968,9.020942,4.479364,0.0,0.0,0.0
19713858413197,0.17228323,9.030513,4.517649,0.0,0.0,0.0
19713860792311,0.13878371,9.030513,4.546363,0.0,0.0,0.0
19713863171426,0.11006984,9.040084,4.536792,0.0,0.0,0.0
19713865550541,0.1052842,9.064013,4.517649,0.0,0.0,0.0
19713867929655,0.08135597,9.040084,4.503292,0.0,0.0,0.0
19713870308770,0.086141616,9.040084,4.4602213,0.0,0.0,0.0
19713872687884,0.11006984,9.016156,4.4458647,0.0,0.0,0.0
19713875066999,0.11006984,8.963513,4.4458647,0.0,0.0,0.0
19713877446114,0.124426775,8.930014,4.4315076,0.0,0.0,0.0
19713879825228,0.148355,8.872586,4.4315076,0.0,0.0,0.0
19713882204343,0.18664017,8.839087,4.4410787,0.0,0.0,0.0
19713884583457,0.23449662,8.819944,4.4602213,0.0,0.0,0.0
19713886962572,0.27756742,8.800801,4.4985065,0.0,0.0,0.0
19713889341686,0.32063824,8.810373,4.503292,0.0,0.0,0.0
19713891720801,0.34456646,8.796016,4.536792,0.0,0.0,0.0
19713894099916,0.37328035,8.776874,4.5320063,0.0,0.0,0.0
19713896479030,0.39720857,8.752945,4.5224347,0.0,0.0,0.0
19713898858145,0.42592242,8.786445,4.546363,0.0,0.0,0.0
19713901237259,0.44506502,8.7577305,4.551149,0.0,0.0,0.0
19713903616374,0.4354937,8.748159,4.570291,0.0,0.0,0.0
19713905995489,0.43070808,8.738588,4.584648,0.0,0.0,0.0
19713908374603,0.4354937,8.724232,4.584648,0.0,0.0,0.0
19713910753718,0.44027936,8.729017,4.599005,0.0,0.0,0.0
19713913132832,0.44506502,8.709874,4.5894337,0.0,0.0,0.0
19713915511999,0.4354937,8.695518,4.6085763,0.0,0.0,0.0
19713917891061,0.41156548,8.700303,4.6372905,0.0,0.0,0.0
19713920270228,0.41635114,8.681161,4.6468616,0.0,0.0,0.0
19713922649343,0.4019942,8.671589,4.6612186,0.0,0.0,0.0
19713925028405,0.3924229,8.642876,4.6755753,0.0,0.0,0.0
19713927407572,0.3924229,8.618947,4.685147,0.0,0.0,0.0
19713929786634,0.37806597,8.60459,4.694718,0.0,0.0,0.0
19713932165749,0.39720857,8.566305,4.723432,0.0,0.0,0.0
19713934544864,0.37328035,8.532805,4.7282176,0.0,0.0,0.0
19713936924030,0.41156548,8.52802,4.7377887,0.0,0.0,0.0
19713939303145,0.45942193,8.518449,4.694718,0.0,0.0,0.0
19713941682259,0.51206404,8.499306,4.685147,0.0,0.0,0.0
19713944061374,0.5455636,8.523234,4.6564326,0.0,0.0,0.0
19713946440436,0.5838487,8.556734,4.642076,0.0,0.0,0.0
19713948819603,0.6125626,8.551949,4.618148,0.0,0.0,0.0
19713951198718,0.67477596,8.585447,4.599005,0.0,0.0,0.0
19713953577832,0.6795616,8.609376,4.584648,0.0,0.0,0.0
19713955956947,0.6987042,8.628518,4.575077,0.0,0.0,0.0
19713958336061,0.70348984,8.633304,4.56072,0.0,0.0,0.0
19713960715176,0.71306115,8.647661,4.56072,0.0,0.0,0.0
19713963094291,0.7082755,8.642876,4.5415773,0.0,0.0,0.0
19713965473353,0.6843473,8.671589,4.5320063,0.0,0.0,0.0
19713967852520,0.66999036,8.695518,4.536792,0.0,0.0,0.0
19713970231634,0.66041905,8.709874,4.5272202,0.0,0.0,0.0
19713972610749,0.6269195,8.681161,4.5128636,0.0,0.0,0.0
19713974989864,0.6125626,8.671589,4.493721,0.0,0.0,0.0
19713977368978,0.5838487,8.709874,4.479364,0.0,0.0,0.0
19713979748093,0.57427746,8.695518,4.465007,0.0,0.0,0.0
19713982127207,0.5694918,8.700303,4.421936,0.0,0.0,0.0
19713984506322,0.56470615,8.685946,4.4075794,0.0,0.0,0.0
19713986885436,0.5694918,8.71466,4.398008,0.0,0.0,0.0
19713989264551,0.5455636,8.748159,4.3836513,0.0,0.0,0.0
19713991643666,0.5455636,8.748159,4.354937,0.0,0.0,0.0
19713994022780,0.5024927,8.752945,4.3357944,0.0,0.0,0.0
19713996401895,0.47856453,8.762517,4.3262234,0.0,0.0,0.0
19713998781009,0.4546363,8.772088,4.3118663,0.0,0.0,0.0
19714001160124,0.44506502,8.7577305,4.2927237,0.0,0.0,0.0
19714003539239,0.40677986,8.781659,4.2927237,0.0,0.0,0.0
19714005918353,0.36370903,8.776874,4.2927237,0.0,0.0,0.0
19714008297468,0.34456646,8.776874,4.273581,0.0,0.0,0.0
19714010676582,0.27756742,8.7673025,4.2592244,0.0,0.0,0.0
19714013055697,0.23449662,8.7673025,4.2831526,0.0,0.0,0.0
19714015434811,0.2009971,8.781659,4.2687955,0.0,0.0,0.0
19714017813926,0.17706887,8.79123,4.2687955,0.0,0.0,0.0
19714020193041,0.16749759,8.805588,4.2687955,0.0,0.0,0.0
19714022572103,0.13878371,8.834301,4.273581,0.0,0.0,0.0
19714024951270,0.13878371,8.848659,4.2592244,0.0,0.0,0.0
19714027330384,0.13399807,8.882157,4.278367,0.0,0.0,0.0
19714029709499,0.15792629,8.896515,4.2927237,0.0,0.0,0.0
19714032088614,0.20578274,8.944371,4.3070807,0.0,0.0,0.0
19714034467728,0.2440679,8.949157,4.321438,0.0,0.0,0.0
19714036846843,0.28713873,8.987442,4.321438,0.0,0.0,0.0
19714039225957,0.34456646,9.01137,4.3118663,0.0,0.0,0.0
19714041605072,0.38763726,8.997013,4.3357944,0.0,0.0,0.0
19714043984186,0.4546363,8.987442,4.345366,0.0,0.0,0.0
19714046363301,0.4977071,8.968299,4.3501515,0.0,0.0,0.0
19714048742416,0.5455636,8.944371,4.354937,0.0,0.0,0.0
19714051121530,0.5838487,8.925228,4.345366,0.0,0.0,0.0
19714053500645,0.6269195,8.915657,4.345366,0.0,0.0,0.0
19714055879759,0.66041905,8.9108715,4.345366,0.0,0.0,0.0
19714058258822,0.7178468,8.9108715,4.354937,0.0,0.0,0.0
19714060637989,0.7322037,8.896515,4.345366,0.0,0.0,0.0
19714063017103,0.76570326,8.853444,4.3501515,0.0,0.0,0.0
19714065396218,0.7896315,8.853444,4.3501515,0.0,0.0,0.0
19714067775332,0.79920274,8.843872,4.3501515,0.0,0.0,0.0
19714070154447,0.80877405,8.82473,4.3501515,0.0,0.0,0.0
19714072533614,0.7896315,8.805588,4.3645086,0.0,0.0,0.0
19714074912676,0.7848458,8.810373,4.3645086,0.0,0.0,0.0
19714077291843,0.7896315,8.805588,4.3788652,0.0,0.0,0.0
19714079670957,0.7609176,8.79123,4.369294,0.0,0.0,0.0
19714082050020,0.7369894,8.786445,4.402794,0.0,0.0,0.0
19714084429134,0.7082755,8.762517,4.4171505,0.0,0.0,0.0
19714086808301,0.67477596,8.733803,4.426722,0.0,0.0,0.0
19714089187416,0.63170516,8.738588,4.436293,0.0,0.0,0.0
19714091566530,0.60777694,8.733803,4.4171505,0.0,0.0,0.0
19714093945645,0.5982057,8.705089,4.426722,0.0,0.0,0.0
19714096324759,0.57906306,8.705089,4.426722,0.0,0.0,0.0
19714098703874,0.53599226,8.719446,4.4075794,0.0,0.0,0.0
19714101082989,0.4977071,8.719446,4.4171505,0.0,0.0,0.0
19714103462103,0.45942193,8.743374,4.426722,0.0,0.0,0.0
19714105841218,0.4211368,8.7577305,4.45065,0.0,0.0,0.0
19714108220332,0.38763726,8.7673025,4.4602213,0.0,0.0,0.0
19714110599447,0.37328035,8.781659,4.436293,0.0,0.0,0.0
19714112978561,0.33020952,8.796016,4.436293,0.0,0.0,0.0
19714115357676,0.29671,8.810373,4.4602213,0.0,0.0,0.0
19714117736791,0.26799613,8.839087,4.465007,0.0,0.0,0.0
19714120115905,0.2440679,8.848659,4.479364,0.0,0.0,0.0
19714122495020,0.2105684,8.867801,4.4745784,0.0,0.0,0.0
19714124874134,0.2009971,8.882157,4.4889355,0.0,0.0,0.0
19714127253249,0.18185452,8.877372,4.5128636,0.0,0.0,0.0
19714129632364,0.14356937,8.882157,4.503292,0.0,0.0,0.0
19714132011478,0.148355,8.877372,4.536792,0.0,0.0,0.0
19714134390593,0.1052842,8.863015,4.508078,0.0,0.0,0.0
19714136769707,0.1052842,8.853444,4.493721,0.0,0.0,0.0
19714139148822,0.1052842,8.85823,4.4841495,0.0,0.0,0.0
19714141527936,0.09571291,8.867801,4.4889355,0.0,0.0,0.0
19714143907051,0.11485548,8.863015,4.4985065,0.0,0.0,0.0
19714146286166,0.11006984,8.829515,4.4889355,0.0,0.0,0.0
19714148665280,0.13399807,8.819944,4.493721,0.0,0.0,0.0
19714151044395,0.11964113,8.82473,4.4985065,0.0,0.0,0.0
19714153423509,0.124426775,8.819944,4.517649,0.0,0.0,0.0
19714155802624,0.13399807,8.819944,4.4985065,0.0,0.0,0.0
19714158181739,0.124426775,8.781659,4.4985065,0.0,0.0,0.0
19714160560853,0.16271193,8.7673025,4.503292,0.0,0.0,0.0
19714162939968,0.15314065,8.738588,4.493721,0.0,0.0,0.0
19714165319082,0.15314065,8.700303,4.479364,0.0,0.0,0.0
19714167698197,0.15314065,8.719446,4.4602213,0.0,0.0,0.0
19714170077311,0.17706887,8.724232,4.45065,0.0,0.0,0.0
19714172456426,0.18185452,8.71466,4.4458647,0.0,0.0,0.0
19714174835541,0.18664017,8.690732,4.4410787,0.0,0.0,0.0
19714177214655,0.18664017,8.671589,4.402794,0.0,0.0,0.0
19714179593770,0.20578274,8.681161,4.421936,0.0,0.0,0.0
19714181972884,0.2009971,8.671589,4.436293,0.0,0.0,0.0
19714184351999,0.20578274,8.676374,4.4458647,0.0,0.0,0.0
19714186731114,0.2009971,8.71466,4.4458647,0.0,0.0,0.0
19714189110228,0.17706887,8.724232,4.4554358,0.0,0.0,0.0
19714191489343,0.15314065,8.748159,4.465007,0.0,0.0,0.0
19714193868457,0.12921242,8.772088,4.4745784,0.0,0.0,0.0
19714196247572,0.11964113,8.7577305,4.503292,0.0,0.0,0.0
19714198626686,0.1052842,8.762517,4.479364,0.0,0.0,0.0
19714201005801,0.09571291,8.805588,4.4985065,0.0,0.0,0.0
19714203384916,0.076570325,8.815159,4.4985065,0.0,0.0,0.0
19714205764030,0.07178468,8.796016,4.5128636,0.0,0.0,0.0
19714208143145,0.08135597,8.79123,4.503292,0.0,0.0,0.0
19714210522311,0.09571291,8.819944,4.4841495,0.0,0.0,0.0
19714212901374,0.08135597,8.805588,4.469793,0.0,0.0,0.0
19714215280489,0.07178468,8.805588,4.4554358,0.0,0.0,0.0
19714217659603,0.10049855,8.776874,4.436293,0.0,0.0,0.0
19714220038770,0.12921242,8.781659,4.436293,0.0,0.0,0.0
19714222417884,0.14356937,8.781659,4.4315076,0.0,0.0,0.0
19714224796999,0.148355,8.800801,4.426722,0.0,0.0,0.0
19714227176114,0.18185452,8.800801,4.4410787,0.0,0.0,0.0
19714229555228,0.19621146,8.800801,4.4410787,0.0,0.0,0.0
19714231934343,0.22013968,8.796016,4.426722,0.0,0.0,0.0
19714234313457,0.24885355,8.786445,4.436293,0.0,0.0,0.0
19714236692572,0.26799613,8.800801,4.436293,0.0,0.0,0.0
19714239071686,0.2536392,8.772088,4.4315076,0.0,0.0,0.0
19714241450801,0.2536392,8.752945,4.4602213,0.0,0.0,0.0
19714243829916,0.25842485,8.738588,4.45065,0.0,0.0,0.0
19714246209030,0.28235307,8.7577305,4.4315076,0.0,0.0,0.0
19714248588145,0.27756742,8.762517,4.4410787,0.0,0.0,0.0
19714250967259,0.27756742,8.772088,4.436293,0.0,0.0,0.0
19714253346374,0.24885355,8.7673025,4.421936,0.0,0.0,0.0
19714255725489,0.2536392,8.7577305,4.4075794,0.0,0.0,0.0
19714258104603,0.25842485,8.762517,4.4075794,0.0,0.0,0.0
19714260483718,0.2727818,8.762517,4.4171505,0.0,0.0,0.0
19714262862832,0.29671,8.748159,4.412365,0.0,0.0,0.0
19714265241947,0.30149564,8.776874,4.4075794,0.0,0.0,0.0
19714267621009,0.32542387,8.776874,4.398008,0.0,0.0,0.0
19714270000176,0.33499518,8.786445,4.402794,0.0,0.0,0.0
19714272379291,0.32063824,8.781659,4.4171505,0.0,0.0,0.0
19714274758405,0.32542387,8.805588,4.412365,0.0,0.0,0.0
19714277137520,0.3397808,8.829515,4.4171505,0.0,0.0,0.0
19714279516634,0.34456646,8.810373,4.412365,0.0,0.0,0.0
19714281895749,0.33499518,8.839087,4.412365,0.0,0.0,0.0
19714284274864,0.36370903,8.848659,4.4075794,0.0,0.0,0.0
19714286653978,0.37328035,8.877372,4.3932223,0.0,0.0,0.0
19714289033093,0.3589234,8.886943,4.3932223,0.0,0.0,0.0
19714291412207,0.35413775,8.9108715,4.388437,0.0,0.0,0.0
19714293791322,0.35413775,8.906086,4.388437,0.0,0.0,0.0
19714296170436,0.29192436,8.925228,4.402794,0.0,0.0,0.0
19714298549551,0.31585258,8.915657,4.3932223,0.0,0.0,0.0
19714300928666,0.33020952,8.920443,4.4075794,0.0,0.0,0.0
19714303307780,0.31106696,8.9348,4.412365,0.0,0.0,0.0
19714305686895,0.30149564,8.930014,4.388437,0.0,0.0,0.0
19714308066009,0.29671,8.906086,4.388437,0.0,0.0,0.0
19714310445124,0.29192436,8.9108715,4.398008,0.0,0.0,0.0
19714312824239,0.31106696,8.891729,4.402794,0.0,0.0,0.0
19714315203353,0.33499518,8.867801,4.398008,0.0,0.0,0.0
19714317582468,0.3589234,8.877372,4.3932223,0.0,0.0,0.0
19714319961582,0.37328035,8.9013,4.402794,0.0,0.0,0.0
19714322340697,0.37806597,8.882157,4.412365,0.0,0.0,0.0
19714324719811,0.38763726,8.886943,4.412365,0.0,0.0,0.0
19714327098926,0.3684947,8.886943,4.3932223,0.0,0.0,0.0
19714329478041,0.37328035,8.882157,4.3932223,0.0,0.0,0.0
19714331857155,0.3589234,8.872586,4.3932223,0.0,0.0,0.0
19714334236270,0.33020952,8.863015,4.402794,0.0,0.0,0.0
19714336615384,0.3062813,8.834301,4.412365,0.0,0.0,0.0
19714338994551,0.29671,8.815159,4.421936,0.0,0.0,0.0
19714341373666,0.2632105,8.796016,4.4315076,0.0,0.0,0.0
19714343752728,0.22492532,8.79123,4.4315076,0.0,0.0,0.0
19714346131895,0.19621146,8.796016,4.436293,0.0,0.0,0.0
19714348511009,0.17706887,8.786445,4.436293,0.0,0.0,0.0
19714350890124,0.16749759,8.810373,4.4410787,0.0,0.0,0.0
19714353269239,0.15314065,8.772088,4.4554358,0.0,0.0,0.0
19714355648353,0.12921242,8.79123,4.4985065,0.0,0.0,0.0
19714358027468,0.13878371,8.810373,4.493721,0.0,0.0,0.0
19714360406582,0.148355,8.796016,4.4985065,0.0,0.0,0.0
19714362785697,0.15314065,8.810373,4.508078,0.0,0.0,0.0
19714365164811,0.14356937,8.810373,4.517649,0.0,0.0,0.0
19714367543926,0.148355,8.800801,4.517649,0.0,0.0,0.0
19714369923041,0.16749759,8.7673025,4.5272202,0.0,0.0,0.0
19714372302155,0.17706887,8.772088,4.508078,0.0,0.0,0.0
19714374681270,0.2105684,8.762517,4.517649,0.0,0.0,0.0
19714377060384,0.24885355,8.752945,4.5272202,0.0,0.0,0.0
19714379439499,0.28713873,8.7673025,4.5272202,0.0,0.0,0.0
19714381818614,0.27756742,8.781659,4.5224347,0.0,0.0,0.0
19714384197728,0.2727818,8.781659,4.517649,0.0,0.0,0.0
19714386576843,0.32542387,8.800801,4.5128636,0.0,0.0,0.0
19714388955957,0.34456646,8.752945,4.5224347,0.0,0.0,0.0
19714391335072,0.3397808,8.772088,4.5320063,0.0,0.0,0.0
19714393714186,0.3397808,8.776874,4.551149,0.0,0.0,0.0
19714396093301,0.3589234,8.762517,4.551149,0.0,0.0,0.0
19714398472416,0.3493521,8.7673025,4.536792,0.0,0.0,0.0
19714400851530,0.32542387,8.781659,4.517649,0.0,0.0,0.0
19714403230645,0.32542387,8.7673025,4.4985065,0.0,0.0,0.0
19714405609759,0.34456646,8.752945,4.5128636,0.0,0.0,0.0
19714407988874,0.3397808,8.7577305,4.508078,0.0,0.0,0.0
19714410367989,0.33499518,8.7673025,4.4985065,0.0,0.0,0.0
19714412747103,0.32542387,8.772088,4.4841495,0.0,0.0,0.0
19714415126218,0.34456646,8.7673025,4.465007,0.0,0.0,0.0
19714417505332,0.33020952,8.7577305,4.465007,0.0,0.0,0.0
19714419884447,0.33499518,8.7577305,4.4554358,0.0,0.0,0.0
19714422263561,0.32542387,8.752945,4.4410787,0.0,0.0,0.0
19714424642676,0.31585258,8.7577305,4.426722,0.0,0.0,0.0
19714427021791,0.3062813,8.752945,4.412365,0.0,0.0,0.0
19714429400905,0.32063824,8.738588,4.412365,0.0,0.0,0.0
19714431780020,0.28713873,8.7673025,4.4171505,0.0,0.0,0.0
19714434159134,0.2536392,8.786445,4.4075794,0.0,0.0,0.0
19714436538249,0.23928227,8.810373,4.4075794,0.0,0.0,0.0
19714438917364,0.2105684,8.815159,4.402794,0.0,0.0,0.0
19714441296478,0.19142582,8.796016,4.3788652,0.0,0.0,0.0
19714443675593,0.17706887,8.805588,4.398008,0.0,0.0,0.0
19714446054655,0.148355,8.815159,4.3836513,0.0,0.0,0.0
19714448433822,0.124426775,8.839087,4.398008,0.0,0.0,0.0
19714450812936,0.11485548,8.843872,4.3932223,0.0,0.0,0.0
19714453192051,0.1052842,8.843872,4.402794,0.0,0.0,0.0
19714455571166,0.12921242,8.867801,4.3836513,0.0,0.0,0.0
19714457950332,0.11964113,8.872586,4.388437,0.0,0.0,0.0
19714460329395,0.11006984,8.882157,4.4075794,0.0,0.0,0.0
19714462708509,0.11485548,8.848659,4.4075794,0.0,0.0,0.0
19714465087676,0.11485548,8.848659,4.402794,0.0,0.0,0.0
19714467466791,0.148355,8.863015,4.398008,0.0,0.0,0.0
19714469845905,0.16749759,8.853444,4.402794,0.0,0.0,0.0
19714472225020,0.2009971,8.853444,4.398008,0.0,0.0,0.0
19714474604134,0.2105684,8.882157,4.402794,0.0,0.0,0.0
19714476983249,0.2440679,8.85823,4.3932223,0.0,0.0,0.0
19714479362364,0.2536392,8.834301,4.398008,0.0,0.0,0.0
19714481741478,0.24885355,8.82473,4.4075794,0.0,0.0,0.0
19714484120593,0.2727818,8.805588,4.3932223,0.0,0.0,0.0
19714486499707,0.2440679,8.819944,4.4075794,0.0,0.0,0.0
19714488878822,0.2632105,8.805588,4.398008,0.0,0.0,0.0
19714491257936,0.23928227,8.815159,4.412365,0.0,0.0,0.0
19714493637051,0.21535404,8.815159,4.412365,0.0,0.0,0.0
19714496016166,0.20578274,8.79123,4.4075794,0.0,0.0,0.0
19714498395280,0.20578274,8.776874,4.426722,0.0,0.0,0.0
19714500774395,0.18664017,8.772088,4.4171505,0.0,0.0,0.0
19714503153509,0.20578274,8.776874,4.426722,0.0,0.0,0.0
19714505532624,0.22971097,8.781659,4.436293,0.0,0.0,0.0
19714507911739,0.24885355,8.796016,4.426722,0.0,0.0,0.0
19714510290853,0.2536392,8.776874,4.4171505,0.0,0.0,0.0
19714512669968,0.29671,8.776874,4.436293,0.0,0.0,0.0
19714515049082,0.31585258,8.805588,4.4410787,0.0,0.0,0.0
19714517428197,0.33499518,8.810373,4.4410787,0.0,0.0,0.0
19714519807311,0.3684947,8.815159,4.4315076,0.0,0.0,0.0
19714522186426,0.39720857,8.810373,4.436293,0.0,0.0,0.0
19714524565541,0.4354937,8.815159,4.436293,0.0,0.0,0.0
19714526944655,0.45942193,8.815159,4.426722,0.0,0.0,0.0
19714529323770,0.47377887,8.839087,4.4171505,0.0,0.0,0.0
19714531702884,0.46899325,8.843872,4.4171505,0.0,0.0,0.0
19714534081999,0.47377887,8.82473,4.398008,0.0,0.0,0.0
19714536461114,0.44985065,8.834301,4.412365,0.0,0.0,0.0
19714538840228,0.42592242,8.829515,4.402794,0.0,0.0,0.0
19714541219343,0.39720857,8.843872,4.398008,0.0,0.0,0.0
19714543598457,0.3684947,8.848659,4.412365,0.0,0.0,0.0
19714545977572,0.35413775,8.834301,4.426722,0.0,0.0,0.0
19714548356686,0.34456646,8.834301,4.421936,0.0,0.0,0.0
19714550735801,0.31585258,8.829515,4.436293,0.0,0.0,0.0
19714553114916,0.29192436,8.853444,4.436293,0.0,0.0,0.0
19714555494030,0.26799613,8.848659,4.436293,0.0,0.0,0.0
19714557873145,0.2536392,8.853444,4.4075794,0.0,0.0,0.0
19714560252259,0.2536392,8.85823,4.4171505,0.0,0.0,0.0
19714562631426,0.23928227,8.848659,4.436293,0.0,0.0,0.0
19714565010541,0.2440679,8.829515,4.4171505,0.0,0.0,0.0
19714567389655,0.22492532,8.848659,4.426722,0.0,0.0,0.0
19714569768770,0.2105684,8.848659,4.426722,0.0,0.0,0.0
19714572147832,0.21535404,8.839087,4.436293,0.0,0.0,0.0
19714574526947,0.21535404,8.834301,4.4315076,0.0,0.0,0.0
19714576906114,0.22013968,8.810373,4.4075794,0.0,0.0,0.0
19714579285176,0.22013968,8.810373,4.4171505,0.0,0.0,0.0
19714581664343,0.2009971,8.800801,4.436293,0.0,0.0,0.0
19714584043457,0.19142582,8.810373,4.4458647,0.0,0.0,0.0
19714586422572,0.18185452,8.815159,4.4315076,0.0,0.0,0.0
19714588801686,0.19142582,8.796016,4.4171505,0.0,0.0,0.0
19714591180801,0.16271193,8.810373,4.412365,0.0,0.0,0.0
19714593559916,0.15314065,8.796016,4.4075794,0.0,0.0,0.0
19714595939030,0.16271193,8.786445,4.402794,0.0,0.0,0.0
19714598318145,0.16271193,8.79123,4.412365,0.0,0.0,0.0
19714600697259,0.17228323,8.79123,4.402794,0.0,0.0,0.0
19714603076374,0.19142582,8.796016,4.412365,0.0,0.0,0.0
19714605455489,0.2105684,8.815159,4.402794,0.0,0.0,0.0
19714607834603,0.22971097,8.815159,4.421936,0.0,0.0,0.0
19714610213718,0.22013968,8.819944,4.421936,0.0,0.0,0.0
19714612592832,0.24885355,8.82473,4.412365,0.0,0.0,0.0
19714614971947,0.2440679,8.834301,4.4171505,0.0,0.0,0.0
19714617351061,0.25842485,8.834301,4.421936,0.0,0.0,0.0
19714619730176,0.25842485,8.829515,4.4171505,0.0,0.0,0.0
19714622109291,0.24885355,8.829515,4.402794,0.0,0.0,0.0
19714624488405,0.2440679,8.82473,4.402794,0.0,0.0,0.0
19714626867520,0.22492532,8.843872,4.412365,0.0,0.0,0.0
19714629246634,0.18664017,8.82473,4.4410787,0.0,0.0,0.0
19714631625749,0.2009971,8.82473,4.436293,0.0,0.0,0.0
19714634004864,0.19142582,8.810373,4.412365,0.0,0.0,0.0
19714636383978,0.15792629,8.805588,4.4075794,0.0,0.0,0.0
19714638763093,0.11964113,8.800801,4.4075794,0.0,0.0,0.0
19714641142207,0.124426775,8.815159,4.388437,0.0,0.0,0.0
19714643521322,0.11006984,8.819944,4.3932223,0.0,0.0,0.0
19714645900436,0.124426775,8.815159,4.4075794,0.0,0.0,0.0
19714648279551,0.1052842,8.819944,4.4075794,0.0,0.0,0.0
19714650658666,0.11006984,8.819944,4.398008,0.0,0.0,0.0
19714653037780,0.13399807,8.810373,4.398008,0.0,0.0,0.0
19714655416895,0.17228323,8.805588,4.402794,0.0,0.0,0.0
19714657796009,0.19621146,8.829515,4.398008,0.0,0.0,0.0
19714660175124,0.22013968,8.834301,4.398008,0.0,0.0,0.0
19714662554239,0.23928227,8.829515,4.388437,0.0,0.0,0.0
19714664933353,0.2440679,8.843872,4.402794,0.0,0.0,0.0
19714667312520,0.23928227,8.848659,4.402794,0.0,0.0,0.0
19714669691582,0.2440679,8.853444,4.412365,0.0,0.0,0.0
19714672070749,0.2440679,8.867801,4.421936,0.0,0.0,0.0
19714674449864,0.23449662,8.886943,4.421936,0.0,0.0,0.0
19714676828978,0.19621146,8.9108715,4.426722,0.0,0.0,0.0
19714679208093,0.17706887,8.906086,4.4458647,0.0,0.0,0.0
19714681587207,0.11006984,8.9108715,4.4315076,0.0,0.0,0.0
19714683966322,0.09092726,8.896515,4.426722,0.0,0.0,0.0
19714686345436,0.043070808,8.915657,4.4315076,0.0,0.0,0.0
19714688724551,0.0,8.9013,4.412365,0.0,0.0,0.0
19714691103666,-0.014356935,8.872586,4.412365,0.0,0.0,0.0
19714693482780,-0.043070808,8.863015,4.4075794,0.0,0.0,0.0
19714695861895,-0.05742774,8.853444,4.426722,0.0,0.0,0.0
19714698241009,-0.076570325,8.85823,4.4315076,0.0,0.0,0.0
19714700620124,-0.076570325,8.863015,4.436293,0.0,0.0,0.0
19714702999239,-0.062213387,8.839087,4.4315076,0.0,0.0,0.0
19714705378353,-0.033499517,8.839087,4.4458647,0.0,0.0,0.0
19714707757468,-0.0047856453,8.848659,4.4554358,0.0,0.0,0.0
19714710136582,0.043070808,8.829515,4.4458647,0.0,0.0,0.0
19714712515697,0.0526421,8.786445,4.436293,0.0,0.0,0.0
19714714894811,0.06699903,8.772088,4.4458647,0.0,0.0,0.0
19714717273926,0.11485548,8.772088,4.4554358,0.0,0.0,0.0
19714719653041,0.124426775,8.772088,4.4745784,0.0,0.0,0.0
19714722032155,0.15314065,8.7577305,4.45065,0.0,0.0,0.0
19714724411270,0.16749759,8.7577305,4.4458647,0.0,0.0,0.0
19714726790384,0.17228323,8.7673025,4.4602213,0.0,0.0,0.0
19714729169499,0.15314065,8.748159,4.4602213,0.0,0.0,0.0
19714731548614,0.13399807,8.738588,4.4458647,0.0,0.0,0.0
19714733927728,0.09571291,8.7577305,4.4410787,0.0,0.0,0.0
19714736306843,0.086141616,8.733803,4.4554358,0.0,0.0,0.0
19714738685957,0.08135597,8.738588,4.469793,0.0,0.0,0.0
19714741065020,0.07178468,8.724232,4.4554358,0.0,0.0,0.0
19714743444186,0.05742774,8.719446,4.4745784,0.0,0.0,0.0
19714745823301,0.05742774,8.724232,4.469793,0.0,0.0,0.0
19714748202416,0.062213387,8.729017,4.469793,0.0,0.0,0.0
19714750581530,0.076570325,8.724232,4.4745784,0.0,0.0,0.0
19714752960645,0.11964113,8.733803,4.479364,0.0,0.0,0.0
19714755339759,0.14356937,8.733803,4.479364,0.0,0.0,0.0
19714757718874,0.16271193,8.7577305,4.479364,0.0,0.0,0.0
19714760097989,0.2105684,8.762517,4.4745784,0.0,0.0,0.0
19714762477103,0.22492532,8.796016,4.4745784,0.0,0.0,0.0
19714764856218,0.23449662,8.79123,4.479364,0.0,0.0,0.0
19714767235384,0.24885355,8.772088,4.465007,0.0,0.0,0.0
19714769614499,0.3062813,8.7673025,4.45065,0.0,0.0,0.0
19714771993614,0.30149564,8.786445,4.469793,0.0,0.0,0.0
19714774372728,0.28713873,8.796016,4.4554358,0.0,0.0,0.0
19714776751843,0.30149564,8.796016,4.465007,0.0,0.0,0.0
19714779130957,0.26799613,8.79123,4.4554358,0.0,0.0,0.0
19714781510072,0.2536392,8.79123,4.4458647,0.0,0.0,0.0
19714783889186,0.24885355,8.786445,4.4554358,0.0,0.0,0.0
19714786268301,0.22492532,8.79123,4.465007,0.0,0.0,0.0
19714788647416,0.18664017,8.805588,4.4602213,0.0,0.0,0.0
19714791026530,0.148355,8.843872,4.436293,0.0,0.0,0.0
19714793405593,0.15314065,8.829515,4.4458647,0.0,0.0,0.0
19714795784759,0.148355,8.82473,4.469793,0.0,0.0,0.0
19714798163874,0.16271193,8.810373,4.465007,0.0,0.0,0.0
19714800542989,0.15792629,8.810373,4.4602213,0.0,0.0,0.0
19714802922103,0.19142582,8.810373,4.45065,0.0,0.0,0.0
19714805301218,0.18185452,8.805588,4.426722,0.0,0.0,0.0
19714807680332,0.17228323,8.815159,4.4315076,0.0,0.0,0.0
19714810059447,0.17228323,8.800801,4.4075794,0.0,0.0,0.0
19714812438561,0.16749759,8.79123,4.3740797,0.0,0.0,0.0
19714814817676,0.20578274,8.815159,4.369294,0.0,0.0,0.0
19714817196791,0.22013968,8.839087,4.398008,0.0,0.0,0.0
19714819575905,0.23449662,8.829515,4.388437,0.0,0.0,0.0
19714821955020,0.21535404,8.843872,4.3932223,0.0,0.0,0.0
19714824334134,0.22013968,8.829515,4.3836513,0.0,0.0,0.0
19714826713249,0.20578274,8.853444,4.3932223,0.0,0.0,0.0
19714829092364,0.18664017,8.843872,4.398008,0.0,0.0,0.0
19714831471478,0.17228323,8.82473,4.369294,0.0,0.0,0.0
19714833850593,0.14356937,8.848659,4.3788652,0.0,0.0,0.0
19714836229707,0.11485548,8.85823,4.3788652,0.0,0.0,0.0
19714838608822,0.11485548,8.848659,4.3788652,0.0,0.0,0.0
19714840987936,0.076570325,8.839087,4.354937,0.0,0.0,0.0
19714843367051,0.038285162,8.853444,4.359723,0.0,0.0,0.0
19714845746166,0.023928227,8.867801,4.3788652,0.0,0.0,0.0
19714848125280,0.014356935,8.85823,4.3836513,0.0,0.0,0.0
19714850504395,-0.0047856453,8.85823,4.3788652,0.0,0.0,0.0
19714852883509,-0.023928227,8.863015,4.3788652,0.0,0.0,0.0
19714855262624,-0.033499517,8.872586,4.3740797,0.0,0.0,0.0
19714857641739,0.014356935,8.848659,4.3836513,0.0,0.0,0.0
19714860020905,0.047856454,8.853444,4.402794,0.0,0.0,0.0
19714862400020,0.086141616,8.872586,4.421936,0.0,0.0,0.0
19714864779134,0.09571291,8.85823,4.412365,0.0,0.0,0.0
19714867158249,0.12921242,8.886943,4.4171505,0.0,0.0,0.0
19714869537364,0.17706887,8.863015,4.402794,0.0,0.0,0.0
19714871916478,0.22013968,8.848659,4.4075794,0.0,0.0,0.0
19714874295593,0.23928227,8.848659,4.421936,0.0,0.0,0.0
19714876674707,0.2440679,8.872586,4.436293,0.0,0.0,0.0
19714879053822,0.24885355,8.85823,4.4458647,0.0,0.0,0.0
19714881432936,0.2440679,8.85823,4.4745784,0.0,0.0,0.0
19714883812051,0.25842485,8.867801,4.465007,0.0,0.0,0.0
19714886191166,0.24885355,8.863015,4.45065,0.0,0.0,0.0
19714888570280,0.23449662,8.85823,4.4315076,0.0,0.0,0.0
19714890949395,0.2440679,8.853444,4.426722,0.0,0.0,0.0
19714893328509,0.2536392,8.853444,4.426722,0.0,0.0,0.0
19714895707624,0.2440679,8.85823,4.4458647,0.0,0.0,0.0
19714898086739,0.22971097,8.863015,4.4554358,0.0,0.0,0.0
19714900465853,0.22492532,8.872586,4.45065,0.0,0.0,0.0
19714902844968,0.22013968,8.886943,4.4410787,0.0,0.0,0.0
19714905224082,0.2009971,8.872586,4.436293,0.0,0.0,0.0
19714907603197,0.19142582,8.882157,4.4315076,0.0,0.0,0.0
19714909982311,0.2009971,8.886943,4.4458647,0.0,0.0,0.0
19714912361426,0.19621146,8.9108715,4.4458647,0.0,0.0,0.0
19714914740541,0.22013968,8.886943,4.4602213,0.0,0.0,0.0
19714917119655,0.23449662,8.863015,4.465007,0.0,0.0,0.0
19714919498770,0.22971097,8.843872,4.465007,0.0,0.0,0.0
19714921877884,0.2536392,8.863015,4.4554358,0.0,0.0,0.0
19714924256999,0.27756742,8.85823,4.436293,0.0,0.0,0.0
19714926636114,0.29671,8.848659,4.421936,0.0,0.0,0.0
19714929015228,0.31585258,8.815159,4.436293,0.0,0.0,0.0
19714931394343,0.33020952,8.829515,4.4458647,0.0,0.0,0.0
19714933773457,0.33499518,8.834301,4.4410787,0.0,0.0,0.0
19714936152520,0.32542387,8.776874,4.4602213,0.0,0.0,0.0
19714938531686,0.3397808,8.772088,4.4602213,0.0,0.0,0.0
19714940910853,0.3493521,8.772088,4.479364,0.0,0.0,0.0
19714943289968,0.36370903,8.748159,4.4745784,0.0,0.0,0.0
19714945669082,0.3397808,8.752945,4.4889355,0.0,0.0,0.0
19714948048197,0.3493521,8.772088,4.503292,0.0,0.0,0.0
19714950427311,0.3493521,8.738588,4.493721,0.0,0.0,0.0
19714952806426,0.34456646,8.729017,4.469793,0.0,0.0,0.0
19714955185541,0.32063824,8.700303,4.465007,0.0,0.0,0.0
19714957564655,0.32063824,8.709874,4.469793,0.0,0.0,0.0
19714959943770,0.31106696,8.695518,4.465007,0.0,0.0,0.0
19714962322884,0.2727818,8.71466,4.4602213,0.0,0.0,0.0
19714964701999,0.22971097,8.705089,4.479364,0.0,0.0,0.0
19714967081114,0.2105684,8.709874,4.465007,0.0,0.0,0.0
19714969460228,0.19621146,8.705089,4.4745784,0.0,0.0,0.0
19714971839343,0.16271193,8.748159,4.469793,0.0,0.0,0.0
19714974218457,0.148355,8.743374,4.4410787,0.0,0.0,0.0
19714976597572,0.13878371,8.733803,4.4458647,0.0,0.0,0.0
19714978976686,0.09092726,8.7577305,4.4602213,0.0,0.0,0.0
19714981355801,0.076570325,8.772088,4.479364,0.0,0.0,0.0
19714983734916,0.07178468,8.810373,4.4554358,0.0,0.0,0.0
19714986113978,0.07178468,8.796016,4.4602213,0.0,0.0,0.0
19714988493145,0.05742774,8.810373,4.4554358,0.0,0.0,0.0
19714990872259,0.08135597,8.82473,4.4458647,0.0,0.0,0.0
19714993251374,0.076570325,8.839087,4.45065,0.0,0.0,0.0
19714995630489,0.076570325,8.839087,4.4410787,0.0,0.0,0.0
19714998009603,0.09092726,8.829515,4.4410787,0.0,0.0,0.0
19715000388718,0.09092726,8.848659,4.465007,0.0,0.0,0.0
19715002767832,0.12921242,8.834301,4.4554358,0.0,0.0,0.0
19715005146947,0.13878371,8.82473,4.4458647,0.0,0.0,0.0
19715007526009,0.15314065,8.829515,4.436293,0.0,0.0,0.0
19715009905176,0.148355,8.82473,4.436293,0.0,0.0,0.0
19715012284291,0.15314065,8.82473,4.426722,0.0,0.0,0.0
19715014663405,0.148355,8.819944,4.426722,0.0,0.0,0.0
19715017042520,0.148355,8.82473,4.4171505,0.0,0.0,0.0
19715019421634,0.14356937,8.796016,4.4171505,0.0,0.0,0.0
19715021800749,0.13399807,8.776874,4.4315076,0.0,0.0,0.0
19715024179916,0.11485548,8.786445,4.421936,0.0,0.0,0.0
19715026559030,0.11485548,8.776874,4.4410787,0.0,0.0,0.0
19715028938145,0.11485548,8.762517,4.4410787,0.0,0.0,0.0
19715031317259,0.086141616,8.748159,4.4458647,0.0,0.0,0.0
19715033696374,0.1052842,8.752945,4.4602213,0.0,0.0,0.0
19715036075489,0.10049855,8.748159,4.45065,0.0,0.0,0.0
19715038454603,0.11006984,8.748159,4.4602213,0.0,0.0,0.0
19715040833718,0.11964113,8.748159,4.4602213,0.0,0.0,0.0
19715043212832,0.11006984,8.733803,4.4602213,0.0,0.0,0.0
19715045591947,0.13878371,8.738588,4.469793,0.0,0.0,0.0
19715047971061,0.15792629,8.762517,4.4602213,0.0,0.0,0.0
19715050350176,0.18664017,8.7577305,4.469793,0.0,0.0,0.0
19715052729291,0.20578274,8.752945,4.469793,0.0,0.0,0.0
19715055108405,0.21535404,8.752945,4.4458647,0.0,0.0,0.0
19715057487520,0.2440679,8.772088,4.4554358,0.0,0.0,0.0
19715059866634,0.2440679,8.805588,4.45065,0.0,0.0,0.0
19715062245749,0.24885355,8.796016,4.45065,0.0,0.0,0.0
19715064624864,0.2440679,8.786445,4.469793,0.0,0.0,0.0
19715067003978,0.24885355,8.810373,4.4841495,0.0,0.0,0.0
19715069383093,0.2632105,8.834301,4.479364,0.0,0.0,0.0
19715071762207,0.2536392,8.839087,4.469793,0.0,0.0,0.0
19715074141322,0.28713873,8.843872,4.4889355,0.0,0.0,0.0
19715076520436,0.2632105,8.848659,4.4841495,0.0,0.0,0.0
19715078899551,0.26799613,8.872586,4.4985065,0.0,0.0,0.0
19715081278666,0.2536392,8.877372,4.503292,0.0,0.0,0.0
19715083657780,0.24885355,8.872586,4.493721,0.0,0.0,0.0
19715086036895,0.24885355,8.882157,4.503292,0.0,0.0,0.0
19715088416009,0.23928227,8.867801,4.5128636,0.0,0.0,0.0
19715090795124,0.2440679,8.867801,4.508078,0.0,0.0,0.0
19715093174239,0.25842485,8.853444,4.5128636,0.0,0.0,0.0
19715095553353,0.2632105,8.834301,4.493721,0.0,0.0,0.0
19715097932416,0.2632105,8.819944,4.4889355,0.0,0.0,0.0
19715100311634,0.24885355,8.815159,4.493721,0.0,0.0,0.0
19715102690697,0.25842485,8.839087,4.4745784,0.0,0.0,0.0
19715105069864,0.2727818,8.848659,4.4554358,0.0,0.0,0.0
19715107448978,0.25842485,8.815159,4.45065,0.0,0.0,0.0
19715109828093,0.2536392,8.79123,4.4554358,0.0,0.0,0.0
19715112207207,0.22971097,8.79123,4.4410787,0.0,0.0,0.0
19715114586322,0.2536392,8.796016,4.4602213,0.0,0.0,0.0
19715116965436,0.22492532,8.786445,4.4602213,0.0,0.0,0.0
19715119344551,0.22013968,8.772088,4.4458647,0.0,0.0,0.0
19715121723666,0.18664017,8.772088,4.4315076,0.0,0.0,0.0
19715124102780,0.16271193,8.776874,4.4315076,0.0,0.0,0.0
19715126481895,0.148355,8.781659,4.426722,0.0,0.0,0.0
19715128861009,0.11964113,8.772088,4.4171505,0.0,0.0,0.0
19715131240124,0.08135597,8.7673025,4.426722,0.0,0.0,0.0
19715133619239,0.076570325,8.796016,4.4410787,0.0,0.0,0.0
19715135998353,0.07178468,8.776874,4.421936,0.0,0.0,0.0
19715138377468,0.047856454,8.786445,4.402794,0.0,0.0,0.0
19715140756582,0.0526421,8.819944,4.3836513,0.0,0.0,0.0
19715143135697,0.07178468,8.834301,4.3836513,0.0,0.0,0.0
19715145514811,0.076570325,8.843872,4.3836513,0.0,0.0,0.0
19715147893926,0.076570325,8.848659,4.3788652,0.0,0.0,0.0
19715150273041,0.07178468,8.877372,4.3836513,0.0,0.0,0.0
19715152652155,0.09092726,8.886943,4.3836513,0.0,0.0,0.0
19715155031270,0.10049855,8.882157,4.369294,0.0,0.0,0.0
19715157410384,0.086141616,8.886943,4.359723,0.0,0.0,0.0
19715159789499,0.09571291,8.882157,4.3645086,0.0,0.0,0.0
19715162168614,0.10049855,8.896515,4.3788652,0.0,0.0,0.0
19715164547728,0.11485548,8.915657,4.3788652,0.0,0.0,0.0
19715166926843,0.12921242,8.896515,4.3645086,0.0,0.0,0.0
19715169305957,0.15314065,8.882157,4.354937,0.0,0.0,0.0
19715171685072,0.13878371,8.896515,4.354937,0.0,0.0,0.0
19715174064239,0.13878371,8.915657,4.3645086,0.0,0.0,0.0
19715176443353,0.16271193,8.906086,4.359723,0.0,0.0,0.0
19715178822468,0.18664017,8.9013,4.369294,0.0,0.0,0.0
19715181201582,0.18664017,8.9013,4.388437,0.0,0.0,0.0
19715183580697,0.19621146,8.886943,4.402794,0.0,0.0,0.0
19715185959811,0.21535404,8.891729,4.402794,0.0,0.0,0.0
19715188338926,0.22971097,8.9013,4.388437,0.0,0.0,0.0
19715190718041,0.2536392,8.877372,4.388437,0.0,0.0,0.0
19715193097155,0.26799613,8.867801,4.3932223,0.0,0.0,0.0
19715195476270,0.29671,8.834301,4.388437,0.0,0.0,0.0
19715197855384,0.31585258,8.848659,4.4075794,0.0,0.0,0.0
19715200234499,0.3493521,8.867801,4.4075794,0.0,0.0,0.0
19715202613614,0.37806597,8.829515,4.421936,0.0,0.0,0.0
19715204992728,0.38763726,8.843872,4.4410787,0.0,0.0,0.0
19715207371843,0.37328035,8.853444,4.4602213,0.0,0.0,0.0
19715209750957,0.3924229,8.82473,4.45065,0.0,0.0,0.0
19715212130072,0.38763726,8.819944,4.4410787,0.0,0.0,0.0
19715214509186,0.37806597,8.82473,4.479364,0.0,0.0,0.0
19715216888301,0.36370903,8.810373,4.4745784,0.0,0.0,0.0
19715219267416,0.33499518,8.815159,4.469793,0.0,0.0,0.0
19715221646530,0.34456646,8.800801,4.479364,0.0,0.0,0.0
19715224025593,0.31106696,8.796016,4.479364,0.0,0.0,0.0
19715226404759,0.31585258,8.79123,4.508078,0.0,0.0,0.0
19715228783874,0.29671,8.805588,4.4985065,0.0,0.0,0.0
19715231162989,0.29192436,8.800801,4.503292,0.0,0.0,0.0
19715233542103,0.2727818,8.79123,4.5272202,0.0,0.0,0.0
19715235921218,0.2727818,8.781659,4.5272202,0.0,0.0,0.0
19715238300332,0.24885355,8.7673025,4.517649,0.0,0.0,0.0
19715240679447,0.22971097,8.7673025,4.508078,0.0,0.0,0.0
19715243058561,0.22492532,8.733803,4.517649,0.0,0.0,0.0
19715245437676,0.20578274,8.733803,4.508078,0.0,0.0,0.0
19715247816843,0.18664017,8.733803,4.5128636,0.0,0.0,0.0
19715250195957,0.15792629,8.719446,4.5224347,0.0,0.0,0.0
19715252575072,0.14356937,8.724232,4.5415773,0.0,0.0,0.0
19715254954186,0.13878371,8.743374,4.5272202,0.0,0.0,0.0
19715257333301,0.13878371,8.738588,4.517649,0.0,0.0,0.0
19715259712416,0.09571291,8.733803,4.508078,0.0,0.0,0.0
19715262091530,0.08135597,8.748159,4.503292,0.0,0.0,0.0
19715264470645,0.062213387,8.729017,4.4985065,0.0,0.0,0.0
19715266849759,0.06699903,8.729017,4.4889355,0.0,0.0,0.0
19715269228874,0.08135597,8.733803,4.4985065,0.0,0.0,0.0
19715271607989,0.11964113,8.748159,4.503292,0.0,0.0,0.0
19715273987103,0.09571291,8.7673025,4.503292,0.0,0.0,0.0
19715276366218,0.11006984,8.748159,4.503292,0.0,0.0,0.0
19715278745332,0.13878371,8.738588,4.4985065,0.0,0.0,0.0
19715281124447,0.15314065,8.7577305,4.508078,0.0,0.0,0.0
19715283503561,0.18664017,8.772088,4.4985065,0.0,0.0,0.0
19715285882676,0.18185452,8.7673025,4.479364,0.0,0.0,0.0
19715288261791,0.18664017,8.772088,4.4745784,0.0,0.0,0.0
19715290640905,0.19621146,8.776874,4.4745784,0.0,0.0,0.0
19715293020020,0.19621146,8.776874,4.4602213,0.0,0.0,0.0
19715295399134,0.18185452,8.79123,4.45065,0.0,0.0,0.0
19715297778249,0.15314065,8.79123,4.45065,0.0,0.0,0.0
19715300157364,0.148355,8.800801,4.4554358,0.0,0.0,0.0
19715302536478,0.148355,8.819944,4.426722,0.0,0.0,0.0
19715304915593,0.15792629,8.819944,4.4315076,0.0,0.0,0.0
19715307294707,0.13878371,8.829515,4.426722,0.0,0.0,0.0
19715309673822,0.1052842,8.839087,4.4315076,0.0,0.0,0.0
19715312052936,0.09092726,8.863015,4.4171505,0.0,0.0,0.0
19715314431999,0.09092726,8.848659,4.402794,0.0,0.0,0.0
19715316811218,0.09092726,8.853444,4.4171505,0.0,0.0,0.0
19715319190332,0.09092726,8.85823,4.402794,0.0,0.0,0.0
19715321569447,0.086141616,8.872586,4.402794,0.0,0.0,0.0
19715323948561,0.09571291,8.896515,4.412365,0.0,0.0,0.0
19715326327676,0.11006984,8.9108715,4.4171505,0.0,0.0,0.0
19715328706791,0.13878371,8.891729,4.4075794,0.0,0.0,0.0
19715331085905,0.13399807,8.891729,4.4171505,0.0,0.0,0.0
19715333464968,0.17706887,8.886943,4.402794,0.0,0.0,0.0
19715335844134,0.18185452,8.853444,4.412365,0.0,0.0,0.0
19715338223249,0.21535404,8.863015,4.402794,0.0,0.0,0.0
19715340602364,0.2536392,8.843872,4.388437,0.0,0.0,0.0
19715342981478,0.2632105,8.85823,4.3788652,0.0,0.0,0.0
19715345360593,0.28713873,8.843872,4.402794,0.0,0.0,0.0
19715347739707,0.3062813,8.848659,4.412365,0.0,0.0,0.0
19715350118822,0.31585258,8.834301,4.398008,0.0,0.0,0.0
19715352497936,0.32542387,8.839087,4.402794,0.0,0.0,0.0
19715354877051,0.3397808,8.829515,4.4315076,0.0,0.0,0.0
19715357256166,0.35413775,8.810373,4.421936,0.0,0.0,0.0
19715359635280,0.37328035,8.815159,4.426722,0.0,0.0,0.0
19715362014395,0.38763726,8.800801,4.426722,0.0,0.0,0.0
19715364393509,0.3684947,8.796016,4.4315076,0.0,0.0,0.0
19715366772624,0.36370903,8.829515,4.465007,0.0,0.0,0.0
19715369151739,0.38285163,8.815159,4.4602213,0.0,0.0,0.0
19715371530853,0.39720857,8.805588,4.4554358,0.0,0.0,0.0
19715373909968,0.37806597,8.79123,4.4315076,0.0,0.0,0.0
19715376289082,0.38763726,8.776874,4.436293,0.0,0.0,0.0
19715378668197,0.36370903,8.786445,4.4410787,0.0,0.0,0.0
19715381047311,0.3684947,8.772088,4.4458647,0.0,0.0,0.0
19715383426478,0.36370903,8.781659,4.45065,0.0,0.0,0.0
19715385805541,0.34456646,8.772088,4.4458647,0.0,0.0,0.0
19715388184707,0.3397808,8.776874,4.4745784,0.0,0.0,0.0
19715390563822,0.32063824,8.79123,4.4745784,0.0,0.0,0.0
19715392942936,0.3493521,8.79123,4.469793,0.0,0.0,0.0
19715395322051,0.3684947,8.79123,4.4841495,0.0,0.0,0.0
19715397701166,0.38285163,8.781659,4.4841495,0.0,0.0,0.0
19715400080280,0.37328035,8.800801,4.469793,0.0,0.0,0.0
19715402459395,0.36370903,8.796016,4.4841495,0.0,0.0,0.0
19715404838509,0.3493521,8.79123,4.493721,0.0,0.0,0.0
19715407217572,0.38763726,8.786445,4.503292,0.0,0.0,0.0
19715409596739,0.38285163,8.781659,4.4841495,0.0,0.0,0.0
19715411975853,0.37328035,8.796016,4.4841495,0.0,0.0,0.0
19715414354968,0.3924229,8.819944,4.517649,0.0,0.0,0.0
19715416734082,0.38285163,8.810373,4.517649,0.0,0.0,0.0
19715419113197,0.36370903,8.800801,4.5224347,0.0,0.0,0.0
19715421492311,0.38285163,8.796016,4.508078,0.0,0.0,0.0
19715423871426,0.3924229,8.786445,4.503292,0.0,0.0,0.0
19715426250541,0.39720857,8.800801,4.5224347,0.0,0.0,0.0
19715428629655,0.41635114,8.805588,4.5128636,0.0,0.0,0.0
19715431008770,0.43070808,8.805588,4.5272202,0.0,0.0,0.0
19715433387884,0.45942193,8.781659,4.517649,0.0,0.0,0.0
19715435766999,0.4642076,8.762517,4.5224347,0.0,0.0,0.0
19715438146114,0.46899325,8.762517,4.5272202,0.0,0.0,0.0
19715440525228,0.4977071,8.772088,4.517649,0.0,0.0,0.0
19715442904343,0.4977071,8.786445,4.503292,0.0,0.0,0.0
19715445283457,0.5072784,8.781659,4.493721,0.0,0.0,0.0
19715447662572,0.4977071,8.781659,4.4889355,0.0,0.0,0.0
19715450041739,0.4833502,8.772088,4.4841495,0.0,0.0,0.0
19715452420853,0.45942193,8.800801,4.4889355,0.0,0.0,0.0
19715454799968,0.47377887,8.796016,4.469793,0.0,0.0,0.0
19715457179082,0.4642076,8.819944,4.479364,0.0,0.0,0.0
19715459558197,0.47856453,8.829515,4.4554358,0.0,0.0,0.0
19715461937311,0.45942193,8.839087,4.4458647,0.0,0.0,0.0
19715464316426,0.4546363,8.891729,4.421936,0.0,0.0,0.0
19715466695541,0.45942193,8.877372,4.4171505,0.0,0.0,0.0
19715469074655,0.44506502,8.843872,4.436293,0.0,0.0,0.0
19715471453770,0.43070808,8.82473,4.493721,0.0,0.0,0.0
19715473832884,0.44506502,8.82473,4.5224347,0.0,0.0,0.0
19715476211999,0.41635114,8.781659,4.570291,0.0,0.0,0.0
19715478591114,0.43070808,8.762517,4.5894337,0.0,0.0,0.0
19715480970228,0.42592242,8.743374,4.5894337,0.0,0.0,0.0
19715483349291,0.41156548,8.705089,4.5894337,0.0,0.0,0.0
19715485728457,0.3924229,8.700303,4.570291,0.0,0.0,0.0
19715488107572,0.40677986,8.666803,4.536792,0.0,0.0,0.0
19715490486686,0.38763726,8.690732,4.5415773,0.0,0.0,0.0
19715492865801,0.37806597,8.709874,4.536792,0.0,0.0,0.0
19715495244916,0.38763726,8.705089,4.508078,0.0,0.0,0.0
19715497624030,0.3589234,8.709874,4.479364,0.0,0.0,0.0
19715500003145,0.34456646,8.733803,4.469793,0.0,0.0,0.0
19715502382259,0.36370903,8.738588,4.493721,0.0,0.0,0.0
19715504761374,0.35413775,8.752945,4.508078,0.0,0.0,0.0
19715507140489,0.3493521,8.7577305,4.5272202,0.0,0.0,0.0
19715509519655,0.31585258,8.719446,4.536792,0.0,0.0,0.0
19715511898770,0.29671,8.705089,4.551149,0.0,0.0,0.0
19715514277884,0.29671,8.676374,4.584648,0.0,0.0,0.0
19715516656999,0.28713873,8.685946,4.575077,0.0,0.0,0.0
19715519036114,0.2632105,8.666803,4.5942197,0.0,0.0,0.0
19715521415228,0.26799613,8.662018,4.5798626,0.0,0.0,0.0
19715523794343,0.27756742,8.6141615,4.5798626,0.0,0.0,0.0
19715526173457,0.28235307,8.633304,4.5894337,0.0,0.0,0.0
19715528552572,0.30149564,8.599805,4.5655055,0.0,0.0,0.0
19715530931686,0.33499518,8.6141615,4.5320063,0.0,0.0,0.0
19715533310801,0.31585258,8.642876,4.508078,0.0,0.0,0.0
19715535689916,0.32542387,8.63809,4.4841495,0.0,0.0,0.0
19715538069030,0.34456646,8.666803,4.465007,0.0,0.0,0.0
19715540448145,0.3684947,8.676374,4.45065,0.0,0.0,0.0
19715542827259,0.35413775,8.681161,4.4745784,0.0,0.0,0.0
19715545206374,0.37806597,8.719446,4.4841495,0.0,0.0,0.0
19715547585489,0.36370903,8.743374,4.493721,0.0,0.0,0.0
19715549964603,0.36370903,8.743374,4.5128636,0.0,0.0,0.0
19715552343718,0.38285163,8.748159,4.4985065,0.0,0.0,0.0
19715554722832,0.37328035,8.752945,4.5128636,0.0,0.0,0.0
19715557101947,0.40677986,8.752945,4.5320063,0.0,0.0,0.0
19715559481061,0.41635114,8.762517,4.5559344,0.0,0.0,0.0
19715561860176,0.4354937,8.729017,4.546363,0.0,0.0,0.0
19715564239291,0.44985065,8.762517,4.5128636,0.0,0.0,0.0
19715566618405,0.47856453,8.781659,4.503292,0.0,0.0,0.0
19715568997520,0.49292147,8.786445,4.469793,0.0,0.0,0.0
19715571376634,0.5024927,8.786445,4.4554358,0.0,0.0,0.0
19715573755749,0.51206404,8.772088,4.4315076,0.0,0.0,0.0
19715576134864,0.52163535,8.776874,4.4171505,0.0,0.0,0.0
19715578514030,0.5168497,8.781659,4.421936,0.0,0.0,0.0
19715580893145,0.5072784,8.781659,4.412365,0.0,0.0,0.0
19715583272259,0.47856453,8.810373,4.426722,0.0,0.0,0.0
19715585651374,0.49292147,8.805588,4.436293,0.0,0.0,0.0
19715588030489,0.44985065,8.810373,4.4458647,0.0,0.0,0.0
19715590409603,0.4211368,8.796016,4.4554358,0.0,0.0,0.0
19715592788718,0.4019942,8.786445,4.465007,0.0,0.0,0.0
19715595167832,0.37328035,8.772088,4.479364,0.0,0.0,0.0
19715597546947,0.3397808,8.79123,4.4985065,0.0,0.0,0.0
19715599926061,0.30149564,8.7673025,4.469793,0.0,0.0,0.0
19715602305176,0.2727818,8.7673025,4.469793,0.0,0.0,0.0
19715604684291,0.2632105,8.79123,4.469793,0.0,0.0,0.0
19715607063405,0.22971097,8.786445,4.436293,0.0,0.0,0.0
19715609442520,0.2440679,8.7673025,4.4458647,0.0,0.0,0.0
19715611821582,0.21535404,8.781659,4.45065,0.0,0.0,0.0
19715614200749,0.19621146,8.781659,4.4410787,0.0,0.0,0.0
19715616579864,0.19621146,8.800801,4.4315076,0.0,0.0,0.0
19715618958978,0.18664017,8.805588,4.436293,0.0,0.0,0.0
19715621338093,0.2009971,8.829515,4.436293,0.0,0.0,0.0
19715623717207,0.20578274,8.834301,4.4410787,0.0,0.0,0.0
19715626096322,0.23928227,8.834301,4.45065,0.0,0.0,0.0
19715628475436,0.23928227,8.848659,4.4554358,0.0,0.0,0.0
19715630854551,0.22013968,8.848659,4.4602213,0.0,0.0,0.0
19715633233666,0.22971097,8.82473,4.4602213,0.0,0.0,0.0
19715635612780,0.2632105,8.843872,4.4745784,0.0,0.0,0.0
19715637991947,0.26799613,8.843872,4.465007,0.0,0.0,0.0
19715640371061,0.29671,8.829515,4.479364,0.0,0.0,0.0
19715642750176,0.32063824,8.839087,4.493721,0.0,0.0,0.0
19715645129291,0.33499518,8.853444,4.465007,0.0,0.0,0.0
19715647508405,0.3493521,8.853444,4.479364,0.0,0.0,0.0
19715649887520,0.35413775,8.853444,4.4889355,0.0,0.0,0.0
19715652266634,0.41156548,8.853444,4.4554358,0.0,0.0,0.0
19715654645749,0.42592242,8.848659,4.465007,0.0,0.0,0.0
19715657024864,0.4546363,8.853444,4.479364,0.0,0.0,0.0
19715659403978,0.4833502,8.848659,4.4841495,0.0,0.0,0.0
19715661783093,0.51206404,8.853444,4.479364,0.0,0.0,0.0
19715664162207,0.5407779,8.848659,4.4841495,0.0,0.0,0.0
19715666541322,0.5599205,8.839087,4.4841495,0.0,0.0,0.0
19715668920436,0.6029913,8.79123,4.493721,0.0,0.0,0.0
19715671299551,0.6221339,8.752945,4.4985065,0.0,0.0,0.0
19715673678666,0.6412765,8.7673025,4.4889355,0.0,0.0,0.0
19715676057780,0.6125626,8.7577305,4.4841495,0.0,0.0,0.0
19715678436895,0.61734825,8.743374,4.4889355,0.0,0.0,0.0
19715680816009,0.6125626,8.719446,4.465007,0.0,0.0,0.0
19715683195124,0.5838487,8.709874,4.465007,0.0,0.0,0.0
19715685574239,0.53599226,8.705089,4.4602213,0.0,0.0,0.0
19715687953353,0.526421,8.709874,4.4410787,0.0,0.0,0.0
19715690332468,0.49292147,8.709874,4.4410787,0.0,0.0,0.0
19715692711582,0.42592242,8.729017,4.465007,0.0,0.0,0.0
19715695090749,0.4019942,8.71466,4.469793,0.0,0.0,0.0
19715697469864,0.38285163,8.733803,4.4745784,0.0,0.0,0.0
19715699848978,0.33020952,8.748159,4.4745784,0.0,0.0,0.0
19715702228093,0.33499518,8.752945,4.479364,0.0,0.0,0.0
19715704607207,0.3397808,8.7673025,4.4889355,0.0,0.0,0.0
19715706986322,0.30149564,8.762517,4.493721,0.0,0.0,0.0
19715709365436,0.31106696,8.79123,4.493721,0.0,0.0,0.0
19715711744551,0.33020952,8.810373,4.503292,0.0,0.0,0.0
19715714123614,0.31106696,8.800801,4.493721,0.0,0.0,0.0
19715716502780,0.31585258,8.815159,4.4745784,0.0,0.0,0.0
19715718881895,0.33020952,8.805588,4.4889355,0.0,0.0,0.0
19715721261009,0.3397808,8.815159,4.493721,0.0,0.0,0.0
19715723640124,0.3397808,8.800801,4.479364,0.0,0.0,0.0
19715726019239,0.33020952,8.800801,4.469793,0.0,0.0,0.0
19715728398353,0.33020952,8.800801,4.4602213,0.0,0.0,0.0
19715730777468,0.3397808,8.810373,4.4554358,0.0,0.0,0.0
19715733156582,0.35413775,8.829515,4.4458647,0.0,0.0,0.0
19715735535697,0.3493521,8.834301,4.4458647,0.0,0.0,0.0
19715737914811,0.30149564,8.829515,4.465007,0.0,0.0,0.0
19715740293926,0.29192436,8.829515,4.4745784,0.0,0.0,0.0
19715742673041,0.28713873,8.834301,4.469793,0.0,0.0,0.0
19715745052155,0.28235307,8.829515,4.4841495,0.0,0.0,0.0
19715747431270,0.29192436,8.829515,4.4745784,0.0,0.0,0.0
19715749810384,0.28713873,8.815159,4.4889355,0.0,0.0,0.0
19715752189551,0.29671,8.800801,4.465007,0.0,0.0,0.0
19715754568666,0.32063824,8.796016,4.45065,0.0,0.0,0.0
19715756947780,0.29192436,8.819944,4.45065,0.0,0.0,0.0
19715759326895,0.2632105,8.796016,4.4554358,0.0,0.0,0.0
19715761706009,0.29671,8.776874,4.4554358,0.0,0.0,0.0
19715764085124,0.30149564,8.776874,4.4554358,0.0,0.0,0.0
19715766464239,0.31106696,8.772088,4.4602213,0.0,0.0,0.0
19715768843353,0.32542387,8.7673025,4.4745784,0.0,0.0,0.0
19715771222468,0.34456646,8.7673025,4.4745784,0.0,0.0,0.0
19715773601582,0.33499518,8.738588,4.4554358,0.0,0.0,0.0
19715775980697,0.37328035,8.733803,4.4554358,0.0,0.0,0.0
19715778359811,0.38763726,8.748159,4.4458647,0.0,0.0,0.0
19715780738926,0.38285163,8.743374,4.4554358,0.0,0.0,0.0
19715783118041,0.37328035,8.733803,4.45065,0.0,0.0,0.0
19715785497103,0.38763726,8.748159,4.45065,0.0,0.0,0.0
19715787876270,0.41635114,8.743374,4.4602213,0.0,0.0,0.0
19715790255384,0.42592242,8.748159,4.45065,0.0,0.0,0.0
19715792634499,0.42592242,8.729017,4.436293,0.0,0.0,0.0
19715795013614,0.42592242,8.724232,4.4410787,0.0,0.0,0.0
19715797392728,0.4211368,8.738588,4.4458647,0.0,0.0,0.0
19715799771843,0.41635114,8.733803,4.4554358,0.0,0.0,0.0
19715802150957,0.4211368,8.71466,4.4458647,0.0,0.0,0.0
19715804530072,0.42592242,8.719446,4.436293,0.0,0.0,0.0
19715806909186,0.42592242,8.733803,4.4171505,0.0,0.0,0.0
19715809288353,0.41635114,8.752945,4.4171505,0.0,0.0,0.0
19715811667468,0.42592242,8.733803,4.426722,0.0,0.0,0.0
19715814046582,0.42592242,8.719446,4.4171505,0.0,0.0,0.0
19715816425697,0.40677986,8.733803,4.4315076,0.0,0.0,0.0
19715818804811,0.39720857,8.738588,4.4410787,0.0,0.0,0.0
19715821183926,0.3924229,8.743374,4.426722,0.0,0.0,0.0
19715823563041,0.3924229,8.752945,4.421936,0.0,0.0,0.0
19715825942155,0.33499518,8.748159,4.4458647,0.0,0.0,0.0
19715828321270,0.31106696,8.772088,4.4602213,0.0,0.0,0.0
19715830700384,0.31106696,8.79123,4.45065,0.0,0.0,0.0
19715833079499,0.3062813,8.796016,4.4554358,0.0,0.0,0.0
19715835458614,0.29192436,8.796016,4.4410787,0.0,0.0,0.0
19715837837728,0.3062813,8.796016,4.426722,0.0,0.0,0.0
19715840216843,0.29671,8.796016,4.436293,0.0,0.0,0.0
19715842595957,0.32063824,8.810373,4.4171505,0.0,0.0,0.0
19715844975072,0.31585258,8.810373,4.4171505,0.0,0.0,0.0
19715847354186,0.31585258,8.796016,4.402794,0.0,0.0,0.0
19715849733301,0.3397808,8.79123,4.4075794,0.0,0.0,0.0
19715852112416,0.35413775,8.796016,4.4075794,0.0,0.0,0.0
19715854491530,0.36370903,8.834301,4.3932223,0.0,0.0,0.0
19715856870645,0.37328035,8.848659,4.398008,0.0,0.0,0.0
19715859249759,0.39720857,8.834301,4.3932223,0.0,0.0,0.0
19715861628874,0.41635114,8.843872,4.3788652,0.0,0.0,0.0
19715864007989,0.44506502,8.85823,4.3932223,0.0,0.0,0.0
19715866387155,0.47377887,8.872586,4.3932223,0.0,0.0,0.0
19715868766270,0.46899325,8.896515,4.3740797,0.0,0.0,0.0
19715871145384,0.47377887,8.886943,4.3740797,0.0,0.0,0.0
19715873524499,0.4881358,8.872586,4.369294,0.0,0.0,0.0
19715875903614,0.4833502,8.906086,4.3645086,0.0,0.0,0.0
19715878282728,0.4977071,8.891729,4.354937,0.0,0.0,0.0
19715880661843,0.4977071,8.877372,4.3405805,0.0,0.0,0.0
19715883040957,0.4833502,8.853444,4.3501515,0.0,0.0,0.0
19715885420072,0.45942193,8.853444,4.345366,0.0,0.0,0.0
19715887799186,0.4546363,8.85823,4.3501515,0.0,0.0,0.0
19715890178301,0.4354937,8.843872,4.359723,0.0,0.0,0.0
19715892557416,0.44027936,8.834301,4.3740797,0.0,0.0,0.0
19715894936530,0.41635114,8.839087,4.3788652,0.0,0.0,0.0
19715897315645,0.41635114,8.839087,4.369294,0.0,0.0,0.0
19715899694759,0.41156548,8.829515,4.3645086,0.0,0.0,0.0
19715902073874,0.40677986,8.815159,4.345366,0.0,0.0,0.0
19715904452989,0.36370903,8.829515,4.354937,0.0,0.0,0.0
19715906832103,0.3493521,8.853444,4.369294,0.0,0.0,0.0
19715909211218,0.3493521,8.834301,4.354937,0.0,0.0,0.0
19715911590332,0.34456646,8.829515,4.3740797,0.0,0.0,0.0
19715913969447,0.3397808,8.829515,4.398008,0.0,0.0,0.0
19715916348614,0.3493521,8.800801,4.402794,0.0,0.0,0.0
19715918727728,0.3493521,8.796016,4.388437,0.0,0.0,0.0
19715921106843,0.33020952,8.815159,4.4075794,0.0,0.0,0.0
19715923485957,0.33020952,8.805588,4.3932223,0.0,0.0,0.0
19715925865072,0.35413775,8.805588,4.3932223,0.0,0.0,0.0
19715928244186,0.3493521,8.79123,4.4075794,0.0,0.0,0.0
19715930623301,0.33020952,8.776874,4.421936,0.0,0.0,0.0
19715933002416,0.33020952,8.762517,4.4171505,0.0,0.0,0.0
19715935381530,0.32542387,8.762517,4.426722,0.0,0.0,0.0
19715937760645,0.32542387,8.752945,4.421936,0.0,0.0,0.0
19715940139759,0.35413775,8.7577305,4.436293,0.0,0.0,0.0
19715942518874,0.3397808,8.762517,4.4458647,0.0,0.0,0.0
19715944897989,0.31106696,8.7673025,4.426722,0.0,0.0,0.0
19715947277103,0.29192436,8.762517,4.421936,0.0,0.0,0.0
19715949656218,0.28235307,8.748159,4.426722,0.0,0.0,0.0
19715952035280,0.26799613,8.79123,4.4602213,0.0,0.0,0.0
19715954414447,0.23449662,8.810373,4.469793,0.0,0.0,0.0
19715956793561,0.21535404,8.815159,4.4745784,0.0,0.0,0.0
19715959172676,0.22013968,8.829515,4.493721,0.0,0.0,0.0
19715961551791,0.22971097,8.863015,4.508078,0.0,0.0,0.0
19715963930905,0.20578274,8.867801,4.5128636,0.0,0.0,0.0
19715966310020,0.19142582,8.85823,4.5415773,0.0,0.0,0.0
19715968689186,0.21535404,8.839087,4.536792,0.0,0.0,0.0
19715971068301,0.22492532,8.853444,4.546363,0.0,0.0,0.0
19715973447416,0.25842485,8.853444,4.5415773,0.0,0.0,0.0
19715975826530,0.27756742,8.848659,4.536792,0.0,0.0,0.0
19715978205645,0.31106696,8.853444,4.546363,0.0,0.0,0.0
19715980584759,0.32063824,8.853444,4.5559344,0.0,0.0,0.0
19715982963874,0.3589234,8.843872,4.546363,0.0,0.0,0.0
19715985342989,0.38763726,8.810373,4.56072,0.0,0.0,0.0
19715987722103,0.40677986,8.815159,4.551149,0.0,0.0,0.0
19715990101218,0.42592242,8.829515,4.5415773,0.0,0.0,0.0
19715992480332,0.44506502,8.829515,4.536792,0.0,0.0,0.0
19715994859447,0.44027936,8.82473,4.5272202,0.0,0.0,0.0
19715997238561,0.45942193,8.819944,4.5224347,0.0,0.0,0.0
19715999617676,0.47377887,8.829515,4.5224347,0.0,0.0,0.0
19716001996739,0.45942193,8.805588,4.546363,0.0,0.0,0.0
19716004375905,0.44027936,8.810373,4.536792,0.0,0.0,0.0
19716006755020,0.41156548,8.79123,4.546363,0.0,0.0,0.0
19716009134134,0.3924229,8.800801,4.5415773,0.0,0.0,0.0
19716011513249,0.35413775,8.772088,4.517649,0.0,0.0,0.0
19716013892364,0.3493521,8.7673025,4.503292,0.0,0.0,0.0
19716016271478,0.31106696,8.7673025,4.536792,0.0,0.0,0.0
19716018650645,0.32063824,8.762517,4.5128636,0.0,0.0,0.0
19716021029759,0.2536392,8.776874,4.508078,0.0,0.0,0.0
19716023408874,0.23928227,8.781659,4.5128636,0.0,0.0,0.0
19716025787989,0.20578274,8.800801,4.508078,0.0,0.0,0.0
19716028167103,0.20578274,8.800801,4.4985065,0.0,0.0,0.0
19716030546218,0.2105684,8.800801,4.4889355,0.0,0.0,0.0
19716032925332,0.20578274,8.829515,4.517649,0.0,0.0,0.0
19716035304447,0.2105684,8.815159,4.5272202,0.0,0.0,0.0
19716037683561,0.2009971,8.79123,4.503292,0.0,0.0,0.0
19716040062676,0.22492532,8.800801,4.508078,0.0,0.0,0.0
19716042441791,0.27756742,8.815159,4.4841495,0.0,0.0,0.0
19716044820905,0.28713873,8.79123,4.465007,0.0,0.0,0.0
19716047200020,0.31106696,8.82473,4.469793,0.0,0.0,0.0
19716049579134,0.3493521,8.819944,4.4554358,0.0,0.0,0.0
19716051958249,0.33499518,8.815159,4.45065,0.0,0.0,0.0
19716054337364,0.33499518,8.796016,4.45065,0.0,0.0,0.0
19716056716426,0.3589234,8.796016,4.4315076,0.0,0.0,0.0
19716059095593,0.3684947,8.800801,4.421936,0.0,0.0,0.0
19716061474707,0.38763726,8.786445,4.4171505,0.0,0.0,0.0
19716063853822,0.38763726,8.786445,4.398008,0.0,0.0,0.0
19716066232936,0.3589234,8.79123,4.402794,0.0,0.0,0.0
19716068612051,0.3493521,8.800801,4.3836513,0.0,0.0,0.0
19716070991166,0.33020952,8.776874,4.3836513,0.0,0.0,0.0
19716073370280,0.31585258,8.786445,4.359723,0.0,0.0,0.0
19716075749447,0.29192436,8.805588,4.3501515,0.0,0.0,0.0
19716078128561,0.28713873,8.79123,4.3405805,0.0,0.0,0.0
19716080507676,0.26799613,8.800801,4.3405805,0.0,0.0,0.0
19716082886791,0.23928227,8.776874,4.359723,0.0,0.0,0.0
19716085265905,0.22492532,8.79123,4.359723,0.0,0.0,0.0
19716087645020,0.2105684,8.79123,4.345366,0.0,0.0,0.0
19716090024134,0.19142582,8.786445,4.3357944,0.0,0.0,0.0
19716092403249,0.18664017,8.829515,4.3262234,0.0,0.0,0.0
19716094782364,0.18664017,8.819944,4.3405805,0.0,0.0,0.0
19716097161478,0.18185452,8.839087,4.3501515,0.0,0.0,0.0
19716099540593,0.2009971,8.848659,4.3262234,0.0,0.0,0.0
19716101919707,0.18664017,8.853444,4.3262234,0.0,0.0,0.0
19716104298822,0.18664017,8.872586,4.3070807,0.0,0.0,0.0
19716106677936,0.18664017,8.896515,4.321438,0.0,0.0,0.0
19716109057051,0.15792629,8.896515,4.2975097,0.0,0.0,0.0
19716111436166,0.15314065,8.896515,4.3070807,0.0,0.0,0.0
19716113815280,0.15792629,8.9108715,4.316652,0.0,0.0,0.0
19716116194395,0.16271193,8.9108715,4.302295,0.0,0.0,0.0
19716118573509,0.18185452,8.906086,4.3070807,0.0,0.0,0.0
19716120952624,0.19621146,8.9108715,4.302295,0.0,0.0,0.0
19716123331739,0.22492532,8.930014,4.3070807,0.0,0.0,0.0
19716125710905,0.2727818,8.9013,4.3070807,0.0,0.0,0.0
19716128090020,0.28713873,8.891729,4.321438,0.0,0.0,0.0
19716130469134,0.29192436,8.9013,4.316652,0.0,0.0,0.0
19716132848249,0.30149564,8.906086,4.3118663,0.0,0.0,0.0
19716135227364,0.32063824,8.9013,4.287938,0.0,0.0,0.0
19716137606478,0.3589234,8.872586,4.2975097,0.0,0.0,0.0
19716139985593,0.38763726,8.896515,4.2975097,0.0,0.0,0.0
19716142364707,0.3684947,8.9108715,4.2975097,0.0,0.0,0.0
19716144743822,0.37806597,8.896515,4.331009,0.0,0.0,0.0
19716147122936,0.38763726,8.886943,4.3405805,0.0,0.0,0.0
19716149502051,0.38763726,8.920443,4.3405805,0.0,0.0,0.0
