t_ns,ax,ay,az,accuracy
21223391342606,-0.71306115,8.958728,4.240082,3
21223393721669,-0.5982057,8.939586,4.240082,3
21223396100784,-0.4881358,8.930014,4.220939,3
21223398479898,-0.38285163,8.9348,4.1874394,3
21223400858961,-0.3684947,8.925228,4.15394,3
21223403238075,-0.3924229,8.9013,4.091727,3
21223405617138,-0.46899325,8.920443,4.0534415,3
21223407996252,-0.60777694,8.915657,4.0390844,3
21223410375367,-0.7609176,8.906086,4.0438704,3
21223412754429,-0.91405827,8.906086,4.0965123,3
21223415133544,-1.0767702,8.9108715,4.115655,3
21223417512659,-1.2059826,8.9013,4.1108694,3
21223419891721,-1.3304094,8.9013,4.115655,3
21223422270836,-1.4404793,8.896515,4.125226,3
21223424649898,-1.5074782,8.9108715,4.168297,3
21223427029013,-1.5314065,8.906086,4.220939,3
21223429408127,-1.5026926,8.906086,4.249653,3
21223431787190,-1.4739788,8.9013,4.302295,3
21223434166252,-1.416551,8.891729,4.3357944,3
21223436545419,-1.3160524,8.896515,4.345366,3
21223438924481,-1.2011969,8.925228,4.3357944,3
21223441303596,-1.0959128,8.953942,4.3118663,3
21223443682711,-0.94277215,8.963513,4.3262234,3
21223446061773,-0.7704889,8.9826565,4.3118663,3
21223448440888,-0.6364908,8.973084,4.3501515,3
21223450819950,-0.5024927,8.944371,4.3501515,3
21223453199065,-0.4019942,8.9013,4.354937,3
21223455578179,-0.3397808,8.877372,4.354937,3
21223457957242,-0.31585258,8.867801,4.354937,3
21223460336356,-0.32542387,8.829515,4.3405805,3
21223462715419,-0.3589234,8.79123,4.316652,3
21223465094534,-0.44506502,8.796016,4.302295,3
21223467473648,-0.55034924,8.7673025,4.278367,3
21223469852763,-0.70348984,8.762517,4.2448673,3
21223472231825,-0.8279166,8.762517,4.2017965,3
21223474610940,-0.94755775,8.800801,4.168297,3
21223476990002,-1.0576276,8.810373,4.1443686,3
21223479369117,-1.1389836,8.848659,4.1108694,3
21223481748231,-1.1964114,8.863015,4.091727,3
21223484127294,-1.2346965,8.896515,4.082155,3
21223486506409,-1.2203395,8.925228,4.072584,3
21223488885523,-1.1964114,8.930014,4.063013,3
21223491264586,-1.1485549,8.977871,4.0677986,3
21223493643700,-1.0767702,8.9826565,4.091727,3
21223496022763,-1.0241281,8.987442,4.125226,3
21223498401877,-0.9379865,8.987442,4.1347976,3
21223500780992,-0.86141616,9.01137,4.15394,3
21223503160054,-0.7752745,9.025727,4.1491547,3
21223505539169,-0.6891329,9.020942,4.173083,3
21223507918284,-0.61734825,9.020942,4.1635113,3
21223510297346,-0.5886344,9.030513,4.139583,3
21223512676461,-0.5599205,9.016156,4.1347976,3
21223515055575,-0.53599226,9.016156,4.1108694,3
21223517434638,-0.5455636,9.006584,4.1108694,3
21223519813752,-0.55034924,8.9826565,4.1204405,3
21223522192815,-0.55513483,8.953942,4.130012,3
21223524571929,-0.61734825,8.939586,4.1443686,3
21223526951044,-0.66041905,8.906086,4.173083,3
21223529330106,-0.7465607,8.872586,4.1874394,3
21223531709221,-0.80877405,8.85823,4.211368,3
21223534088336,-0.8853444,8.834301,4.2257247,3
21223536467398,-0.9619147,8.819944,4.211368,3
21223538846513,-1.0241281,8.815159,4.23051,3
21223541225575,-1.0624132,8.815159,4.240082,3
21223543604690,-1.105484,8.810373,4.26401,3
21223545983804,-1.1389836,8.82473,4.2687955,3
21223548362867,-1.1485549,8.805588,4.26401,3
21223550741981,-1.134198,8.800801,4.26401,3
21223553121096,-1.0624132,8.796016,4.273581,3
21223555500159,-0.9762716,8.7673025,4.240082,3
21223557879273,-0.8805587,8.796016,4.220939,3
21223560258388,-0.7896315,8.810373,4.2257247,3
21223562637450,-0.66999036,8.82473,4.2257247,3
21223565016565,-0.6125626,8.819944,4.220939,3
21223567395627,-0.5694918,8.85823,4.211368,3
21223569774742,-0.55513483,8.877372,4.206582,3
21223572153856,-0.56470615,8.920443,4.197011,3
21223574532919,-0.60777694,8.958728,4.1874394,3
21223576912034,-0.6795616,8.968299,4.2017965,3
21223579291096,-0.81834537,9.006584,4.211368,3
21223581670211,-0.93320084,9.049655,4.2161536,3
21223584049325,-1.0624132,9.0544405,4.2161536,3
21223586428388,-1.1581261,9.059227,4.197011,3
21223588807502,-1.2442678,9.049655,4.254439,3
21223591186617,-1.3016955,9.035298,4.2448673,3
21223593565679,-1.3112668,9.040084,4.254439,3
21223595944794,-1.3064811,9.01137,4.278367,3
21223598323909,-1.2299109,8.953942,4.254439,3
21223600702971,-1.1294123,8.925228,4.254439,3
21223603082086,-1.0049855,8.891729,4.249653,3
21223605461200,-0.8422736,8.819944,4.211368,3
21223607840263,-0.6795616,8.776874,4.2017965,3
21223610219325,-0.5407779,8.748159,4.15394,3
21223612598440,-0.41635114,8.733803,4.1347976,3
21223614977554,-0.32542387,8.719446,4.0869412,3
21223617356669,-0.27756742,8.729017,4.058227,3
21223619735731,-0.28235307,8.738588,4.063013,3
21223622114846,-0.33499518,8.743374,4.063013,3
21223624493961,-0.43070808,8.781659,4.082155,3
21223626873023,-0.5599205,8.796016,4.0869412,3
21223629252138,-0.74177504,8.82473,4.091727,3
21223631631252,-0.91884387,8.863015,4.130012,3
21223634010315,-1.0767702,8.896515,4.168297,3
21223636389429,-1.2059826,8.920443,4.2161536,3
21223638768492,-1.3112668,8.939586,4.2448673,3
21223641147606,-1.3974084,8.949157,4.278367,3
21223643526721,-1.416551,8.968299,4.3118663,3
21223645905784,-1.4117653,8.992228,4.3262234,3
21223648284898,-1.3495519,8.992228,4.316652,3
21223650664013,-1.2299109,8.992228,4.2975097,3
21223653043075,-1.1006985,9.001799,4.2592244,3
21223655422190,-0.93320084,9.016156,4.249653,3
21223657801304,-0.7369894,9.006584,4.2161536,3
21223660180367,-0.57427746,8.973084,4.206582,3
21223662559481,-0.42592242,8.925228,4.1922255,3
21223664938544,-0.29671,8.9108715,4.1587257,3
21223667317659,-0.2105684,8.9013,4.15394,3
21223669696773,-0.18185452,8.872586,4.1347976,3
21223672075836,-0.23449662,8.853444,4.1204405,3
21223674454950,-0.32542387,8.834301,4.1443686,3
21223676834065,-0.4881358,8.839087,4.15394,3
21223679213127,-0.67477596,8.805588,4.168297,3
21223681592242,-0.83748794,8.82473,4.1635113,3
21223683971356,-0.98584294,8.834301,4.1874394,3
21223686350419,-1.134198,8.848659,4.211368,3
21223688729534,-1.2442678,8.863015,4.240082,3
21223691108596,-1.3064811,8.867801,4.26401,3
21223693487711,-1.3399807,8.882157,4.273581,3
21223695866825,-1.2921243,8.906086,4.287938,3
21223698245888,-1.2586247,8.925228,4.2831526,3
21223700625002,-1.134198,8.915657,4.287938,3
21223703004117,-0.98584294,8.920443,4.287938,3
21223705383179,-0.83748794,8.906086,4.2927237,3
21223707762294,-0.6891329,8.9013,4.287938,3
21223710141304,-0.5407779,8.9108715,4.273581,3
21223712520471,-0.4354937,8.925228,4.278367,3
21223714899586,-0.37328035,8.920443,4.287938,3
21223717278648,-0.3684947,8.920443,4.278367,3
21223719657763,-0.37328035,8.920443,4.273581,3
21223722036877,-0.43070808,8.920443,4.254439,3
21223724415940,-0.5407779,8.939586,4.2352962,3
21223726795054,-0.6652047,8.930014,4.2352962,3
21223729174169,-0.79441714,8.930014,4.240082,3
21223731553231,-0.91884387,8.930014,4.249653,3
21223733932346,-1.0336994,8.9108715,4.273581,3
21223736311409,-1.1006985,8.891729,4.278367,3
21223738690523,-1.1437693,8.882157,4.2975097,3
21223741069638,-1.1389836,8.872586,4.2831526,3
21223743448752,-1.0815558,8.843872,4.278367,3
21223745827815,-0.9954142,8.82473,4.26401,3
21223748206929,-0.91884387,8.805588,4.2448673,3
21223750585992,-0.7800602,8.796016,4.206582,3
21223752965106,-0.66041905,8.786445,4.168297,3
21223755344221,-0.5455636,8.786445,4.1204405,3
21223757723284,-0.45942193,8.79123,4.0773697,3
21223760102398,-0.4211368,8.800801,4.0534415,3
21223762481461,-0.3924229,8.79123,4.063013,3
21223764860523,-0.4019942,8.848659,4.082155,3
21223767239690,-0.44985065,8.867801,4.0869412,3
21223769618752,-0.5407779,8.906086,4.058227,3
21223771997867,-0.66041905,8.944371,4.0295134,3
21223774376981,-0.7848458,8.949157,4.0151563,3
21223776756044,-0.8997013,9.001799,4.0295134,3
21223779135159,-0.9810573,9.035298,4.0869412,3
21223781514273,-1.105484,9.040084,4.1587257,3
21223783893336,-1.1533405,9.049655,4.23051,3
21223786272450,-1.1629118,9.044869,4.254439,3
21223788651565,-1.1437693,9.040084,4.2687955,3
21223791030627,-1.0719845,9.001799,4.273581,3
21223793409742,-1.0049855,8.992228,4.2831526,3
21223795788856,-0.8997013,8.997013,4.2592244,3
21223798167919,-0.7800602,8.944371,4.249653,3
21223800547034,-0.64606214,8.915657,4.211368,3
21223802926096,-0.53599226,8.896515,4.211368,3
21223805305211,-0.44506502,8.906086,4.1874394,3
21223807684325,-0.37806597,8.882157,4.182654,3
21223810063388,-0.32542387,8.85823,4.182654,3
21223812442502,-0.31106696,8.810373,4.197011,3
21223814821565,-0.3684947,8.810373,4.1874394,3
21223817200679,-0.4354937,8.800801,4.1874394,3
21223819579794,-0.5455636,8.810373,4.182654,3
21223821958856,-0.64606214,8.815159,4.182654,3
21223824337971,-0.7752745,8.82473,4.1922255,3
21223826717086,-0.8853444,8.800801,4.2352962,3
21223829096148,-0.9810573,8.82473,4.287938,3
21223831475263,-1.0193424,8.85823,4.3501515,3
21223833854377,-1.0480564,8.877372,4.369294,3
21223836233440,-1.052842,8.872586,4.3788652,3
21223838612554,-0.9954142,8.882157,4.3740797,3
21223840991669,-0.93320084,8.886943,4.369294,3
21223843370731,-0.82313097,8.872586,4.3645086,3
21223845749846,-0.6987042,8.872586,4.345366,3
21223848128909,-0.56470615,8.863015,4.3357944,3
21223850508023,-0.44027936,8.839087,4.3118663,3
21223852887138,-0.35413775,8.848659,4.287938,3
21223855266200,-0.29671,8.867801,4.2257247,3
21223857645315,-0.3062813,8.863015,4.182654,3
21223860024429,-0.3397808,8.85823,4.1443686,3
21223862403440,-0.39720857,8.877372,4.1108694,3
21223864782606,-0.4977071,8.896515,4.106084,3
21223867161721,-0.63170516,8.9348,4.072584,3
21223869540784,-0.76570326,8.963513,4.048656,3
21223871919898,-0.8853444,8.973084,4.0390844,3
21223874298961,-1.0193424,8.997013,4.005585,3
21223876678075,-1.1294123,9.020942,4.0007997,3
21223879057190,-1.1772687,9.040084,4.019942,3
21223881436252,-1.1964114,9.035298,4.058227,3
21223883815367,-1.1581261,9.030513,4.082155,3
21223886194481,-1.0863415,9.020942,4.1347976,3
21223888573544,-0.9810573,9.006584,4.1778684,3
21223890952606,-0.8327023,8.987442,4.211368,3
21223893331773,-0.67477596,8.968299,4.23051,3
21223895710836,-0.5024927,8.939586,4.23051,3
21223898089950,-0.3493521,8.915657,4.23051,3
21223900469013,-0.2105684,8.867801,4.2448673,3
21223902848127,-0.124426775,8.819944,4.249653,3
21223905227242,-0.038285162,8.79123,4.2352962,3
21223907606304,0.0047856453,8.776874,4.211368,3
21223909985419,-0.019142581,8.786445,4.206582,3
21223912364534,-0.076570325,8.762517,4.1874394,3
21223914743596,-0.15792629,8.762517,4.1874394,3
21223917122711,-0.2727818,8.79123,4.211368,3
21223919501825,-0.41635114,8.796016,4.2017965,3
21223921880836,-0.526421,8.796016,4.240082,3
21223924260002,-0.6364908,8.815159,4.2592244,3
21223926639117,-0.76570326,8.815159,4.2975097,3
21223929018179,-0.8757731,8.85823,4.302295,3
21223931397294,-0.95712906,8.872586,4.3357944,3
21223933776356,-0.95712906,8.891729,4.3740797,3
21223936155471,-0.9284152,8.891729,4.4075794,3
21223938534586,-0.8997013,8.920443,4.4410787,3
21223940913648,-0.86141616,8.896515,4.436293,3
21223943292763,-0.76570326,8.906086,4.402794,3
21223945671877,-0.6556334,8.9108715,4.354937,3
21223948050940,-0.5312066,8.920443,4.3357944,3
21223950430054,-0.4019942,8.9013,4.302295,3
21223952809117,-0.30149564,8.925228,4.249653,3
21223955188231,-0.23449662,8.939586,4.1874394,3
21223957567346,-0.18185452,8.9348,4.1443686,3
21223959946461,-0.12921242,8.906086,4.106084,3
21223962325523,-0.13399807,8.930014,4.063013,3
21223964704638,-0.15792629,8.930014,4.048656,3
21223967083700,-0.21535404,8.9108715,4.019942,3
21223969462815,-0.3493521,8.9108715,3.9768713,3
21223971841929,-0.4881358,8.939586,3.9673,3
21223974220992,-0.6269195,8.958728,3.9433718,3
21223976600106,-0.7609176,8.9348,3.9242291,3
21223978979221,-0.8853444,8.915657,3.9098723,3
21223981358284,-0.971486,8.949157,3.938586,3
21223983737398,-1.0432707,8.944371,3.9481573,3
21223986116513,-1.0815558,8.958728,3.9481573,3
21223988495575,-1.134198,8.9826565,3.9768713,3
21223990874690,-1.105484,8.987442,3.991228,3
21223993253700,-1.038485,8.977871,4.0103707,3
21223995632867,-0.9523434,8.963513,4.0677986,3
21223998011981,-0.8470592,8.953942,4.115655,3
21224000391044,-0.74177504,8.953942,4.168297,3
21224002770159,-0.6125626,8.953942,4.2017965,3
21224005149273,-0.5072784,8.944371,4.249653,3
21224007528336,-0.4211368,8.9348,4.2831526,3
21224009907450,-0.35413775,8.930014,4.3357944,3
21224012286513,-0.31585258,8.906086,4.369294,3
21224014665627,-0.29192436,8.867801,4.412365,3
21224017044742,-0.32063824,8.853444,4.4602213,3
21224019423804,-0.35413775,8.829515,4.4889355,3
21224021802919,-0.44027936,8.834301,4.479364,3
21224024182034,-0.52163535,8.810373,4.493721,3
21224026561096,-0.57427746,8.781659,4.4985065,3
21224028940211,-0.6125626,8.7673025,4.517649,3
21224031319325,-0.65084773,8.733803,4.5272202,3
21224033698336,-0.65084773,8.738588,4.5272202,3
21224036077502,-0.6269195,8.709874,4.5415773,3
21224038456617,-0.57906306,8.733803,4.546363,3
21224040835679,-0.5312066,8.719446,4.5415773,3
21224043214794,-0.44985065,8.709874,4.4841495,3
21224045593856,-0.37328035,8.719446,4.4841495,3
21224047972971,-0.3062813,8.733803,4.4315076,3
21224050352086,-0.2632105,8.762517,4.398008,3
21224052731148,-0.2632105,8.733803,4.345366,3
21224055110263,-0.3062813,8.748159,4.3070807,3
21224057489377,-0.3684947,8.772088,4.240082,3
21224059868440,-0.44506502,8.810373,4.1587257,3
21224062247554,-0.5168497,8.843872,4.0869412,3
21224064626669,-0.6125626,8.886943,3.9960139,3
21224067005731,-0.6843473,8.949157,3.9050865,3
21224069384846,-0.7848458,9.006584,3.8141594,3
21224071763909,-0.8757731,9.044869,3.7663028,3
21224074143023,-0.93320084,9.107083,3.7280176,3
21224076522138,-0.9762716,9.145369,3.7088752,3
21224078901200,-0.9954142,9.188439,3.7280176,3
21224081280315,-0.9954142,9.212367,3.751946,3
21224083659429,-0.98584294,9.188439,3.8237305,3
21224086038492,-0.9667004,9.212367,3.9146578,3
21224088417606,-0.9092726,9.169296,3.991228,3
21224090796669,-0.86141616,9.126225,4.0773697,3
21224093175784,-0.82313097,9.12144,4.139583,3
21224095554898,-0.74177504,9.073584,4.1874394,3
21224097933909,-0.6843473,9.049655,4.2017965,3
21224100313075,-0.6269195,9.025727,4.254439,3
21224102692190,-0.57427746,8.977871,4.3070807,3
21224105071252,-0.5072784,8.9108715,4.345366,3
21224107450367,-0.44506502,8.872586,4.4315076,3
21224109829481,-0.38285163,8.79123,4.4841495,3
21224112208544,-0.34456646,8.719446,4.517649,3
21224114587659,-0.30149564,8.63809,4.508078,3
21224116966773,-0.27756742,8.590233,4.503292,3
21224119345836,-0.3062813,8.56152,4.5128636,3
21224121724950,-0.32063824,8.52802,4.493721,3
21224124104065,-0.3924229,8.537591,4.4985065,3
21224126483127,-0.46899325,8.52802,4.4889355,3
21224128862242,-0.55034924,8.56152,4.465007,3
21224131241304,-0.6795616,8.609376,4.426722,3
21224133620419,-0.8279166,8.63809,4.3740797,3
21224135999534,-0.9523434,8.671589,4.2687955,3
21224138378596,-1.0959128,8.729017,4.1587257,3
21224140757711,-1.2155539,8.79123,4.058227,3
21224143136825,-1.3064811,8.848659,3.9816568,3
21224145515888,-1.402194,8.925228,3.9290147,3
21224147895002,-1.4356936,9.01137,3.8907297,3
21224150274117,-1.4691931,9.073584,3.9050865,3
21224152653179,-1.4979069,9.12144,3.9098723,3
21224155032294,-1.4596218,9.212367,3.9050865,3
21224157411409,-1.416551,9.19801,3.8620157,3
21224159790471,-1.3208381,9.2075815,3.8476589,3
21224162169586,-1.2059826,9.236296,3.8572302,3
21224164548648,-1.105484,9.23151,3.885944,3
21224166927763,-1.0145568,9.2075815,3.9577286,3
21224169306877,-0.9092726,9.174082,4.0438704,3
21224171685940,-0.8327023,9.140582,4.106084,3
21224174065054,-0.8039884,9.102298,4.173083,3
21224176444169,-0.7752745,9.049655,4.2448673,3
21224178823231,-0.79441714,8.992228,4.26401,3
21224181202346,-0.83748794,8.949157,4.273581,3
21224183581461,-0.8805587,8.896515,4.2975097,3
21224185960523,-0.94755775,8.843872,4.3118663,3
21224188339638,-0.9619147,8.786445,4.354937,3
21224190718648,-1.0336994,8.681161,4.398008,3
21224193097815,-1.0767702,8.618947,4.45065,3
21224195476929,-1.1485549,8.551949,4.4889355,3
21224197855992,-1.1916257,8.508878,4.508078,3
21224200235106,-1.2873386,8.456235,4.5224347,3
21224202614221,-1.3782659,8.484949,4.584648,3
21224204993284,-1.4596218,8.4705925,4.627719,3
21224207372398,-1.4931214,8.475378,4.6612186,3
21224209751513,-1.5074782,8.465807,4.6612186,3
21224212130575,-1.4548361,8.49452,4.6085763,3
21224214509690,-1.416551,8.571091,4.5894337,3
21224216888804,-1.3591232,8.618947,4.6037908,3
21224219267867,-1.2394822,8.695518,4.6325045,3
21224221646981,-1.1485549,8.762517,4.6372905,3
21224224026044,-1.1102697,8.9013,4.5894337,3
21224226405159,-0.9954142,8.891729,4.3357944,3
21224228784273,-0.9619147,9.19801,4.3118663,3
21224231163336,-0.9523434,9.150154,4.0773697,3
21224233542450,-0.9379865,9.312865,4.0965123,3
21224235921565,-0.9810573,9.30808,4.0007997,3
21224238300627,-1.0432707,9.355937,3.9720855,3
21224240679742,-1.1820544,9.332008,3.818945,3
21224243058804,-1.3208381,9.389436,3.7136607,3
21224245437919,-1.3734802,9.432507,3.656233,3
21224247817034,-1.3447664,9.3511505,3.5940197,3
21224250196096,-1.3208381,9.327223,3.5892339,3
21224252575211,-1.2203395,9.327223,3.5413775,3
21224254954325,-1.1820544,9.2793665,3.522235,3
21224257333388,-1.1676974,9.178867,3.4408789,3
21224259712502,-1.1820544,9.08794,3.3786657,3
21224262091617,-1.2586247,8.997013,3.3690944,3
21224264470679,-1.3351951,8.848659,3.4408789,3
21224266849794,-1.4356936,8.690732,3.5700915,3
21224269228909,-1.5218352,8.599805,3.7567315,3
21224271607971,-1.579263,8.551949,3.9194436,3
21224273987086,-1.6271194,8.523234,3.9864426,3
21224276366200,-1.727618,8.551949,4.0007997,3
21224278745263,-1.7180467,8.599805,3.9242291,3
21224281124377,-1.713261,8.671589,3.885944,3
21224283503440,-1.713261,8.690732,3.952943,3
21224285882554,-1.6654046,8.762517,4.1635113,3
21224288261669,-1.6031911,8.752945,4.398008,3
21224290640731,-1.5553347,8.71466,4.6325045,3
21224293019846,-1.6127625,8.733803,4.914858,3
21224295398961,-1.6606189,8.681161,5.0344987,3
21224297778023,-1.698904,8.671589,5.029713,3
21224300157138,-1.8185452,8.752945,5.0919266,3
21224302536252,-1.9381863,8.748159,5.1014977,3
21224304915315,-2.053042,8.7673025,5.111069,3
21224307294429,-2.1631117,8.886943,5.1158547,3
21224309673544,-2.210968,8.973084,5.058427,3
21224312052606,-2.2731814,9.006584,4.9435716,3
21224314431721,-2.2875385,9.0544405,4.800002,3
21224316810784,-2.2779672,9.092726,4.651647,3
21224319189898,-2.239682,9.0544405,4.503292,3
21224321569013,-2.2636101,9.040084,4.4841495,3
21224323948075,-2.1343977,8.872586,4.3788652,3
21224326327190,-2.0291135,8.863015,4.4410787,3
21224328706304,-1.8329022,8.748159,4.469793,3
21224331085367,-1.550549,8.590233,4.398008,3
21224333464481,-1.2921243,8.623733,4.3645086,3
21224335843544,-1.0480564,8.5423765,4.0965123,3
21224338222659,-0.8997013,8.6141615,3.9816568,3
21224340601773,-0.7178468,8.532805,3.818945,3
21224342980836,-0.5694918,8.671589,3.7758741,3
21224345359950,-0.40677986,8.690732,3.6753755,3
21224347739065,-0.3493521,8.719446,3.656233,3
21224350118127,-0.39720857,8.762517,3.5892339,3
21224352497242,-0.56470615,8.853444,3.546163,3
21224354876356,-0.8662018,8.886943,3.5174494,3
21224357255419,-1.1629118,8.930014,3.5413775,3
21224359634534,-1.430908,9.044869,3.6370904,3
21224362013648,-1.5840486,9.107083,3.6610186,3
21224364392711,-1.7419748,9.183653,3.737589,3
21224366771825,-1.7802601,9.241081,3.8141594,3
21224369150940,-1.7467605,9.274581,3.8093736,3
21224371530002,-1.8329022,9.461221,3.8763726,3
21224373909117,-1.7419748,9.41815,3.8237305,3
21224376288179,-1.9190438,9.499506,3.8668015,3
21224378667294,-1.6271194,9.461221,4.0438704,3
21224381046409,-1.2346965,9.346365,4.1491547,3
21224383425471,-1.0001999,9.298509,4.211368,3
21224385804586,-0.5407779,9.236296,4.206582,3
21224388183700,-0.20578274,9.097511,4.26401,3
21224390562763,0.18664017,8.949157,4.273581,3
21224392941877,0.31106696,8.891729,4.321438,3
21224395320992,0.67477596,8.796016,4.287938,3
21224397700054,0.6556334,8.752945,4.3357944,3
21224400079169,0.5838487,8.709874,4.3357944,3
21224402458231,0.3062813,8.662018,4.436293,3
21224404837346,-0.0047856453,8.5423765,4.4841495,3
21224407216461,-0.5455636,8.49452,4.4410787,3
21224409595523,-1.0336994,8.580662,4.3932223,3
21224411974638,-1.3974084,8.52802,4.302295,3
21224414353752,-1.847259,8.52802,4.2975097,3
21224416732815,-2.0673988,8.595019,4.321438,3
21224419111929,-2.3353949,8.662018,4.3932223,3
21224421490992,-2.3976083,8.63809,4.436293,3
21224423870106,-2.3928227,8.733803,4.493721,3
21224426249221,-2.225325,8.786445,4.479364,3
21224428628336,-1.9764715,8.805588,4.4458647,3
21224431007398,-1.5553347,8.79123,4.402794,3
21224433386461,-1.0959128,8.800801,4.4410787,3
21224435765575,-0.64606214,8.762517,4.4602213,3
21224438144690,-0.23449662,8.743374,4.503292,3
21224440523804,0.2009971,8.7673025,4.5894337,3
21224442902867,0.44506502,8.776874,4.575077,3
21224445281981,0.55034924,8.819944,4.4315076,3
21224447661096,0.59342,8.949157,4.278367,3
21224450040159,0.5168497,9.059227,4.106084,3
21224452419273,0.25842485,9.15494,4.0295134,3
21224454798388,-0.043070808,9.226724,4.0151563,3
21224457177450,-0.3397808,9.269794,4.072584,3
21224459556565,-0.67477596,9.265009,4.1204405,3
21224461935679,-0.9667004,9.245867,4.1635113,3
21224464314742,-1.1485549,9.202796,4.168297,3
21224466693856,-1.2969099,9.164511,4.1635113,3
21224469072919,-1.4261223,9.064013,4.2352962,3
21224471452034,-1.4548361,8.997013,4.359723,3
21224473831096,-1.402194,8.906086,4.4554358,3
21224476210211,-1.2729816,8.863015,4.436293,3
21224478589325,-1.052842,8.867801,4.388437,3
21224480968440,-0.74177504,8.843872,4.254439,3
21224483347502,-0.4642076,8.867801,4.072584,3
21224485726617,-0.11964113,8.925228,3.9577286,3
21224488105731,0.26799613,8.882157,3.842873,3
21224490484794,0.4881358,8.839087,3.818945,3
21224492863909,0.83748794,8.834301,3.9098723,3
21224495243023,1.0815558,8.752945,3.9194436,3
21224497622086,1.2394822,8.7577305,3.8811584,3
21224500001200,1.3734802,8.7673025,3.8093736,3
21224502380263,1.4213367,8.762517,3.818945,3
21224504759377,1.3926228,8.729017,3.871587,3
21224507138492,1.2299109,8.700303,4.034299,3
21224509517554,1.0145568,8.719446,4.1922255,3
21224511896669,0.6987042,8.729017,4.2927237,3
21224514275784,0.3589234,8.786445,4.2831526,3
21224516654846,-0.023928227,8.872586,4.220939,3
21224519033909,-0.3397808,8.915657,4.1347976,3
21224521413075,-0.64606214,8.949157,4.063013,3
21224523792138,-0.8709874,9.035298,4.0677986,3
21224526171252,-1.0001999,9.059227,4.072584,3
21224528550367,-1.1246266,9.097511,4.101298,3
21224530929429,-1.105484,9.107083,4.125226,3
21224533308544,-1.052842,9.12144,4.1635113,3
21224535687606,-0.8470592,9.097511,4.139583,3
21224538066721,-0.6364908,9.059227,4.101298,3
21224540445836,-0.35413775,9.049655,4.1635113,3
21224542824898,-0.08135597,8.949157,4.206582,3
21224545204013,0.086141616,8.882157,4.2927237,3
21224547583127,0.23449662,8.839087,4.398008,3
21224549962190,0.24885355,8.776874,4.503292,3
21224552341304,0.17706887,8.724232,4.5320063,3
21224554720367,0.0,8.786445,4.4841495,3
21224557099481,-0.15792629,8.839087,4.436293,3
21224559478596,-0.39720857,8.843872,4.412365,3
21224561857711,-0.61734825,8.896515,4.4075794,3
21224564236773,-0.7704889,8.939586,4.402794,3
21224566615888,-0.8997013,8.949157,4.388437,3
21224568994950,-0.93320084,8.973084,4.3645086,3
21224571374065,-0.89013004,8.987442,4.354937,3
21224573753179,-0.76570326,8.939586,4.3740797,3
21224576132242,-0.6221339,8.882157,4.469793,3
21224578511356,-0.44506502,8.810373,4.5798626,3
21224580890471,-0.23449662,8.738588,4.6707897,3
21224583269534,-0.02871387,8.71466,4.694718,3
21224585648648,0.124426775,8.709874,4.6612186,3
21224588027763,0.23928227,8.733803,4.5655055,3
21224590406825,0.3684947,8.815159,4.4315076,3
21224592785940,0.44985065,8.906086,4.2927237,3
21224595165054,0.47856453,8.963513,4.168297,3
21224597544065,0.44506502,9.006584,4.091727,3
21224599923231,0.3924229,9.040084,4.0534415,3
21224602302346,0.3493521,9.059227,4.0438704,3
21224604681409,0.2440679,9.020942,4.0534415,3
21224607060523,0.16749759,8.992228,4.063013,3
21224609439586,0.07178468,8.939586,4.0677986,3
21224611818700,-0.033499517,8.906086,4.130012,3
21224614197815,-0.10049855,8.848659,4.173083,3
21224616576825,-0.17228323,8.848659,4.1778684,3
21224618955992,-0.20578274,8.872586,4.15394,3
21224621335106,-0.19621146,8.891729,4.0677986,3
21224623714169,-0.19621146,8.925228,3.9768713,3
21224626093284,-0.17228323,8.9826565,3.8763726,3
21224628472398,-0.1052842,9.006584,3.7998023,3
21224630851461,-0.014356935,9.035298,3.7806597,3
21224633230575,0.047856454,9.016156,3.7806597,3
21224635609638,0.14356937,9.006584,3.818945,3
21224637988752,0.22492532,8.997013,3.8333018,3
21224640367867,0.28235307,8.977871,3.8237305,3
21224642746929,0.29671,8.949157,3.8333018,3
21224645126044,0.28713873,8.963513,3.8763726,3
21224647505159,0.2632105,8.963513,3.9290147,3
21224649884221,0.22013968,8.944371,3.9673,3
21224652263336,0.124426775,8.953942,4.048656,3
21224654642450,0.0047856453,8.973084,4.0677986,3
21224657021513,-0.11485548,8.987442,4.091727,3
21224659400627,-0.28235307,8.987442,4.1108694,3
21224661779742,-0.45942193,9.016156,4.130012,3
21224664158804,-0.57906306,8.997013,4.1491547,3
21224666537919,-0.6221339,8.977871,4.211368,3
21224668917034,-0.6364908,9.001799,4.278367,3
21224671296096,-0.6221339,8.992228,4.3262234,3
21224673675211,-0.5455636,8.9826565,4.345366,3
21224676054273,-0.44985065,8.997013,4.354937,3
21224678433388,-0.31585258,9.006584,4.3645086,3
21224680812502,-0.148355,8.944371,4.3788652,3
21224683191565,-0.009571291,8.930014,4.412365,3
21224685570679,0.124426775,8.915657,4.4458647,3
21224687949794,0.23928227,8.867801,4.4745784,3
21224690328856,0.31585258,8.843872,4.5128636,3
21224692707971,0.34456646,8.848659,4.503292,3
21224695087086,0.33020952,8.82473,4.508078,3
21224697466148,0.26799613,8.839087,4.5128636,3
21224699845211,0.22013968,8.834301,4.479364,3
21224702224377,0.20578274,8.829515,4.469793,3
21224704603440,0.17228323,8.85823,4.4602213,3
21224706982554,0.12921242,8.867801,4.421936,3
21224709361617,0.08135597,8.839087,4.3836513,3
21224711740731,0.07178468,8.810373,4.345366,3
21224714119846,0.043070808,8.796016,4.321438,3
21224716498909,0.07178468,8.786445,4.316652,3
21224718877971,0.076570325,8.743374,4.3262234,3
21224721257138,0.11964113,8.743374,4.3357944,3
21224723636200,0.12921242,8.743374,4.331009,3
21224726015315,0.17228323,8.743374,4.2975097,3
21224728394429,0.20578274,8.7577305,4.2352962,3
21224730773492,0.2105684,8.800801,4.1874394,3
21224733152606,0.22492532,8.848659,4.101298,3
21224735531669,0.2632105,8.886943,4.0534415,3
21224737910784,0.2440679,8.939586,4.0390844,3
21224740289898,0.22492532,8.968299,4.048656,3
21224742668961,0.16271193,9.001799,4.019942,3
21224745048075,0.08135597,9.01137,4.024728,3
21224747427190,0.0,9.040084,4.019942,3
21224749806252,-0.09092726,9.059227,4.019942,3
21224752185367,-0.16749759,9.040084,4.0438704,3
21224754564481,-0.19621146,9.049655,4.0534415,3
21224756943544,-0.21535404,9.0544405,4.0677986,3
21224759322659,-0.22971097,9.049655,4.082155,3
21224761701773,-0.22971097,9.016156,4.091727,3
21224764080836,-0.18185452,9.025727,4.082155,3
21224766459950,-0.124426775,9.044869,4.0438704,3
21224768839065,-0.0526421,8.997013,4.0295134,3
21224771218127,0.038285162,8.977871,4.048656,3
21224773597242,0.11485548,8.963513,4.063013,3
21224775976304,0.16749759,8.9348,4.115655,3
21224778355419,0.19142582,8.886943,4.1635113,3
21224780734534,0.2009971,8.867801,4.1874394,3
21224783113596,0.22492532,8.85823,4.1874394,3
21224785492711,0.2105684,8.829515,4.168297,3
21224787871773,0.2009971,8.82473,4.1874394,3
21224790250888,0.17706887,8.819944,4.2017965,3
21224792630002,0.12921242,8.810373,4.2448673,3
21224795009117,0.1052842,8.800801,4.2687955,3
21224797388179,0.047856454,8.834301,4.302295,3
21224799767294,-0.019142581,8.853444,4.316652,3
21224802146409,-0.062213387,8.853444,4.321438,3
21224804525471,-0.05742774,8.848659,4.345366,3
21224806904586,-0.076570325,8.863015,4.369294,3
21224809283648,-0.05742774,8.877372,4.398008,3
21224811662763,-0.009571291,8.886943,4.3932223,3
21224814041877,0.043070808,8.896515,4.426722,3
21224816420940,0.11485548,8.9013,4.426722,3
21224818800054,0.19621146,8.944371,4.398008,3
21224821179117,0.2632105,8.963513,4.345366,3
21224823558231,0.33020952,8.968299,4.316652,3
21224825937346,0.37328035,8.953942,4.2927237,3
21224828316461,0.4019942,8.958728,4.287938,3
21224830695523,0.42592242,8.968299,4.287938,3
21224833074638,0.4354937,8.958728,4.287938,3
21224835453700,0.4354937,8.944371,4.273581,3
21224837832815,0.41635114,8.9108715,4.2592244,3
21224840211929,0.42592242,8.930014,4.2352962,3
21224842590992,0.38763726,8.939586,4.2017965,3
21224844970106,0.38763726,8.944371,4.1874394,3
21224847349221,0.3589234,8.930014,4.1443686,3
21224849728284,0.33499518,8.896515,4.1443686,3
21224852107398,0.30149564,8.882157,4.1491547,3
21224854486461,0.3062813,8.872586,4.15394,3
21224856865575,0.30149564,8.853444,4.1204405,3
21224859244690,0.32542387,8.839087,4.091727,3
21224861623804,0.3493521,8.843872,4.072584,3
21224864002867,0.3684947,8.839087,4.082155,3
21224866381981,0.40677986,8.752945,4.072584,3
21224868760992,0.42592242,8.776874,4.0869412,3
21224871140159,0.4546363,8.815159,4.1108694,3
21224873519273,0.47856453,8.819944,4.106084,3
21224875898336,0.52163535,8.815159,4.072584,3
21224878277450,0.5072784,8.85823,4.125226,3
21224880656513,0.4642076,8.867801,4.2017965,3
21224883035627,0.47856453,8.882157,4.15394,3
21224885414742,0.44506502,8.925228,4.058227,3
21224887793856,0.39720857,8.944371,4.0390844,3
21224890172919,0.37806597,8.939586,4.0677986,3
21224892552034,0.3493521,8.973084,4.0965123,3
21224894931096,0.2727818,9.001799,4.1491547,3
21224897310211,0.28713873,8.992228,4.220939,3
21224899689325,0.28713873,8.973084,4.206582,3
21224902068388,0.24885355,9.025727,4.1587257,3
21224904447502,0.23928227,9.040084,4.1635113,3
21224906826617,0.28713873,8.992228,4.173083,3
21224909205679,0.28235307,8.997013,4.197011,3
21224911584794,0.30149564,9.006584,4.211368,3
21224913963909,0.3397808,8.958728,4.278367,3
21224916342971,0.35413775,8.939586,4.302295,3
21224918722086,0.3589234,8.939586,4.2831526,3
21224921101200,0.4019942,8.9348,4.206582,3
21224923480263,0.4546363,8.915657,4.182654,3
21224925859377,0.44027936,8.906086,4.1635113,3
21224928238440,0.44985065,8.891729,4.173083,3
21224930617554,0.4833502,8.853444,4.197011,3
21224932996669,0.49292147,8.863015,4.2017965,3
21224935375731,0.52163535,8.872586,4.168297,3
21224937754846,0.5024927,8.872586,4.1204405,3
21224940133961,0.526421,8.839087,4.091727,3
21224942513023,0.56470615,8.848659,4.1108694,3
21224944892138,0.56470615,8.843872,4.125226,3
21224947271252,0.57427746,8.819944,4.1635113,3
21224949650315,0.55034924,8.82473,4.197011,3
21224952029429,0.56470615,8.848659,4.1874394,3
21224954408544,0.57906306,8.867801,4.1778684,3
21224956787606,0.59342,8.853444,4.168297,3
21224959166721,0.6125626,8.872586,4.173083,3
21224961545836,0.6221339,8.9013,4.197011,3
21224963924898,0.5982057,8.891729,4.211368,3
21224966304013,0.6029913,8.9013,4.23051,3
21224968683075,0.63170516,8.939586,4.2448673,3
21224971062190,0.66041905,8.939586,4.173083,3
21224973441304,0.6556334,8.939586,4.125226,3
21224975820367,0.6364908,8.939586,4.130012,3
21224978199481,0.60777694,8.953942,4.173083,3
21224980578596,0.5599205,8.939586,4.1922255,3
21224982957659,0.4977071,8.944371,4.249653,3
21224985336773,0.4211368,8.925228,4.278367,3
21224987715836,0.31106696,8.920443,4.2831526,3
21224990094950,0.15792629,8.925228,4.2687955,3
21224992474065,0.05742774,8.930014,4.254439,3
21224994853179,-0.062213387,8.920443,4.2448673,3
21224997232242,-0.13878371,8.896515,4.23051,3
21224999611356,-0.21535404,8.958728,4.2352962,3
21225001990419,-0.23928227,8.968299,4.249653,3
21225004369534,-0.24885355,8.953942,4.240082,3
21225006748648,-0.20578274,8.944371,4.2161536,3
21225009127659,-0.15792629,8.9348,4.2257247,3
21225011506825,-0.062213387,8.920443,4.23051,3
21225013885940,0.038285162,8.925228,4.2352962,3
21225016265002,0.148355,8.9348,4.2592244,3
21225018644117,0.25842485,8.906086,4.26401,3
21225021023231,0.3397808,8.877372,4.2352962,3
21225023402294,0.39720857,8.9013,4.2161536,3
21225025781409,0.41156548,8.925228,4.182654,3
21225028160471,0.3924229,8.939586,4.182654,3
21225030539586,0.37328035,8.949157,4.1778684,3
21225032918700,0.32063824,8.968299,4.168297,3
21225035297763,0.21535404,8.968299,4.182654,3
21225037676877,0.076570325,8.953942,4.220939,3
21225040055992,-0.047856454,8.968299,4.220939,3
21225042435054,-0.14356937,8.958728,4.23051,3
21225044814169,-0.2105684,8.939586,4.2257247,3
21225047193284,-0.30149564,8.930014,4.26401,3
21225049572346,-0.3397808,8.9348,4.278367,3
21225051951461,-0.33020952,8.920443,4.2975097,3
21225054330575,-0.28713873,8.891729,4.321438,3
21225056709638,-0.23449662,8.886943,4.2975097,3
21225059088700,-0.16749759,8.896515,4.278367,3
21225061467867,-0.07178468,8.896515,4.249653,3
21225063846929,0.019142581,8.896515,4.211368,3
21225066226044,0.09571291,8.886943,4.2017965,3
21225068605106,0.2105684,8.872586,4.197011,3
21225070984221,0.2440679,8.882157,4.197011,3
21225073363336,0.25842485,8.886943,4.173083,3
21225075742398,0.24885355,8.896515,4.168297,3
21225078121513,0.22013968,8.920443,4.139583,3
21225080500627,0.15314065,8.925228,4.125226,3
21225082879690,0.062213387,8.939586,4.1587257,3
21225085258752,-0.07178468,8.920443,4.1874394,3
21225087637919,-0.16271193,8.896515,4.197011,3
21225090016981,-0.23449662,8.925228,4.1874394,3
21225092396096,-0.31585258,8.939586,4.182654,3
21225094775211,-0.41635114,8.958728,4.168297,3
21225097154273,-0.44506502,8.973084,4.168297,3
21225099533388,-0.44027936,8.944371,4.1778684,3
21225101912450,-0.41156548,8.949157,4.182654,3
21225104291565,-0.35413775,8.9348,4.1874394,3
21225106670679,-0.22492532,8.949157,4.1635113,3
21225109049742,-0.124426775,8.953942,4.15394,3
21225111428856,-0.019142581,8.953942,4.125226,3
21225113807971,0.09092726,8.968299,4.1108694,3
21225116187034,0.2105684,8.953942,4.101298,3
21225118566148,0.31585258,8.939586,4.1204405,3
21225120945263,0.37806597,8.9348,4.125226,3
21225123324325,0.38285163,8.930014,4.1587257,3
21225125703440,0.40677986,8.915657,4.15394,3
21225128082554,0.41156548,8.920443,4.1635113,3
21225130461617,0.3397808,8.920443,4.1778684,3
21225132840731,0.29671,8.891729,4.197011,3
21225135219794,0.22971097,8.9013,4.240082,3
21225137598909,0.17228323,8.9013,4.26401,3
21225139978023,0.11006984,8.915657,4.287938,3
21225142357086,0.1052842,8.9348,4.2975097,3
21225144736200,0.09092726,8.930014,4.2975097,3
21225147115315,0.09571291,8.896515,4.2927237,3
21225149494377,0.17228323,8.882157,4.3118663,3
21225151873492,0.2536392,8.886943,4.3405805,3
21225154252606,0.33020952,8.877372,4.3788652,3
21225156631669,0.44027936,8.877372,4.3932223,3
21225159010784,0.5455636,8.872586,4.412365,3
21225161389846,0.6125626,8.891729,4.388437,3
21225163768961,0.6939186,8.85823,4.354937,3
21225166148075,0.7465607,8.877372,4.321438,3
21225168527138,0.7752745,8.896515,4.278367,3
21225170906252,0.75613195,8.882157,4.26401,3
21225173285367,0.75613195,8.886943,4.249653,3
21225175664429,0.7178468,8.882157,4.220939,3
21225178043544,0.6364908,8.9013,4.1874394,3
21225180422659,0.5838487,8.9013,4.1347976,3
21225182801721,0.5168497,8.896515,4.0869412,3
21225185180836,0.4546363,8.9348,4.0869412,3
21225187559950,0.41156548,8.939586,4.115655,3
21225189939013,0.36370903,8.944371,4.1635113,3
21225192318127,0.33020952,8.953942,4.168297,3
21225194697242,0.33499518,8.925228,4.1491547,3
21225197076304,0.38763726,8.915657,4.1347976,3
21225199455419,0.44506502,8.9108715,4.125226,3
21225201834481,0.5407779,8.9348,4.1491547,3
21225204213596,0.6269195,8.9348,4.1778684,3
21225206592711,0.7178468,8.915657,4.2017965,3
21225208971773,0.7848458,8.906086,4.206582,3
21225211350888,0.8709874,8.944371,4.182654,3
21225213730002,0.9284152,8.953942,4.15394,3
21225216109065,0.9523434,8.9348,4.1491547,3
21225218488179,0.9667004,8.906086,4.168297,3
21225220867294,0.95712906,8.920443,4.182654,3
21225223246304,0.9379865,8.9108715,4.211368,3
21225225625471,0.8805587,8.896515,4.206582,3
21225228004534,0.80877405,8.920443,4.2257247,3
21225230383648,0.7609176,8.915657,4.2257247,3
21225232762763,0.71306115,8.9013,4.2017965,3
21225235141825,0.61734825,8.9013,4.2017965,3
21225237520940,0.5599205,8.9013,4.1874394,3
21225239900054,0.49292147,8.920443,4.15394,3
21225242279117,0.42592242,8.896515,4.1347976,3
21225244658231,0.37806597,8.882157,4.1204405,3
21225247037346,0.36370903,8.9013,4.082155,3
21225249416409,0.37806597,8.9013,4.0390844,3
21225251795523,0.3493521,8.891729,4.005585,3
21225254174638,0.36370903,8.886943,3.9864426,3
21225256553700,0.36370903,8.896515,3.9242291,3
21225258932815,0.37328035,8.886943,3.9050865,3
21225261311929,0.37806597,8.872586,3.9050865,3
21225263690992,0.37328035,8.867801,3.8763726,3
21225266070106,0.33020952,8.891729,3.8620157,3
21225268449169,0.29192436,8.896515,3.8811584,3
21225270828284,0.27756742,8.9013,3.900301,3
21225273207398,0.2632105,8.906086,3.9242291,3
21225275586461,0.2009971,8.891729,3.9720855,3
21225277965575,0.14356937,8.886943,3.9960139,3
21225280344690,0.14356937,8.925228,4.0390844,3
21225282723752,0.1052842,8.920443,4.0869412,3
21225285102815,0.05742774,8.939586,4.106084,3
21225287481981,0.0526421,8.958728,4.1443686,3
21225289860992,0.06699903,8.953942,4.173083,3
21225292240159,0.11006984,8.992228,4.2257247,3
21225294619273,0.148355,8.997013,4.2687955,3
21225296998336,0.17228323,8.977871,4.321438,3
21225299377450,0.19142582,8.973084,4.398008,3
21225301756513,0.23449662,8.944371,4.4554358,3
21225304135627,0.29671,8.930014,4.4985065,3
21225306514742,0.31106696,8.920443,4.493721,3
21225308893804,0.35413775,8.891729,4.4889355,3
21225311272919,0.32063824,8.877372,4.4745784,3
21225313652034,0.29671,8.85823,4.4841495,3
21225316031096,0.25842485,8.839087,4.508078,3
21225318410211,0.22492532,8.815159,4.536792,3
21225320789325,0.19142582,8.79123,4.546363,3
21225323168388,0.148355,8.786445,4.5128636,3
21225325547502,0.09571291,8.800801,4.4410787,3
21225327926565,0.076570325,8.800801,4.369294,3
21225330305679,0.062213387,8.810373,4.321438,3
21225332684794,0.062213387,8.810373,4.302295,3
21225335063856,0.0526421,8.800801,4.2687955,3
21225337442971,0.062213387,8.815159,4.2352962,3
21225339822086,0.062213387,8.79123,4.206582,3
21225342201148,0.033499517,8.781659,4.1347976,3
21225344580263,0.019142581,8.805588,4.072584,3
21225346959377,-0.014356935,8.82473,4.019942,3
21225349338440,-0.06699903,8.863015,4.024728,3
21225351717554,-0.1052842,8.867801,4.019942,3
21225354096669,-0.13878371,8.915657,3.9960139,3
21225356475731,-0.14356937,8.953942,3.9481573,3
21225358854846,-0.12921242,8.963513,3.9098723,3
21225361233909,-0.148355,8.968299,3.8955152,3
21225363613023,-0.13399807,8.997013,3.900301,3
21225365992138,-0.076570325,9.025727,3.938586,3
21225368371200,-0.014356935,9.025727,3.9864426,3
21225370750315,0.02871387,8.973084,3.9625144,3
21225373129429,0.09571291,8.872586,3.9098723,3
21225375508492,0.22492532,8.671589,3.4791641,3
21225377887606,0.3924229,9.102298,2.914458,3
21225380266721,0.5024927,9.322437,2.3306093,3
21225382645784,0.5694918,9.135797,2.751746,3
21225385024898,1.052842,9.006584,4.115655,3
21225387404013,1.1916257,8.843872,5.048856,3
21225389783075,1.2346965,8.690732,4.8526444,3
21225392162190,1.5026926,8.786445,4.005585,3
21225394541304,1.7706888,8.906086,3.1106694,3
21225396920367,1.6271194,8.85823,2.9336007,3
21225399299481,1.6319051,8.819944,3.6227336,3
21225401678544,1.875973,8.762517,4.493721,3
21225404057659,1.7228323,8.671589,4.8765726,3
21225406436773,1.7324036,8.676374,4.584648,3
21225408815836,1.8329022,8.872586,4.082155,3
21225411194898,1.7706888,8.944371,3.6131623,3
21225413574065,1.4644074,8.9826565,3.7663028,3
21225415953127,1.4356936,9.135797,4.508078,3
21225418332242,1.3495519,9.020942,4.938786,3
21225420711304,1.1150553,9.193225,5.0679984,3
21225423090419,0.93320084,9.150154,4.642076,3
21225425469534,0.8662018,9.303294,4.45065,3
21225427848596,0.7800602,9.097511,4.130012,3
21225430227711,0.6221339,8.752945,4.1778684,3
21225432606825,0.6029913,8.805588,4.666004,3
21225434985888,0.6843473,9.245867,5.206782,3
21225437365002,0.47856453,9.365508,5.3216376,3
21225439744117,0.70348984,9.131011,4.8622155,3
21225442123179,0.9810573,9.432507,4.168297,3
21225444502294,1.0911272,9.336794,3.1680973,3
21225446881409,1.1724831,9.092726,2.9048867,3
21225449260471,1.5696917,9.131011,3.5988052,3
21225451639586,1.6606189,9.131011,4.6468616,3
21225454018648,1.579263,8.709874,5.087141,3
21225456397763,1.7850457,8.829515,4.9340005,3
21225458776877,1.8233309,8.915657,4.0534415,3
21225461155940,1.5888343,8.800801,3.3116665,3
21225463535054,1.6031911,8.623733,3.129812,3
21225465914169,1.727618,8.7577305,3.7040894,3
21225468293231,1.5457634,8.642876,4.3788652,3
21225470672346,1.4548361,8.4705925,4.814359,3
21225473051461,1.5266209,8.666803,4.7712884,3
21225475430523,1.5122639,8.762517,4.139583,3
21225477809638,1.3878372,8.776874,3.5796626,3
21225480188752,1.2729816,8.815159,3.3834512,3
21225482567815,1.1820544,8.930014,3.6658044,3
21225484946929,1.1437693,8.79123,4.1491547,3
21225487326044,1.105484,8.63809,4.642076,3
21225489705106,1.0767702,8.662018,4.7425747,3
21225492084221,1.052842,8.743374,4.398008,3
21225494463284,1.1150553,8.700303,3.8476589,3
21225496842398,1.134198,8.805588,3.6610186,3
21225499221513,1.1772687,8.762517,3.7184465,3
21225501600575,1.2969099,8.690732,4.063013,3
21225503979690,1.3782659,8.666803,4.4554358,3
21225506358804,1.4644074,8.642876,4.5798626,3
21225508737867,1.5122639,8.733803,4.4602213,3
21225511116981,1.6223338,8.566305,3.9768713,3
21225513496096,1.5457634,8.681161,3.7471602,3
21225515875159,1.5074782,8.671589,3.7088752,3
21225518254273,1.4356936,8.585447,4.0103707,3
21225520633336,1.4069797,8.532805,4.3740797,3
21225523012450,1.3160524,8.46102,4.5224347,3
21225525391565,1.2011969,8.403593,4.402794,3
21225527770627,1.1964114,8.46102,4.173083,3
21225530149742,1.1724831,8.623733,4.1108694,3
21225532528856,1.1485549,8.666803,4.15394,3
21225534907919,1.2059826,8.662018,4.23051,3
21225537287034,1.3399807,8.71466,4.1922255,3
21225539666148,1.5361922,8.805588,4.115655,3
21225542045211,1.8041883,8.79123,4.005585,3
21225544424325,2.0434706,8.863015,3.9673,3
21225546803388,2.2301106,8.930014,3.9194436,3
21225549182502,2.3928227,8.930014,3.9433718,3
21225551561617,2.5938199,8.886943,3.9864426,3
21225553940679,2.7326035,8.896515,4.048656,3
21225556319794,2.861816,8.853444,3.9864426,3
21225558698909,2.9575288,8.853444,3.9242291,3
21225561077971,3.0580273,8.772088,3.818945,3
21225563457086,3.0963125,8.925228,3.8285162,3
21225565836200,3.1489546,8.9348,3.6658044,3
21225568215263,3.1489546,9.044869,3.6227336,3
21225570594377,3.0532417,9.164511,3.4217365,3
21225572973492,2.9336007,9.226724,3.2303107,3
21225575352554,2.8666015,9.288938,3.1728828,3
21225577731669,2.7613173,9.250652,3.2015967,3
21225580110731,2.5698915,9.413364,3.5126636,3
21225582489846,2.4598217,9.303294,3.574877,3
21225584868961,2.4502504,9.466006,3.694518,3
21225587248023,2.469393,9.437292,3.574877,3
21225589627138,2.5028925,9.537791,3.5413775,3
21225592006252,2.589034,9.523434,3.5030923,3
21225594385315,2.713461,9.614362,3.6993039,3
21225596764429,2.8187451,9.49472,3.9050865,3
21225599143544,2.9240294,9.52822,4.15394,3
21225601522606,3.0436704,9.427721,4.0965123,3
21225603901721,3.1441689,9.466006,4.0677986,3
21225606280784,3.196811,9.370294,3.871587,3
21225608659898,3.1872396,9.2793665,3.7423747,3
21225611039013,3.1633115,9.23151,3.818945,3
21225613418023,3.158526,9.030513,3.9098723,3
21225615797190,3.034099,8.915657,4.101298,3
21225618176304,2.9048867,8.762517,4.125226,3
21225620555367,2.861816,8.695518,4.072584,3
21225622934481,2.7086751,8.52802,3.8620157,3
21225625313596,2.5794628,8.5423765,3.723232,3
21225627692659,2.4789643,8.46102,3.67059,3
21225630071773,2.4311078,8.437093,3.7758741,3
21225632450888,2.3688943,8.408379,3.8620157,3
21225634829950,2.3641088,8.370093,3.9625144,3
21225637209065,2.4023938,8.422736,3.991228,3
21225639588179,2.469393,8.422736,3.8763726,3
21225641967242,2.5411777,8.5423765,3.8572302,3
21225644346356,2.6608188,8.523234,3.871587,3
21225646725419,2.7996025,8.671589,4.063013,3
21225649104534,2.9192436,8.647661,4.173083,3
21225651483648,3.0293136,8.796016,4.3788652,3
21225653862711,3.1728828,8.743374,4.3357944,3
21225656241825,3.2877383,8.872586,4.273581,3
21225658620940,3.3212378,8.877372,4.1635113,3
21225661000002,3.330809,8.930014,4.182654,3
21225663379117,3.2877383,8.963513,4.2592244,3
21225665758231,3.2303107,8.987442,4.369294,3
21225668137294,3.1106694,9.040084,4.5224347,3
21225670516409,3.0005996,9.049655,4.5128636,3
21225672895471,2.7996025,9.001799,4.398008,3
21225675274586,2.6512475,9.083155,4.3645086,3
21225677653700,2.5028925,8.992228,4.354937,3
21225680032763,2.306681,9.064013,4.575077,3
21225682411877,2.1535404,8.963513,4.666004,3
21225684790992,2.0721843,9.016156,4.790431,3
21225687170054,1.9621146,8.930014,4.642076,3
21225689549169,1.9094725,8.963513,4.551149,3
21225691928284,1.8376877,8.906086,4.398008,3
21225694307346,1.8281165,8.953942,4.4410787,3
21225696686461,1.7898313,8.839087,4.4554358,3
21225699065523,1.7611175,8.772088,4.546363,3
21225701444638,1.6510476,8.709874,4.575077,3
21225703823752,1.6319051,8.580662,4.56072,3
21225706202815,1.4644074,8.513663,4.570291,3
21225708581929,1.3399807,8.49452,4.4889355,3
21225710961044,1.18684,8.49452,4.388437,3
21225713340054,1.038485,8.427522,4.3118663,3
21225715719221,0.8279166,8.389236,4.2975097,3
21225718098336,0.6269195,8.288737,4.3788652,3
21225720477398,0.44027936,8.274381,4.4889355,3
21225722856513,0.28235307,8.260024,4.4889355,3
21225725235627,0.15792629,8.360522,4.5224347,3
21225727614690,0.11006984,8.188239,4.3405805,3
21225729993804,0.13399807,8.427522,4.3501515,3
21225732372919,0.086141616,8.30788,4.2017965,3
21225734751981,0.09571291,8.56152,4.4554358,3
21225737131096,0.11964113,8.384451,4.412365,3
21225739510159,0.18664017,8.575876,4.575077,3
21225741889273,0.16749759,8.60459,4.45065,3
21225744268388,0.21535404,8.633304,4.4315076,3
21225746647450,0.18664017,8.709874,4.469793,3
21225749026565,0.21535404,8.690732,4.5272202,3
21225751405679,0.12921242,8.872586,4.776074,3
21225753784690,0.14356937,8.796016,4.7808595,3
21225756163856,0.124426775,8.973084,4.9340005,3
21225758542919,0.08135597,8.949157,4.881358,3
21225760922034,0.062213387,9.006584,4.8622155,3
21225763301148,0.0,9.0544405,4.8526444,3
21225765680211,0.0047856453,9.097511,4.790431,3
21225768059325,-0.0526421,9.097511,4.8191447,3
21225770438440,-0.10049855,9.035298,4.895715,3
21225772817502,-0.19142582,8.9826565,5.0823555,3
21225775196617,-0.2009971,8.915657,5.1828537,3
21225777575731,-0.28235307,8.848659,5.2163534,3
21225779954794,-0.3589234,8.853444,5.1876397,3
21225782333909,-0.4019942,8.729017,5.029713,3
21225784713023,-0.4642076,8.709874,4.9722853,3
21225787092086,-0.5312066,8.556734,4.9292145,3
21225789471200,-0.57906306,8.499306,5.015356,3
21225791850263,-0.66999036,8.384451,5.048856,3
21225794229377,-0.72741807,8.355737,5.048856,3
21225796608492,-0.7800602,8.250452,4.996214,3
21225798987554,-0.8422736,8.16431,4.9435716,3
21225801366669,-0.8997013,8.178668,4.9531426,3
21225803745784,-0.94277215,8.193025,4.962714,3
21225806124846,-0.9810573,8.226524,4.9292145,3
21225808503961,-1.0432707,8.303095,4.7808595,3
21225810883075,-1.038485,8.331808,4.5942197,3
21225813262138,-1.0480564,8.422736,4.4602213,3
21225815641252,-1.0624132,8.465807,4.3740797,3
21225818020315,-1.052842,8.518449,4.3932223,3
21225820399429,-1.0145568,8.556734,4.402794,3
21225822778544,-0.9619147,8.652447,4.4075794,3
21225825157606,-0.8662018,8.733803,4.354937,3
21225827536721,-0.71306115,8.85823,4.206582,3
21225829915836,-0.53599226,8.987442,4.0534415,3
21225832294898,-0.3589234,9.073584,3.9433718,3
21225834674013,-0.19621146,9.2075815,3.9194436,3
21225837053075,-0.009571291,9.332008,3.9194436,3
21225839432138,0.12921242,9.355937,3.885944,3
21225841811304,0.30149564,9.427721,3.8285162,3
21225844190419,0.44985065,9.499506,3.7136607,3
21225846569481,0.6364908,9.489935,3.6083765,3
21225848948596,0.7896315,9.475577,3.5509489,3
21225851327659,0.9619147,9.466006,3.6323047,3
21225853706773,1.1102697,9.41815,3.7998023,3
21225856085888,1.268196,9.322437,3.9433718,3
21225858464950,1.4500505,9.245867,3.9864426,3
21225860844065,1.550549,9.212367,3.9720855,3
21225863223179,1.6749759,9.097511,3.8620157,3
21225865602242,1.7228323,9.049655,3.7471602,3
21225867981356,1.7611175,9.020942,3.656233,3
21225870360471,1.7036897,8.949157,3.5940197,3
21225872739534,1.5840486,8.85823,3.641876,3
21225875118648,1.430908,8.796016,3.7088752,3
21225877497711,1.2490535,8.724232,3.8093736,3
21225879876825,1.0815558,8.63809,3.8524444,3
21225882255940,0.8805587,8.599805,3.8380876,3
21225884635002,0.72263247,8.595019,3.8237305,3
21225887014117,0.5886344,8.56152,3.842873,3
21225889393231,0.52163535,8.556734,3.9816568,3
21225891772294,0.44985065,8.556734,4.173083,3
21225894151409,0.47856453,8.575876,4.3788652,3
21225896530523,0.526421,8.628518,4.4554358,3
21225898909586,0.60777694,8.695518,4.4171505,3
21225901288700,0.74177504,8.7673025,4.3118663,3
21225903667763,0.90448695,8.805588,4.254439,3
21225906046877,1.052842,8.848659,4.3405805,3
21225908425992,1.2059826,8.882157,4.4841495,3
21225910805054,1.3974084,8.906086,4.5798626,3
21225913184169,1.5361922,8.977871,4.5942197,3
21225915563231,1.6941184,9.01137,4.4745784,3
21225917942346,1.8041883,9.030513,4.369294,3
21225920321461,1.8855443,9.073584,4.287938,3
21225922700575,1.9238294,9.073584,4.2352962,3
21225925079638,1.9716859,9.068798,4.26401,3
21225927458752,1.9381863,8.9826565,4.345366,3
21225929837815,1.8951155,8.925228,4.412365,3
21225932216929,1.7850457,8.9013,4.4315076,3
21225934596044,1.6749759,8.896515,4.354937,3
21225936975106,1.5122639,8.805588,4.1874394,3
21225939354221,1.3064811,8.805588,4.063013,3
21225941733336,1.119841,8.829515,4.0390844,3
21225944112398,0.8997013,8.748159,4.1443686,3
21225946491513,0.70348984,8.700303,4.2592244,3
21225948870627,0.55034924,8.705089,4.369294,3
21225951249690,0.4211368,8.676374,4.3788652,3
21225953628804,0.26799613,8.63809,4.23051,3
21225956007867,0.11006984,8.709874,4.101298,3
21225958386981,0.02871387,8.700303,4.0151563,3
21225960766096,-0.076570325,8.690732,4.1347976,3
21225963145159,-0.16749759,8.719446,4.345366,3
21225965524273,-0.25842485,8.776874,4.4985065,3
21225967903388,-0.31106696,8.819944,4.4985065,3
21225970282398,-0.38763726,8.863015,4.3118663,3
21225972661565,-0.41635114,8.977871,4.1204405,3
21225975040679,-0.42592242,8.9826565,4.019942,3
21225977419742,-0.42592242,8.872586,4.0965123,3
21225979798856,-0.41156548,8.925228,4.3118663,3
21225982177919,-0.35413775,8.953942,4.465007,3
21225984557034,-0.2727818,8.944371,4.4410787,3
21225986936148,-0.15314065,8.963513,4.211368,3
21225989315211,-0.0526421,9.044869,3.9720855,3
21225991694325,0.086141616,9.0544405,3.818945,3
21225994073440,0.20578274,9.001799,3.8811584,3
21225996452502,0.28713873,8.953942,4.0965123,3
21225998831617,0.33499518,8.939586,4.3405805,3
21226001210731,0.39720857,8.863015,4.345366,3
21226003589794,0.37328035,8.829515,4.1635113,3
21226005968909,0.31106696,8.872586,3.9577286,3
21226008348023,0.23928227,8.920443,3.8572302,3
21226010727086,0.14356937,8.920443,3.9290147,3
21226013106200,0.043070808,8.9348,4.058227,3
21226015485315,-0.09092726,9.006584,4.173083,3
21226017864377,-0.17228323,9.035298,4.063013,3
21226020243492,-0.2632105,9.044869,3.8620157,3
21226022622554,-0.27756742,9.08794,3.7567315,3
21226025001669,-0.33499518,9.116654,3.7280176,3
21226027380784,-0.44027936,9.083155,3.818945,3
21226029759846,-0.44027936,9.025727,4.0103707,3
21226032138961,-0.3589234,9.097511,4.2927237,3
21226034518023,-0.31585258,9.116654,4.4075794,3
21226036897138,-0.24885355,9.040084,4.3357944,3
21226039276252,-0.062213387,9.049655,4.249653,3
21226041655315,0.22013968,9.15494,4.1778684,3
21226044034429,0.38763726,9.15494,4.1874394,3
21226046413544,0.57427746,9.035298,4.369294,3
21226048792606,0.8135597,8.9826565,4.5798626,3
21226051171721,1.0336994,9.073584,4.6229334,3
21226053550836,1.1581261,9.049655,4.5224347,3
21226055929898,1.2634103,8.9826565,4.398008,3
21226058309013,1.430908,9.025727,4.3357944,3
21226060688127,1.5074782,9.01137,4.4075794,3
21226063067190,1.5218352,8.872586,4.5655055,3
21226065446304,1.5314065,8.829515,4.7138605,3
21226067825367,1.4979069,8.882157,4.776074,3
21226070204481,1.5314065,8.7673025,4.7138605,3
21226072583596,1.4261223,8.705089,4.6085763,3
21226074962659,1.4213367,8.82473,4.5128636,3
21226077341773,1.3399807,8.7577305,4.4410787,3
21226079720888,1.2729816,8.652447,4.6037908,3
21226082099950,1.2203395,8.647661,4.7712884,3
21226084479065,1.1533405,8.700303,4.814359,3
21226086858179,1.105484,8.628518,4.6803613,3
21226089237242,1.0241281,8.652447,4.5655055,3
21226091616356,0.9906286,8.748159,4.4554358,3
21226093995419,0.9954142,8.743374,4.345366,3
21226096374534,1.0336994,8.690732,4.316652,3
21226098753648,1.038485,8.7673025,4.4315076,3
21226101132711,1.0719845,8.848659,4.465007,3
21226103511825,1.134198,8.85823,4.4171505,3
21226105890940,1.2346965,8.925228,4.3262234,3
21226108270002,1.3064811,9.001799,4.1874394,3
21226110649117,1.3495519,9.025727,4.0773697,3
21226113028231,1.4069797,9.01137,4.0677986,3
21226115407294,1.4213367,9.0544405,4.1108694,3
21226117786409,1.3639089,9.073584,4.106084,3
21226120165419,1.2873386,9.059227,4.063013,3
21226122544586,1.2251252,9.092726,3.9864426,3
21226124923700,1.119841,9.159725,3.8763726,3
21226127302763,0.98584294,9.174082,3.7567315,3
21226129681877,0.91405827,9.193225,3.7184465,3
21226132060992,0.85184485,9.193225,3.6753755,3
21226134440054,0.81834537,9.202796,3.6801612,3
21226136819169,0.82313097,9.12144,3.6514473,3
21226139198284,0.82313097,9.049655,3.6227336,3
21226141577346,0.8757731,9.001799,3.5653057,3
21226143956461,0.86141616,8.920443,3.5700915,3
21226146335523,0.93320084,8.85823,3.5844483,3
21226148714638,0.9667004,8.800801,3.6083765,3
21226151093752,0.9810573,8.796016,3.6275191,3
21226153472815,0.9523434,8.71466,3.6275191,3
21226155851929,0.90448695,8.671589,3.6610186,3
21226158231044,0.8422736,8.690732,3.603591,3
21226160610054,0.7752745,8.71466,3.5509489,3
21226162989221,0.6891329,8.786445,3.5318062,3
21226165368336,0.5312066,8.839087,3.6275191,3
21226167747398,0.5024927,8.839087,3.7184465,3
21226170126513,0.37328035,8.82473,3.871587,3
21226172505627,0.2727818,8.853444,3.9816568,3
21226174884690,0.148355,8.839087,3.9960139,3
21226177263804,0.12921242,8.867801,3.9720855,3
21226179642867,0.009571291,8.992228,3.9577286,3
21226182021981,-0.05742774,9.097511,3.9816568,3
21226184401096,-0.086141616,9.12144,4.101298,3
21226186780159,-0.10049855,9.111869,4.23051,3
21226189159273,-0.038285162,9.035298,4.2448673,3
21226191538388,0.009571291,9.145369,4.3262234,3
21226193917450,0.17706887,9.0544405,4.0965123,3
21226196296565,0.3062813,9.059227,3.8955152,3
21226198675627,0.4977071,9.016156,3.818945,3
21226201054742,0.6269195,8.968299,4.0438704,3
21226203433856,0.7609176,8.781659,4.426722,3
21226205812919,0.8997013,8.623733,4.5798626,3
21226208192034,1.0432707,8.647661,4.45065,3
21226210571148,1.2059826,8.671589,4.125226,3
21226212950211,1.2586247,8.7673025,3.938586,3
21226215329325,1.3639089,8.867801,3.900301,3
21226217708440,1.3686945,8.9348,4.0103707,3
21226220087502,1.3639089,8.920443,4.1443686,3
21226222466617,1.3399807,8.9348,4.182654,3
21226224845731,1.3447664,8.9826565,4.106084,3
21226227224794,1.2490535,9.073584,3.9673,3
21226229603909,1.1724831,9.150154,3.8668015,3
21226231982971,1.052842,9.183653,3.8763726,3
21226234362086,0.8853444,9.178867,3.9960139,3
21226236741200,0.7465607,9.241081,4.1778684,3
21226239120263,0.6221339,9.2793665,4.3262234,3
21226241499377,0.53599226,9.236296,4.3740797,3
21226243878492,0.43070808,9.250652,4.359723,3
21226246257554,0.4546363,9.241081,4.3070807,3
21226248636669,0.4642076,9.150154,4.3405805,3
21226251015784,0.5168497,9.111869,4.56072,3
21226253394846,0.6843473,9.08794,4.8047876,3
21226255773961,0.82313097,8.949157,4.8765726,3
21226258153023,1.038485,8.882157,4.718646,3
21226260532138,1.18684,8.891729,4.503292,3
21226262911252,1.3304094,8.867801,4.2975097,3
21226265290315,1.3782659,8.85823,4.2352962,3
21226267669429,1.402194,8.9108715,4.2448673,3
21226270048492,1.3591232,8.939586,4.3118663,3
21226272427606,1.3399807,8.906086,4.2831526,3
21226274806721,1.2299109,9.020942,4.211368,3
21226277185784,1.1102697,9.016156,3.9816568,3
21226279564898,0.971486,9.049655,3.804588,3
21226281944013,0.8279166,9.107083,3.8237305,3
21226284323075,0.6891329,9.08794,4.005585,3
21226286702190,0.57906306,9.049655,4.1635113,3
21226289081252,0.51206404,9.097511,4.1778684,3
21226291460367,0.4642076,9.140582,4.063013,3
21226293839481,0.46899325,9.044869,3.8907297,3
21226296218544,0.5072784,8.9826565,3.8524444,3
21226298597659,0.51206404,9.126225,4.0390844,3
21226300976773,0.5694918,9.006584,4.063013,3
21226303355836,0.5982057,9.097511,4.182654,3
21226305734950,0.7322037,8.886943,3.9050865,3
21226308114065,0.6652047,9.2075815,3.952943,3
21226310493127,0.8422736,8.963513,3.6275191,3
21226312872242,0.80877405,9.131011,3.7328033,3
21226315251356,0.8709874,9.12144,3.7040894,3
21226317630419,0.7322037,9.140582,3.7998023,3
21226320009481,0.7082755,9.01137,3.7854455,3
21226322388596,0.5886344,9.107083,3.871587,3
21226324767711,0.44506502,9.025727,3.8476589,3
21226327146825,0.33499518,8.843872,3.790231,3
21226329525940,0.22492532,8.848659,3.790231,3
21226331905002,0.16749759,8.85823,3.7998023,3
21226334284117,0.05742774,8.772088,3.8763726,3
21226336663179,0.0047856453,8.6141615,4.0438704,3
21226339042294,-0.09571291,8.796016,4.3740797,3
21226341421409,-0.124426775,8.685946,4.388437,3
21226343800471,-0.038285162,8.475378,4.1204405,3
21226346179586,-0.033499517,8.384451,3.7950168,3
21226348558648,0.014356935,8.513663,3.8237305,3
21226350937763,-0.033499517,8.853444,4.3836513,3
21226353316877,-0.0047856453,8.85823,4.6707897,3
21226355695940,-0.019142581,9.040084,4.369294,3
21226358075054,-0.019142581,9.317652,3.5318062,3
21226360454169,-0.062213387,9.288938,2.9431717,3
21226362833231,-0.14356937,9.145369,3.048456,3
21226365212346,-0.29671,9.097511,3.7663028,3
21226367591409,-0.49292147,8.968299,4.45065,3
21226369970523,-0.6269195,8.906086,4.7569313,3
21226372349638,-0.7082755,9.01137,4.6468616,3
21226374728700,-0.8279166,8.987442,4.249653,3
21226377107815,-0.95712906,8.896515,3.885944,3
21226379486929,-1.0049855,8.863015,3.9290147,3
21226381865992,-1.0480564,8.848659,4.4315076,3
21226384245106,-0.9810573,8.705089,5.087141,3
21226386624221,-0.79441714,8.676374,5.4412785,3
21226389003284,-0.4881358,8.853444,5.278567,3
21226391382398,-0.11006984,8.9108715,4.694718,3
21226393761513,0.28235307,8.872586,4.211368,3
21226396140575,0.70348984,8.863015,4.125226,3
21226398519690,0.9954142,8.848659,4.354937,3
21226400898752,1.1437693,8.82473,4.685147,3
21226403277867,1.1772687,8.85823,4.9196434,3
21226405656981,1.0719845,8.930014,4.7569313,3
21226408036044,0.7513463,9.020942,4.287938,3
21226410415159,0.41635114,9.049655,3.7567315,3
21226412794273,0.019142581,9.049655,3.4456646,3
21226415173336,-0.4211368,9.006584,3.4408789,3
21226417552450,-0.79920274,8.968299,3.6466618,3
21226419931513,-1.0719845,8.987442,3.804588,3
21226422310627,-1.2873386,9.001799,3.67059,3
21226424689742,-1.4691931,9.035298,3.330809,3
21226427068804,-1.550549,9.111869,2.9958138,3
21226429447919,-1.6031911,9.183653,2.8761728,3
21226431827034,-1.6031911,9.188439,2.981457,3
21226434206096,-1.5601203,9.221938,3.3403804,3
21226436585211,-1.4500505,9.01137,3.5844483,3
21226438964273,-1.3256238,9.2075815,4.082155,3
21226441343388,-1.0624132,9.212367,4.1491547,3
21226443722502,-0.8039884,9.178867,3.9625144,3
21226446101565,-0.4881358,9.164511,3.6801612,3
21226448480679,-0.17228323,9.260223,3.6993039,3
21226450859794,0.17228323,9.073584,3.8333018,3
21226453238856,0.5312066,9.049655,4.173083,3
21226455617971,0.76570326,9.08794,4.503292,3
21226457997086,0.95712906,8.891729,4.517649,3
21226460376148,1.0336994,8.863015,4.402794,3
21226462755263,1.0767702,9.030513,4.2592244,3
21226465134325,1.0193424,9.150154,4.1778684,3
21226467513388,0.8805587,9.064013,4.273581,3
21226469892554,0.7178468,9.078369,4.6085763,3
21226472271617,0.4881358,9.126225,4.8765726,3
21226474650731,0.2536392,9.01137,4.9579287,3
21226477029846,0.086141616,8.877372,4.867001,3
21226479408909,0.009571291,8.958728,4.699504,3
21226481788023,-0.12921242,8.9348,4.5272202,3
21226484167138,-0.148355,8.843872,4.436293,3
21226486546200,-0.09571291,8.863015,4.503292,3
21226488925315,-0.086141616,8.920443,4.5942197,3
21226491304377,-0.062213387,8.853444,4.56072,3
21226493683492,-0.014356935,8.781659,4.3932223,3
21226496062606,0.086141616,8.906086,4.130012,3
21226498441669,0.124426775,8.973084,3.7854455,3
21226500820784,0.19621146,8.9348,3.4839497,3
21226503199846,0.2536392,8.973084,3.345166,3
21226505578961,0.32542387,9.049655,3.249453,3
21226507958075,0.35413775,8.987442,3.1728828,3
21226510337138,0.41635114,8.958728,3.0915267,3
21226512716252,0.4833502,8.987442,2.9623144,3
21226515095367,0.44506502,8.958728,2.8091738,3
21226517474429,0.3684947,8.9108715,2.7230322,3
21226519853544,0.2536392,8.9013,2.7756743,3
21226522232659,0.062213387,8.82473,2.914458,3
21226524611721,-0.22492532,8.748159,3.101098,3
21226526990836,-0.4833502,8.743374,3.345166,3
21226529369950,-0.7465607,8.71466,3.522235,3
21226531749013,-0.9762716,8.743374,3.6275191,3
21226534128127,-1.1676974,8.882157,3.6801612,3
21226536507190,-1.3591232,8.939586,3.7328033,3
21226538886304,-1.5122639,8.997013,3.8333018,3
21226541265419,-1.6127625,9.092726,4.0390844,3
21226543644481,-1.6414764,9.131011,4.2831526,3
21226546023596,-1.5457634,9.15494,4.5272202,3
21226548402659,-1.3304094,9.284152,4.7138605,3
21226550781773,-1.038485,9.346365,4.8526444,3
21226553160888,-0.6652047,9.150154,4.9435716,3
21226555539950,-0.2727818,9.131011,5.0536413,3
21226557919065,0.21535404,9.150154,5.211568,3
21226560298179,0.6891329,8.925228,5.3312087,3
21226562677242,1.1676974,8.805588,5.4221363,3
21226565056356,1.6462619,8.800801,5.369494,3
21226567435471,1.9573289,8.743374,5.221139,3
21226569814534,2.201397,8.628518,5.0249276,3
21226572193648,2.2444677,8.6141615,4.8287163,3
21226574572763,2.201397,8.566305,4.6899323,3
21226576951825,1.9716859,8.513663,4.6325045,3
21226579330940,1.6510476,8.547162,4.6707897,3
21226581710002,1.2251252,8.628518,4.694718,3
21226584089117,0.7752745,8.676374,4.599005,3
21226586468231,0.3062813,8.666803,4.369294,3
21226588847294,-0.086141616,8.819944,4.287938,3
21226591226409,-0.40677986,8.82473,4.249653,3
21226593605523,-0.6412765,8.800801,4.302295,3
21226595984586,-0.8135597,8.834301,4.331009,3
21226598363700,-0.91405827,8.944371,4.421936,3
21226600742763,-0.9762716,8.867801,4.3501515,3
21226603121877,-0.9379865,8.920443,4.1874394,3
21226605500992,-0.91884387,9.01137,4.1204405,3
21226607880054,-0.7369894,9.001799,4.220939,3
21226610259169,-0.55513483,8.9348,4.354937,3
21226612638284,-0.3397808,9.01137,4.4315076,3
21226615017346,-0.062213387,9.044869,4.412365,3
21226617396461,0.28235307,8.9826565,4.316652,3
21226619775523,0.5024927,8.968299,4.249653,3
21226622154638,0.7369894,8.958728,4.3070807,3
21226624533752,0.94277215,8.891729,4.398008,3
21226626912815,1.0432707,8.906086,4.493721,3
21226629291929,1.052842,8.9013,4.4985065,3
21226631671044,0.9906286,8.877372,4.421936,3
21226634050106,0.8279166,8.877372,4.2687955,3
21226636429221,0.5455636,8.886943,4.1108694,3
21226638808336,0.28235307,8.853444,4.139583,3
21226641187398,0.0047856453,8.810373,4.3070807,3
21226643566513,-0.28713873,8.829515,4.4602213,3
21226645945575,-0.526421,8.853444,4.469793,3
21226648324690,-0.6891329,8.834301,4.369294,3
21226650703804,-0.8039884,8.867801,4.2017965,3
21226653082867,-0.8853444,8.925228,4.0438704,3
21226655461981,-0.89491564,8.944371,3.9864426,3
21226657841096,-0.89491564,8.939586,4.0007997,3
21226660220159,-0.8709874,8.963513,4.101298,3
21226662599273,-0.79920274,8.920443,4.0773697,3
21226664978336,-0.7465607,8.920443,3.9816568,3
21226667357450,-0.6795616,8.944371,3.8620157,3
21226669736565,-0.6221339,8.944371,3.7615173,3
21226672115627,-0.5694918,8.939586,3.751946,3
21226674494742,-0.5168497,8.925228,3.8285162,3
21226676873856,-0.5072784,8.953942,3.9433718,3
21226679252919,-0.47377887,8.930014,4.0390844,3
21226681632034,-0.45942193,8.891729,4.1204405,3
21226684011148,-0.47856453,8.944371,4.130012,3
21226686390211,-0.47377887,8.958728,4.1443686,3
21226688769325,-0.44985065,8.958728,4.1635113,3
21226691148388,-0.44985065,8.949157,4.197011,3
21226693527502,-0.4019942,8.953942,4.249653,3
21226695906617,-0.37806597,8.915657,4.3740797,3
21226698285679,-0.28713873,8.834301,4.4458647,3
21226700664794,-0.16271193,8.839087,4.469793,3
21226703043909,-0.014356935,8.85823,4.4171505,3
21226705422971,0.11485548,8.839087,4.3405805,3
21226707802086,0.2440679,8.834301,4.3118663,3
21226710181148,0.38285163,8.839087,4.3645086,3
21226712560263,0.49292147,8.839087,4.412365,3
21226714939377,0.55034924,8.819944,4.426722,3
21226717318440,0.5407779,8.9108715,4.412365,3
21226719697554,0.5072784,8.949157,4.369294,3
21226722076617,0.4642076,8.949157,4.3262234,3
21226724455731,0.3493521,8.930014,4.3357944,3
21226726834846,0.19621146,8.925228,4.3645086,3
21226729213961,0.038285162,8.920443,4.426722,3
21226731593023,-0.09092726,8.9013,4.398008,3
21226733972138,-0.23928227,8.9348,4.3357944,3
21226736351200,-0.38285163,8.949157,4.240082,3
21226738730315,-0.49292147,8.920443,4.211368,3
21226741109429,-0.57906306,8.958728,4.240082,3
21226743488492,-0.6029913,8.987442,4.2687955,3
21226745867606,-0.6269195,9.006584,4.1922255,3
21226748246669,-0.6221339,9.078369,4.082155,3
21226750625784,-0.5599205,9.145369,3.9720855,3
21226753004846,-0.4977071,9.126225,3.900301,3
21226755383961,-0.41635114,9.135797,3.8907297,3
21226757763075,-0.3062813,9.159725,3.952943,3
21226760142190,-0.2009971,9.102298,4.005585,3
21226762521252,-0.06699903,9.08794,4.048656,3
21226764900367,0.05742774,9.097511,4.0869412,3
21226767279481,0.15314065,9.083155,4.0390844,3
21226769658544,0.22492532,9.073584,3.9816568,3
21226772037659,0.26799613,9.083155,4.005585,3
21226774416721,0.30149564,9.044869,4.115655,3
21226776795836,0.31585258,9.059227,4.2257247,3
21226779174950,0.28235307,9.097511,4.2975097,3
21226781554013,0.22971097,9.116654,4.2975097,3
21226783933127,0.14356937,9.111869,4.206582,3
21226786312242,0.02871387,9.092726,4.1347976,3
21226788691304,-0.07178468,9.078369,4.106084,3
21226791070419,-0.17706887,9.068798,4.106084,3
21226793449481,-0.23449662,9.068798,4.125226,3
21226795828596,-0.31585258,9.0544405,4.1204405,3
21226798207711,-0.3684947,9.01137,4.125226,3
21226800586773,-0.37806597,8.997013,4.091727,3
21226802965888,-0.38285163,8.958728,4.063013,3
21226805345002,-0.36370903,8.925228,4.048656,3
21226807724065,-0.35413775,8.920443,4.0390844,3
21226810103179,-0.3493521,8.896515,4.0534415,3
21226812482242,-0.3684947,8.872586,4.091727,3
21226814861356,-0.3924229,8.867801,4.1108694,3
21226817240471,-0.4642076,8.896515,4.106084,3
21226819619534,-0.5168497,8.877372,4.0869412,3
21226821998648,-0.5982057,8.906086,4.0869412,3
21226824377763,-0.76570326,8.9348,4.101298,3
21226826756825,-0.8709874,8.958728,4.168297,3
21226829135940,-0.9762716,9.006584,4.2161536,3
21226831515054,-1.0336994,9.035298,4.2831526,3
21226833894117,-1.105484,9.030513,4.26401,3
21226836273231,-1.2107682,9.083155,4.3070807,3
21226838652294,-1.2299109,9.097511,4.278367,3
21226841031409,-1.2346965,9.08794,4.2257247,3
21226843410523,-1.2729816,9.08794,4.2017965,3
21226845789586,-1.2346965,9.131011,4.211368,3
21226848168700,-1.1916257,9.116654,4.2257247,3
21226850547763,-1.0576276,9.040084,4.220939,3
21226852926877,-0.9236295,8.987442,4.2352962,3
21226855305992,-0.75613195,9.044869,4.2257247,3
21226857685054,-0.6029913,8.987442,4.1587257,3
21226860064117,-0.41156548,8.925228,4.106084,3
21226862443284,-0.23449662,8.968299,4.082155,3
21226864822346,-0.076570325,8.963513,4.058227,3
21226867201461,0.0526421,8.906086,4.091727,3
21226869580575,0.16271193,8.863015,4.082155,3
21226871959638,0.21535404,8.896515,4.058227,3
21226874338752,0.18664017,8.906086,4.024728,3
21226876717815,0.12921242,8.843872,3.9816568,3
21226879096929,0.033499517,8.882157,3.9673,3
21226881476044,-0.08135597,8.925228,3.9625144,3
21226883855106,-0.24885355,8.872586,3.9433718,3
21226886234221,-0.37328035,8.85823,3.938586,3
21226888613336,-0.47377887,8.882157,3.9577286,3
21226890992398,-0.5407779,8.839087,3.9194436,3
21226893371513,-0.6556334,8.815159,3.8907297,3
21226895750575,-0.70348984,8.810373,3.8907297,3
21226898129690,-0.72741807,8.829515,3.8668015,3
21226900508804,-0.72263247,8.810373,3.9098723,3
21226902887867,-0.6795616,8.82473,3.9673,3
21226905266981,-0.6125626,8.815159,4.024728,3
21226907646096,-0.53599226,8.781659,4.0773697,3
21226910025159,-0.44506502,8.752945,4.115655,3
21226912404273,-0.36370903,8.738588,4.1635113,3
21226914783336,-0.2536392,8.738588,4.1635113,3
21226917162450,-0.14356937,8.733803,4.168297,3
21226919541565,-0.09092726,8.719446,4.168297,3
21226921920627,-0.047856454,8.752945,4.206582,3
21226924299742,-0.047856454,8.738588,4.2161536,3
21226926678856,-0.08135597,8.738588,4.273581,3
21226929057919,-0.15792629,8.729017,4.249653,3
21226931437034,-0.2632105,8.7577305,4.2448673,3
21226933816096,-0.37328035,8.776874,4.2161536,3
21226936195211,-0.51206404,8.853444,4.2161536,3
21226938574325,-0.66041905,8.896515,4.1922255,3
21226940953388,-0.8039884,8.973084,4.168297,3
21226943332502,-0.8709874,8.973084,4.1347976,3
21226945711617,-0.971486,8.920443,4.1491547,3
21226948090679,-1.0576276,8.944371,4.1443686,3
21226950469794,-1.0432707,8.973084,4.1635113,3
21226952848909,-1.0719845,8.973084,4.1635113,3
21226955227971,-1.0911272,8.987442,4.1635113,3
21226957607086,-1.105484,8.997013,4.1443686,3
21226959986148,-1.0767702,9.01137,4.15394,3
21226962365263,-1.0432707,8.997013,4.168297,3
21226964744377,-0.9762716,9.001799,4.1635113,3
21226967123440,-0.91884387,9.006584,4.1443686,3
21226969502554,-0.90448695,9.016156,4.0965123,3
21226971881617,-0.8662018,9.006584,4.0438704,3
21226974260731,-0.81834537,9.020942,4.034299,3
21226976639846,-0.7704889,9.020942,4.019942,3
21226979018856,-0.7752745,8.997013,4.0390844,3
21226981398023,-0.81834537,8.992228,4.0773697,3
21226983777138,-0.8327023,8.973084,4.1204405,3
21226986156200,-0.8709874,8.958728,4.1635113,3
21226988535315,-0.91884387,8.930014,4.1635113,3
21226990914429,-0.9619147,8.915657,4.1778684,3
21226993293492,-0.9906286,8.920443,4.2017965,3
21226995672606,-1.0145568,8.953942,4.206582,3
21226998051669,-1.0241281,8.944371,4.197011,3
21227000430784,-1.0289137,8.930014,4.206582,3
21227002809898,-1.0145568,8.925228,4.2017965,3
21227005188961,-0.9619147,8.963513,4.1778684,3
21227007568075,-0.94277215,8.968299,4.1491547,3
21227009947190,-0.9092726,9.006584,4.1491547,3
21227012326252,-0.89491564,9.049655,4.1108694,3
21227014705367,-0.8853444,9.030513,4.0869412,3
21227017084429,-0.89491564,8.987442,4.082155,3
21227019463544,-0.89013004,8.9826565,4.1491547,3
21227021842659,-0.9236295,8.968299,4.206582,3
21227024221721,-0.9379865,8.939586,4.2592244,3
21227026600836,-0.9667004,8.925228,4.273581,3
21227028979950,-1.0241281,8.953942,4.220939,3
21227031359013,-1.0480564,8.944371,4.115655,3
21227033738127,-1.0959128,8.939586,4.072584,3
21227036117190,-1.1150553,8.939586,4.0773697,3
21227038496304,-1.1437693,8.891729,4.106084,3
21227040875419,-1.1533405,8.867801,4.1443686,3
21227043254481,-1.1485549,8.882157,4.1491547,3
21227045633596,-1.119841,8.882157,4.0773697,3
21227048012659,-1.0863415,8.886943,4.019942,3
21227050391773,-1.038485,8.944371,3.991228,3
21227052770888,-0.9954142,8.977871,3.9816568,3
21227055149898,-0.94277215,9.035298,4.024728,3
21227057529065,-0.8853444,9.025727,4.0438704,3
21227059908179,-0.80877405,9.064013,4.034299,3
21227062287242,-0.7082755,9.059227,4.019942,3
21227064666304,-0.67477596,9.030513,4.024728,3
21227067045471,-0.61734825,9.040084,4.0390844,3
21227069424534,-0.6125626,9.035298,4.048656,3
21227071803648,-0.6795616,9.025727,4.0869412,3
21227074182711,-0.71306115,9.001799,4.082155,3
21227076561825,-0.7609176,8.963513,4.0773697,3
21227078940940,-0.81834537,8.930014,4.063013,3
21227081320002,-0.9284152,8.882157,4.091727,3
21227083699117,-0.9906286,8.848659,4.082155,3
21227086078179,-1.0911272,8.810373,4.0869412,3
21227088457294,-1.1772687,8.733803,4.1204405,3
21227090836409,-1.253839,8.681161,4.1443686,3
21227093215471,-1.2634103,8.642876,4.15394,3
21227095594586,-1.3160524,8.590233,4.139583,3
21227097973700,-1.3926228,8.580662,4.115655,3
21227100352763,-1.4548361,8.585447,4.125226,3
21227102731877,-1.4931214,8.571091,4.1635113,3
21227105110940,-1.5409778,8.547162,4.2161536,3
21227107490054,-1.5744773,8.595019,4.254439,3
21227109869169,-1.6079768,8.642876,4.2592244,3
21227112248231,-1.6797615,8.719446,4.240082,3
21227114627346,-1.7419748,8.7577305,4.240082,3
21227117006461,-1.7898313,8.815159,4.23051,3
21227119385523,-1.847259,8.867801,4.2257247,3
21227121764638,-1.9142581,8.9108715,4.2448673,3
21227124143700,-1.9716859,8.9826565,4.249653,3
21227126522815,-2.0003998,9.0544405,4.240082,3
21227128901929,-2.024328,9.107083,4.2017965,3
21227131280992,-2.07697,9.102298,4.1587257,3
21227133660106,-2.0817556,9.111869,4.1635113,3
21227136039221,-2.062613,9.083155,4.2161536,3
21227138418231,-2.009971,9.08794,4.2448673,3
21227140797398,-1.9477576,9.064013,4.197011,3
21227143176513,-1.8855443,9.064013,4.130012,3
21227145555575,-1.7467605,9.0544405,4.0438704,3
21227147934690,-1.6079768,9.044869,4.034299,3
21227150313752,-1.4835501,9.016156,4.048656,3
21227152692867,-1.3064811,9.01137,4.0677986,3
21227155071981,-1.1389836,9.016156,4.0534415,3
21227157451044,-1.0001999,9.016156,4.0295134,3
21227159830159,-0.85184485,9.030513,3.9864426,3
21227162209221,-0.6939186,9.044869,3.885944,3
21227164588336,-0.60777694,9.044869,3.7998023,3
21227166967450,-0.5455636,9.030513,3.790231,3
21227169346513,-0.51206404,8.992228,3.8524444,3
21227171725627,-0.49292147,8.977871,3.9673,3
21227174104742,-0.53599226,8.968299,4.005585,3
21227176483804,-0.67477596,9.001799,3.9481573,3
21227178862919,-0.7848458,9.020942,3.7710886,3
21227181241981,-0.9236295,9.044869,3.6514473,3
21227183621096,-1.0624132,9.049655,3.6897326,3
21227186000211,-1.2346965,9.01137,3.790231,3
21227188379273,-1.3256238,9.020942,3.9146578,3
21227190758388,-1.4548361,9.025727,3.9864426,3
21227193137502,-1.5984055,9.035298,3.9433718,3
21227195516513,-1.6654046,9.0544405,3.7998023,3
21227197895679,-1.6749759,9.131011,3.694518,3
21227200274794,-1.713261,9.107083,3.6849468,3
21227202653856,-1.7180467,9.078369,3.7663028,3
21227205032971,-1.6223338,9.131011,3.900301,3
21227207412034,-1.5601203,9.174082,4.0007997,3
21227209791148,-1.4691931,9.15494,4.0103707,3
21227212170263,-1.3351951,9.169296,3.9673,3
21227214549325,-1.1772687,9.236296,3.9625144,3
21227216928440,-1.0241281,9.245867,3.9673,3
21227219307502,-0.9284152,9.260223,4.034299,3
21227221686617,-0.7465607,9.265009,4.115655,3
21227224065731,-0.6125626,9.288938,4.2017965,3
21227226444794,-0.5694918,9.269794,4.2448673,3
21227228823909,-0.5455636,9.269794,4.220939,3
21227231202971,-0.5694918,9.341579,4.1587257,3
21227233582086,-0.6795616,9.38465,4.0438704,3
21227235961200,-0.86141616,9.394221,3.9433718,3
21227238340263,-1.0145568,9.413364,3.9146578,3
21227240719377,-1.2107682,9.446864,3.8668015,3
21227243098492,-1.3830515,9.45165,3.790231,3
21227245477554,-1.6127625,9.442079,3.7088752,3
21227247856669,-1.8185452,9.45165,3.6179478,3
21227250235731,-1.9381863,9.437292,3.5126636,3
21227252614846,-2.0817556,9.41815,3.4600215,3
21227254993961,-2.1774685,9.379865,3.4695928,3
21227257372971,-2.2492533,9.355937,3.5318062,3
21227259752138,-2.2205393,9.2793665,3.6131623,3
21227262131252,-2.2157538,9.241081,3.6993039,3
21227264510315,-2.1391835,9.174082,3.723232,3
21227266889429,-2.0291135,9.116654,3.7663028,3
21227269268492,-1.9094725,9.025727,3.8333018,3
21227271647606,-1.7898313,8.939586,3.9242291,3
21227274026721,-1.6127625,8.886943,4.058227,3
21227276405784,-1.4069797,8.834301,4.2352962,3
21227278784898,-1.2251252,8.695518,4.354937,3
21227281164013,-1.0671989,8.628518,4.4171505,3
21227283543075,-0.9667004,8.599805,4.4410787,3
21227285922190,-0.8039884,8.532805,4.4075794,3
21227288301252,-0.7465607,8.484949,4.426722,3
21227290680367,-0.6987042,8.413164,4.493721,3
21227293059481,-0.6939186,8.384451,4.551149,3
21227295438544,-0.6843473,8.389236,4.599005,3
21227297817659,-0.75613195,8.389236,4.5415773,3
21227300196773,-0.90448695,8.518449,4.4410787,3
21227302575836,-1.0145568,8.255239,4.1347976,3
21227304954950,-1.0671989,8.293523,4.0869412,3
21227307334013,-1.1964114,8.46102,4.1347976,3
21227309713127,-1.1150553,8.183454,4.1443686,3
21227312092242,-0.9762716,8.092526,4.4075794,3
21227314471304,-0.79920274,8.001599,4.4841495,3
21227316850419,-0.72263247,8.04467,4.6085763,3
21227319229534,-0.5407779,7.838887,4.5224347,3
21227321608596,-0.41156548,7.925029,4.517649,3
21227323987711,-0.37328035,7.972885,4.493721,3
21227326366773,-0.4211368,7.9393854,4.6325045,3
21227328745888,-0.4977071,7.948957,4.895715,3
21227331125002,-0.5886344,8.097312,5.1062837,3
21227333504065,-0.71306115,8.082955,5.1014977,3
21227335883179,-0.81834537,8.178668,5.029713,3
21227338262242,-0.8997013,8.226524,4.833502,3
21227340641356,-1.0480564,8.413164,4.8909297,3
21227343020471,-1.119841,8.346166,4.8765726,3
21227345399534,-1.2442678,8.504091,5.0392847,3
21227347778648,-1.3495519,8.647661,4.996214,3
21227350157763,-1.4739788,8.743374,4.8191447,3
21227352536825,-1.564906,8.896515,4.613362,3
21227354915940,-1.6271194,9.01137,4.3405805,3
21227357295002,-1.6749759,9.116654,4.211368,3
21227359674117,-1.713261,9.064013,4.130012,3
21227362053231,-1.6797615,9.159725,4.2352962,3
21227364432294,-1.6175481,9.111869,4.2448673,3
21227366811409,-1.4739788,9.0544405,4.2831526,3
21227369190471,-1.3639089,8.958728,4.2017965,3
21227371569586,-1.253839,8.968299,4.15394,3
21227373948700,-1.1389836,8.891729,4.082155,3
21227376327763,-1.0336994,8.82473,4.0869412,3
21227378706877,-0.9619147,8.772088,4.1443686,3
21227381085992,-0.9906286,8.79123,4.211368,3
21227383465054,-1.0336994,8.724232,4.1635113,3
21227385844169,-1.1246266,8.738588,4.115655,3
21227388223284,-1.1916257,8.805588,3.9816568,3
21227390602346,-1.3016955,8.79123,3.818945,3
21227392981461,-1.4117653,8.839087,3.7854455,3
21227395360523,-1.5409778,8.853444,3.7615173,3
21227397739638,-1.6510476,8.882157,3.7663028,3
21227400118752,-1.7994026,8.886943,3.6897326,3
21227402497815,-1.9525433,8.920443,3.574877,3
21227404876929,-2.0817556,8.958728,3.4504502,3
21227407255992,-2.1870399,8.939586,3.4073794,3
21227409635106,-2.2971098,8.939586,3.4456646,3
21227412014221,-2.321038,8.963513,3.5318062,3
21227414393284,-2.3018954,8.963513,3.6323047,3
21227416772398,-2.2588246,8.953942,3.7423747,3
21227419151461,-2.1774685,8.968299,3.7567315,3
21227421530523,-2.105684,9.01137,3.7567315,3
21227423909690,-1.942972,9.006584,3.7663028,3
21227426288752,-1.8281165,9.040084,3.8237305,3
21227428667867,-1.7467605,9.078369,3.9098723,3
21227431046929,-1.6223338,9.025727,4.0151563,3
21227433426044,-1.4931214,9.0544405,4.115655,3
21227435805159,-1.4117653,9.083155,4.1635113,3
21227438184273,-1.3639089,9.08794,4.1874394,3
21227440563336,-1.2729816,9.073584,4.1635113,3
21227442942450,-1.2634103,9.078369,4.2017965,3
21227445321513,-1.3256238,9.097511,4.2161536,3
21227447700627,-1.4404793,8.992228,4.254439,3
21227450079690,-1.430908,8.992228,4.2257247,3
21227452458804,-1.6175481,9.040084,4.2017965,3
21227454837919,-1.5170496,8.886943,4.173083,3
21227457216981,-1.5218352,8.810373,4.2257247,3
21227459596096,-1.4596218,8.752945,4.1778684,3
21227461975211,-1.4883357,8.7673025,4.2352962,3
21227464354221,-1.3543376,8.6141615,4.15394,3
21227466733388,-1.4261223,8.657232,4.1443686,3
21227469112502,-1.4787644,8.628518,4.0869412,3
21227471491565,-1.5361922,8.585447,4.130012,3
21227473870679,-1.6319051,8.657232,4.2352962,3
21227476249690,-1.7084754,8.63809,4.2687955,3
21227478628856,-1.7228323,8.595019,4.2687955,3
21227481007971,-1.7180467,8.566305,4.23051,3
21227483387034,-1.7467605,8.556734,4.1922255,3
21227485766148,-1.6893328,8.532805,4.1491547,3
21227488145263,-1.579263,8.523234,4.1635113,3
21227490524325,-1.5122639,8.513663,4.1874394,3
21227492903440,-1.4883357,8.709874,4.3740797,3
21227495282502,-1.3734802,8.575876,4.2592244,3
21227497661565,-1.3016955,8.705089,4.23051,3
21227500040731,-1.18684,8.891729,4.082155,3
21227502419794,-1.1006985,8.781659,3.8572302,3
21227504798909,-0.971486,8.939586,3.9720855,3
21227507177971,-0.89013004,8.800801,3.9338005,3
21227509557086,-0.81834537,8.958728,4.331009,3
21227511936200,-0.72741807,8.729017,4.421936,3
21227514315263,-0.6125626,8.896515,4.5320063,3
21227516694377,-0.55034924,8.915657,4.3740797,3
21227519073492,-0.4881358,8.886943,4.1587257,3
21227521452554,-0.4833502,8.949157,4.072584,3
21227523831669,-0.4354937,8.968299,4.0438704,3
21227526210679,-0.5168497,8.977871,4.206582,3
21227528589846,-0.5886344,8.915657,4.3262234,3
21227530968909,-0.64606214,8.939586,4.388437,3
21227533348023,-0.7082755,8.925228,4.26401,3
21227535727138,-0.7513463,8.896515,4.058227,3
21227538106200,-0.67477596,8.9108715,3.9194436,3
21227540485315,-0.6269195,8.944371,3.8955152,3
21227542864429,-0.526421,8.930014,3.9960139,3
21227545243492,-0.43070808,8.882157,4.082155,3
21227547622606,-0.3397808,8.944371,4.15394,3
21227550001721,-0.22971097,8.915657,4.058227,3
21227552380784,-0.17228323,8.958728,3.938586,3
21227554759898,-0.12921242,8.949157,3.8380876,3
21227557138961,-0.11006984,8.9826565,3.8620157,3
21227559518075,-0.07178468,8.963513,3.9768713,3
21227561897190,-0.062213387,8.987442,4.125226,3
21227564276252,-0.09092726,9.073584,4.220939,3
21227566655367,-0.13399807,9.0544405,4.130012,3
21227569034481,-0.21535404,9.131011,4.048656,3
21227571413544,-0.30149564,9.116654,3.9290147,3
21227573792659,-0.44027936,9.107083,3.938586,3
21227576171721,-0.56470615,9.131011,4.0438704,3
21227578550836,-0.6939186,9.111869,4.168297,3
21227580929950,-0.8327023,9.159725,4.2975097,3
21227583309013,-0.91884387,9.159725,4.254439,3
21227585688127,-0.9810573,9.150154,4.106084,3
21227588067190,-1.0624132,9.221938,4.058227,3
21227590446304,-1.0767702,9.068798,3.9864426,3
21227592825419,-1.1294123,9.08794,4.1635113,3
21227595204481,-1.1294123,9.049655,4.2975097,3
21227597583544,-1.119841,9.025727,4.402794,3
21227599962659,-1.1389836,8.949157,4.3070807,3
21227602341773,-1.105484,8.953942,4.1204405,3
21227604720888,-1.1102697,8.85823,3.9194436,3
21227607099950,-1.1485549,8.79123,4.0103707,3
21227609479065,-1.1724831,8.776874,4.2448673,3
21227611858179,-1.1772687,8.733803,4.45065,3
21227614237242,-1.268196,8.705089,4.4841495,3
21227616616356,-1.2873386,8.776874,4.3070807,3
21227618995471,-1.2969099,8.681161,3.938586,3
21227621374534,-1.3208381,8.748159,3.871587,3
21227623753648,-1.3830515,8.633304,3.9098723,3
21227626132711,-1.4739788,8.590233,4.26401,3
21227628511825,-1.6127625,8.662018,4.575077,3
21227630890888,-1.6845472,8.489735,4.5415773,3
21227633270002,-1.8568304,8.709874,4.575077,3
21227635649065,-1.9286151,8.499306,4.1443686,3
21227638028179,-2.0147567,8.690732,4.0869412,3
21227640407294,-2.0721843,8.599805,4.0103707,3
21227642786409,-2.105684,8.6141615,4.2687955,3
21227645165471,-2.1631117,8.580662,4.4985065,3
21227647544586,-2.1535404,8.523234,4.618148,3
21227649923648,-2.2205393,8.623733,4.6468616,3
21227652302763,-2.201397,8.571091,4.465007,3
21227654681877,-2.2444677,8.647661,4.398008,3
21227657060940,-2.2779672,8.671589,4.3501515,3
21227659440054,-2.3449662,8.676374,4.402794,3
21227661819169,-2.4023938,8.685946,4.5320063,3
21227664198231,-2.4119651,8.63809,4.536792,3
21227666577346,-2.4933212,8.633304,4.5128636,3
21227668956409,-2.5124638,8.623733,4.412365,3
21227671335523,-2.5555346,8.575876,4.316652,3
21227673714638,-2.5507488,8.566305,4.3357944,3
21227676093700,-2.603391,8.580662,4.421936,3
21227678472815,-2.6416762,8.532805,4.5224347,3
21227680851877,-2.6751757,8.49452,4.56072,3
21227683230992,-2.7230322,8.46102,4.517649,3
21227685610106,-2.7613173,8.465807,4.465007,3
21227687989169,-2.8187451,8.437093,4.4889355,3
21227690368284,-2.8570302,8.374879,4.5655055,3
21227692747398,-2.885744,8.379665,4.7808595,3
21227695126461,-2.8474588,8.298309,4.900501,3
21227697505575,-2.7900312,8.298309,5.0105705,3
21227699884638,-2.7421749,8.283952,5.0009995,3
21227702263752,-2.6512475,8.3174515,5.005785,3
21227704642867,-2.5507488,8.355737,4.9866424,3
21227707021929,-2.4215364,8.379665,4.938786,3
21227709401044,-2.292324,8.451449,4.895715,3
21227711780106,-2.1296122,8.480164,4.790431,3
21227714159221,-1.942972,8.551949,4.699504,3
21227716538336,-1.7371893,8.595019,4.584648,3
21227718917398,-1.5696917,8.623733,4.45065,3
21227721296513,-1.402194,8.657232,4.321438,3
21227723675627,-1.2777673,8.671589,4.2352962,3
21227726054690,-1.1437693,8.738588,4.2352962,3
21227728433804,-1.0336994,8.805588,4.23051,3
21227730812867,-0.94755775,8.843872,4.2017965,3
21227733191981,-0.9284152,8.85823,4.1587257,3
21227735571096,-0.8997013,8.9013,4.15394,3
21227737950159,-0.9284152,8.930014,4.115655,3
21227740329273,-1.0432707,8.973084,4.0869412,3
21227742708388,-1.2155539,9.020942,4.082155,3
21227745087450,-1.4069797,9.040084,4.101298,3
21227747466565,-1.6031911,9.059227,4.1204405,3
21227749845627,-1.7994026,9.097511,4.1347976,3
21227752224742,-1.9046868,9.131011,4.1108694,3
21227754603856,-1.9573289,9.111869,4.115655,3
21227756982919,-1.9860427,9.097511,4.0869412,3
21227759362034,-1.9716859,9.08794,4.063013,3
21227761741096,-1.942972,9.068798,4.0677986,3
21227764120211,-1.8711873,9.006584,4.0438704,3
21227766499325,-1.7802601,9.016156,4.063013,3
21227768878388,-1.6223338,8.977871,4.072584,3
21227771257502,-1.430908,8.9013,4.0677986,3
21227773636565,-1.2299109,8.9108715,4.048656,3
21227776015679,-1.0336994,8.886943,4.0534415,3
21227778394794,-0.8135597,8.853444,4.058227,3
21227780773856,-0.6556334,8.843872,4.0677986,3
21227783152919,-0.4977071,8.829515,4.101298,3
21227785532086,-0.32542387,8.82473,4.1347976,3
21227787911148,-0.148355,8.819944,4.15394,3
21227790290211,-0.047856454,8.82473,4.1443686,3
21227792669325,-0.019142581,8.839087,4.1443686,3
21227795048440,-0.062213387,8.815159,4.1347976,3
21227797427554,-0.19621146,8.839087,4.130012,3
21227799806617,-0.3589234,8.882157,4.125226,3
21227802185731,-0.5312066,8.906086,4.125226,3
21227804564794,-0.6029913,9.01137,4.240082,3
21227806943909,-0.3684947,9.489935,4.3932223,3
21227809323023,-0.8039884,9.298509,4.402794,3
21227811702086,-0.80877405,8.240881,4.2017965,3
21227814081200,-0.7896315,8.379665,3.885944,3
21227816460263,-1.105484,9.49472,3.7136607,3
21227818839325,-1.4883357,9.064013,3.426522,3
21227821218492,-1.8185452,8.623733,3.8524444,3
21227823597554,-1.9477576,9.068798,4.3740797,3
21227825976669,-2.6943183,9.265009,4.766503,3
21227828355784,-2.804388,8.647661,4.627719,3
21227830734846,-2.804388,8.85823,4.3405805,3
21227833113961,-2.8235307,9.23151,3.9098723,3
21227835493023,-2.885744,8.815159,3.7088752,3
21227837872138,-2.507678,8.456235,3.8524444,3
21227840251252,-2.9671001,8.035098,4.26401,3
21227842630315,-2.8761728,8.006385,5.0440702,3
21227845009429,-1.253839,8.269595,5.278567,3
21227847388492,-0.30149564,8.360522,4.981857,3
21227849767606,-0.6843473,7.8053875,4.316652,3
21227852146721,-0.3062813,8.738588,3.9673,3
21227854525784,0.52163535,9.71486,3.67059,3
21227856904898,-0.3493521,8.786445,3.5940197,3
21227859284013,-1.2299109,8.551949,4.063013,3
21227861663075,-1.3734802,9.533006,4.56072,3
21227864042190,-2.158326,9.939785,4.8287163,3
21227866421252,-3.158526,8.9826565,4.2592244,3
21227868800367,-3.7328033,9.322437,4.3740797,3
21227871179481,-3.3786657,9.442079,4.354937,3
21227873558544,-3.7710886,8.997013,4.479364,3
21227875937659,-3.9194436,8.240881,4.354937,3
21227878316773,-3.4648073,8.465807,4.2975097,3
21227880695836,-3.3930225,8.9108715,4.2017965,3
21227883074950,-3.7136607,8.293523,3.5365918,3
21227885454013,-3.8093736,8.250452,3.4456646,3
21227887833127,-3.2733815,9.01137,3.8476589,3
21227890212242,-3.034099,8.724232,4.019942,3
21227892591304,-2.6751757,8.566305,4.5320063,3
21227894970419,-1.8089739,8.9013,4.5894337,3
21227897349481,-0.9284152,9.159725,4.182654,3
21227899728596,-0.35413775,8.829515,3.5509489,3
21227902107711,0.3062813,8.963513,3.574877,3
21227904486773,1.0193424,8.992228,3.8380876,3
21227906865888,1.119841,9.0544405,4.570291,3
21227909244950,1.3351951,8.772088,4.6612186,3
21227911624065,1.2011969,8.719446,4.4745784,3
21227914003179,0.7752745,8.939586,4.23051,3
21227916382242,-0.0047856453,8.992228,3.7806597,3
21227918761356,-0.6029913,8.815159,3.4456646,3
21227921140419,-1.1629118,8.743374,3.6658044,3
21227923519534,-1.5266209,8.805588,4.1108694,3
21227925898648,-1.7754744,8.451449,4.412365,3
21227928277711,-1.9334008,8.303095,4.6803613,3
21227930656825,-1.9908284,8.260024,4.5894337,3
21227933035940,-2.0434706,8.389236,4.421936,3
21227935415002,-1.9716859,8.327023,4.1347976,3
21227937794117,-1.8185452,8.408379,4.115655,3
21227940173179,-1.6271194,8.446664,4.240082,3
21227942552294,-1.2969099,8.724232,4.7377887,3
21227944931409,-0.9236295,8.963513,5.1014977,3
21227947310471,-0.5168497,9.073584,5.0392847,3
21227949689586,-0.41635114,9.126225,4.5559344,3
21227952068648,-0.27756742,9.073584,3.952943,3
21227954447763,-0.076570325,9.346365,3.8333018,3
21227956826877,0.148355,9.274581,3.8907297,3
21227959205940,0.25842485,8.709874,4.024728,3
21227961585054,0.0526421,8.9348,4.718646,3
21227963964169,-0.10049855,9.188439,5.048856,3
21227966343231,-0.5982057,8.882157,4.6564326,3
21227968722346,-0.9954142,8.891729,4.082155,3
21227971101409,-1.2634103,9.332008,3.574877,3
21227973480523,-1.5314065,9.437292,3.249453,3
21227975859638,-1.8807586,9.092726,3.2159536,3
21227978238700,-2.172683,9.126225,3.7423747,3
21227980617763,-2.2492533,9.19801,4.211368,3
21227982996877,-2.8953154,8.729017,4.278367,3
21227985375992,-3.158526,8.059027,4.115655,3
21227987755106,-2.2731814,9.044869,3.9673,3
21227990134169,-1.1150553,9.52822,2.9383862,3
21227992513284,-0.91405827,9.265009,2.37368,3
21227994892346,-0.47856453,9.164511,2.4358935,3
21227997271461,0.59342,10.1599245,2.536392,3
21227999650575,0.42592242,10.126426,2.684747,3
21228002029638,-0.023928227,9.202796,3.345166,3
21228004408752,-0.21535404,10.155139,4.220939,3
21228006787867,0.2632105,10.490134,3.1154552,3
21228009166929,-0.7800602,9.997213,2.0195422,3
21228011546044,-1.2299109,9.949356,1.5984055,3
21228013925106,-1.6319051,10.126426,1.7898313,3
21228016304169,-1.5314065,9.585648,2.4502504,3
21228018683284,-2.1391835,8.676374,3.3834512,3
21228021062398,-2.2205393,8.853444,4.331009,3
21228023441513,-1.5409778,8.585447,4.115655,3
21228025820575,-1.134198,8.312666,3.7423747,3
21228028199690,-0.7704889,8.049456,3.2303107,3
21228030578804,-0.5982057,8.202596,3.3403804,3
21228032957867,-0.24885355,8.327023,3.991228,3
21228035336981,0.023928227,8.370093,4.6229334,3
21228037716044,0.2632105,8.52802,4.723432,3
21228040095159,0.57427746,8.743374,4.3357944,3
21228042474273,0.7609176,8.958728,3.8237305,3
21228044853336,0.75613195,9.126225,3.507878,3
21228047232450,0.46899325,9.250652,3.7423747,3
21228049611565,0.12921242,9.164511,4.331009,3
21228051990627,-0.37806597,9.159725,5.0344987,3
21228054369742,-0.79920274,9.236296,5.426922,3
21228056748804,-1.3734802,9.265009,5.355137,3
21228059127919,-2.0817556,9.2075815,4.895715,3
21228061506981,-2.6703901,9.135797,4.3357944,3
21228063886096,-3.1728828,9.188439,4.1922255,3
21228066265159,-3.5318062,9.068798,4.345366,3
21228068644273,-3.751946,8.886943,4.666004,3
21228071023388,-3.751946,8.82473,4.871787,3
21228073402502,-3.7184465,8.82473,4.8047876,3
21228075781565,-3.5413775,8.724232,4.426722,3
21228078160679,-3.211168,8.685946,4.0534415,3
21228080539794,-2.6895328,8.719446,3.871587,3
21228082918856,-2.0865414,8.681161,3.9768713,3
21228085297971,-1.416551,8.599805,4.2831526,3
21228087677034,-0.76570326,8.590233,4.517649,3
21228090056148,-0.12921242,8.623733,4.4554358,3
21228092435211,0.5407779,8.609376,4.125226,3
21228094814325,1.1437693,8.752945,3.7663028,3
21228097193440,1.6031911,8.85823,3.4839497,3
21228099572502,1.7850457,8.843872,3.4121652,3
21228101951617,1.8855443,8.891729,3.5796626,3
21228104330731,1.5936198,9.016156,3.8333018,3
21228106709794,1.0001999,9.049655,3.938586,3
21228109088909,0.29671,9.068798,3.9098723,3
21228111467971,-0.36370903,9.140582,3.790231,3
21228113847086,-1.0145568,9.202796,3.6801612,3
21228116226200,-1.6893328,9.174082,3.656233,3
21228118605263,-2.292324,9.174082,3.804588,3
21228120984377,-2.8713872,9.19801,4.0534415,3
21228123363440,-3.3690944,9.217153,4.26401,3
21228125742554,-3.7710886,9.202796,4.3501515,3
21228128121669,-3.9625144,9.226724,4.3357944,3
21228130500731,-3.9960139,9.250652,4.3070807,3
21228132879846,-3.842873,9.255438,4.331009,3
21228135258961,-3.507878,9.221938,4.4889355,3
21228137638023,-3.010171,9.135797,4.7042894,3
21228140017138,-2.440679,9.044869,4.8095737,3
21228142396200,-1.7611175,8.9826565,4.8047876,3
21228144775315,-1.0911272,8.944371,4.699504,3
21228147154377,-0.4019942,8.9348,4.5320063,3
21228149533492,0.2632105,8.872586,4.398008,3
21228151912606,1.0049855,8.800801,4.3788652,3
21228154291669,1.6941184,8.853444,4.4554358,3
21228156670784,2.1535404,8.796016,4.4602213,3
21228159049898,2.359323,8.729017,4.3788652,3
21228161428961,2.4311078,8.729017,4.254439,3
21228163808075,2.2779672,8.71466,4.091727,3
21228166187138,1.8329022,8.609376,3.9194436,3
21228168566252,1.1916257,8.628518,3.871587,3
21228170945367,0.4977071,8.662018,3.952943,3
21228173324429,-0.18664017,8.642876,4.005585,3
21228175703544,-0.79920274,8.63809,4.048656,3
21228178082659,-1.3160524,8.724232,4.0438704,3
21228180461721,-1.8376877,8.762517,3.952943,3
21228182840836,-2.2157538,8.776874,3.9194436,3
21228185219898,-2.455036,8.796016,3.9673,3
21228187599013,-2.6273193,8.810373,4.0677986,3
21228189978127,-2.737389,8.810373,4.1204405,3
21228192357190,-2.6799614,8.815159,4.1778684,3
21228194736304,-2.4598217,8.867801,4.1778684,3
21228197115367,-2.158326,8.896515,4.115655,3
21228199494481,-1.727618,8.896515,4.058227,3
21228201873596,-1.2346965,8.958728,4.048656,3
21228204252659,-0.7465607,8.949157,4.0677986,3
21228206631773,-0.29192436,8.9108715,4.101298,3
21228209010836,0.22492532,8.886943,4.15394,3
21228211389950,0.6891329,8.891729,4.182654,3
21228213769065,1.0480564,8.853444,4.1587257,3
21228216148127,1.3112668,8.815159,4.1108694,3
21228218527242,1.416551,8.79123,4.0965123,3
21228220906304,1.3495519,8.762517,4.106084,3
21228223285419,1.105484,8.743374,4.15394,3
21228225664534,0.70348984,8.752945,4.173083,3
21228228043596,0.22492532,8.7577305,4.211368,3
21228230422711,-0.2727818,8.71466,4.23051,3
21228232801825,-0.7513463,8.724232,4.2352962,3
21228235180888,-1.1820544,8.7577305,4.240082,3
21228237560002,-1.6223338,8.7673025,4.2592244,3
21228239939065,-2.009971,8.729017,4.278367,3
21228242318179,-2.2971098,8.743374,4.3118663,3
21228244697242,-2.5555346,8.7577305,4.3070807,3
21228247076356,-2.737389,8.7673025,4.2831526,3
21228249455471,-2.7996025,8.79123,4.273581,3
21228251834534,-2.7852457,8.834301,4.240082,3
21228254213648,-2.7038896,8.839087,4.197011,3
21228256592763,-2.5220351,8.839087,4.1874394,3
21228258971825,-2.239682,8.872586,4.197011,3
21228261350940,-1.9477576,8.867801,4.206582,3
21228263730002,-1.6031911,8.863015,4.1778684,3
21228266109117,-1.2634103,8.891729,4.1347976,3
21228268488231,-0.98584294,8.9108715,4.0869412,3
21228270867294,-0.7082755,8.915657,4.072584,3
21228273246409,-0.49292147,8.915657,4.048656,3
21228275625471,-0.31585258,8.9348,4.058227,3
21228278004586,-0.17706887,8.963513,4.0677986,3
21228280383648,-0.17706887,8.963513,4.072584,3
21228282762763,-0.2440679,8.963513,4.058227,3
21228285141877,-0.38763726,9.001799,4.072584,3
21228287520940,-0.61734825,9.016156,4.082155,3
21228289900054,-0.86141616,9.016156,4.101298,3
21228292279169,-1.1294123,9.020942,4.1491547,3
21228294658231,-1.3878372,9.016156,4.182654,3
21228297037346,-1.6749759,9.01137,4.197011,3
21228299416461,-1.9046868,9.001799,4.206582,3
21228301795523,-2.091327,8.997013,4.2257247,3
21228304174638,-2.225325,8.963513,4.2448673,3
21228306553700,-2.2827528,8.944371,4.26401,3
21228308932815,-2.292324,8.973084,4.287938,3
21228311311877,-2.254039,8.968299,4.2975097,3
21228313690992,-2.091327,8.958728,4.302295,3
21228316070106,-1.8951155,8.958728,4.3070807,3
21228318449169,-1.6175481,8.968299,4.249653,3
21228320828284,-1.3639089,8.925228,4.173083,3
21228323207398,-1.0624132,8.872586,4.106084,3
21228325586461,-0.7752745,8.915657,4.1347976,3
21228327965575,-0.526421,8.968299,4.2448673,3
21228330344690,-0.25842485,8.906086,4.26401,3
21228332723752,-0.06699903,8.920443,4.2831526,3
21228335102867,0.11964113,8.9348,4.206582,3
21228337481929,0.20578274,8.949157,4.101298,3
21228339861044,0.2440679,8.9348,4.0438704,3
21228342240159,0.2009971,8.944371,4.048656,3
21228344619169,0.10049855,8.930014,4.106084,3
21228346998336,-0.13399807,8.877372,4.1778684,3
21228349377398,-0.3397808,8.882157,4.1922255,3
21228351756513,-0.57906306,8.906086,4.1443686,3
21228354135627,-0.7848458,8.896515,4.072584,3
21228356514690,-0.971486,8.872586,4.019942,3
21228358893804,-1.119841,8.877372,4.0007997,3
21228361272867,-1.2729816,8.872586,4.024728,3
21228363651981,-1.3878372,8.843872,4.072584,3
21228366031096,-1.4117653,8.82473,4.101298,3
21228368410159,-1.3926228,8.79123,4.130012,3
21228370789273,-1.3208381,8.79123,4.125226,3
21228373168336,-1.2251252,8.7673025,4.1108694,3
21228375547450,-1.052842,8.7577305,4.0965123,3
21228377926565,-0.8805587,8.776874,4.139583,3
21228380305627,-0.71306115,8.743374,4.106084,3
21228382684742,-0.5312066,8.748159,4.048656,3
21228385063804,-0.37806597,8.752945,3.991228,3
21228387442919,-0.2105684,8.762517,3.9768713,3
21228389822034,-0.10049855,8.848659,4.0295134,3
21228392201096,0.0,8.82473,4.024728,3
21228394580211,0.0,8.834301,3.9194436,3
21228396959273,-0.02871387,8.9108715,3.7998023,3
21228399338388,-0.09092726,8.925228,3.7950168,3
21228401717502,-0.22971097,8.949157,3.9433718,3
21228404096565,-0.43070808,8.925228,4.1443686,3
21228406475679,-0.65084773,8.896515,4.3262234,3
21228408854794,-0.8709874,8.85823,4.4171505,3
21228411233856,-1.0863415,8.944371,4.4554358,3
21228413612971,-1.2586247,9.025727,4.3740797,3
21228415992034,-1.4452649,8.992228,4.1778684,3
21228418371148,-1.6079768,8.958728,4.063013,3
21228420750263,-1.7324036,8.968299,4.1635113,3
21228423129325,-1.7994026,8.987442,4.4315076,3
21228425508440,-1.847259,8.896515,4.642076,3
21228427887502,-1.8999012,8.819944,4.699504,3
21228430266617,-1.8855443,8.82473,4.6612186,3
21228432645731,-1.8855443,8.796016,4.5224347,3
21228435024794,-1.7898313,8.819944,4.4554358,3
21228437403909,-1.6749759,8.786445,4.4602213,3
21228439782971,-1.5266209,8.733803,4.5894337,3
21228442162086,-1.3926228,8.676374,4.723432,3
21228444541200,-1.2251252,8.695518,4.8239303,3
21228446920263,-1.1150553,8.662018,4.7377887,3
21228449299377,-0.9810573,8.700303,4.5415773,3
21228451678440,-0.9092726,8.748159,4.331009,3
21228454057554,-0.8470592,8.800801,4.1922255,3
21228456436669,-0.85184485,8.776874,4.1443686,3
21228458815731,-0.9379865,8.877372,4.3262234,3
21228461194846,-0.9762716,8.85823,4.469793,3
21228463573856,-1.1533405,8.834301,4.4171505,3
21228465953023,-1.2203395,8.925228,4.197011,3
21228468332138,-1.3208381,9.006584,3.9577286,3
21228470711200,-1.3351951,9.016156,3.8237305,3
21228473090315,-1.3878372,9.020942,3.938586,3
21228475469325,-1.3639089,9.044869,4.1587257,3
21228477848492,-1.3399807,9.016156,4.3836513,3
21228480227606,-1.282553,8.949157,4.4075794,3
21228482606669,-1.2155539,8.963513,4.254439,3
21228484985784,-1.1389836,8.963513,3.9816568,3
21228487364846,-1.0241281,8.930014,3.804588,3
21228489743961,-0.8709874,8.920443,3.7423747,3
21228492123023,-0.79441714,8.82473,3.8333018,3
21228494502138,-0.6556334,8.729017,3.9673,3
21228496881252,-0.56470615,8.800801,4.072584,3
21228499260367,-0.3924229,8.9108715,4.0438704,3
21228501639429,-0.3062813,8.891729,3.7998023,3
21228504018544,-0.21535404,8.9826565,3.656233,3
21228506397606,-0.06699903,9.016156,3.5796626,3
21228508776721,-0.124426775,8.939586,3.8237305,3
21228511155836,-0.019142581,8.786445,4.287938,3
21228513534898,0.009571291,8.810373,4.6899323,3
21228515914013,-0.009571291,8.85823,4.6468616,3
21228518293075,-0.13878371,8.968299,4.3740797,3
21228520672190,-0.16749759,9.001799,4.0438704,3
21228523051304,-0.33499518,9.059227,3.9433718,3
21228525430367,-0.41635114,9.044869,3.9625144,3
21228527809481,-0.53599226,8.987442,4.0773697,3
21228530188544,-0.5455636,8.963513,4.249653,3
21228532567659,-0.5886344,8.944371,4.2448673,3
21228534946773,-0.59342,8.963513,4.0965123,3
21228537325836,-0.5455636,9.01137,3.8380876,3
21228539704950,-0.4833502,9.078369,3.8333018,3
21228542084013,-0.41156548,9.073584,3.9768713,3
21228544463127,-0.37806597,9.0544405,4.211368,3
21228546842242,-0.32542387,9.016156,4.4745784,3
21228549221304,-0.21535404,9.020942,4.4889355,3
21228551600419,-0.18664017,9.073584,4.197011,3
21228553979481,-0.16271193,9.193225,3.8668015,3
21228556358596,-0.11485548,9.174082,3.7184465,3
21228558737711,-0.14356937,9.116654,3.871587,3
21228561116773,-0.18664017,9.116654,4.139583,3
21228563495888,-0.2536392,9.064013,4.2927237,3
21228565874950,-0.3493521,9.035298,4.26401,3
21228568254065,-0.44027936,8.992228,4.0677986,3
21228570633179,-0.5694918,9.044869,3.9290147,3
21228573012242,-0.6891329,9.078369,3.938586,3
21228575391356,-0.85184485,9.073584,4.130012,3
21228577770471,-0.95712906,9.107083,4.331009,3
21228580149534,-1.1150553,9.102298,4.3740797,3
21228582528648,-1.2155539,8.977871,4.139583,3
21228584907711,-1.3064811,8.85823,3.9290147,3
21228587286825,-1.3495519,8.829515,3.9481573,3
21228589665940,-1.4117653,8.748159,4.211368,3
21228592045002,-1.4739788,8.709874,4.4889355,3
21228594424117,-1.4548361,8.796016,4.575077,3
21228596803179,-1.3974084,8.839087,4.302295,3
21228599182294,-1.3208381,8.886943,3.885944,3
21228601561409,-1.2442678,8.9826565,3.6753755,3
21228603940471,-1.1294123,9.035298,3.7998023,3
21228606319586,-1.0863415,8.915657,4.1204405,3
21228608698648,-0.9810573,8.863015,4.426722,3
21228611077763,-0.86141616,8.9108715,4.465007,3
21228613456877,-0.7848458,8.953942,4.240082,3
21228615835940,-0.7082755,8.963513,3.9098723,3
21228618215054,-0.6269195,8.992228,3.6849468,3
21228620594065,-0.59342,9.035298,3.6514473,3
21228622973231,-0.56470615,9.016156,3.8333018,3
21228625352346,-0.55034924,8.949157,4.0965123,3
21228627731409,-0.5838487,8.886943,4.273581,3
21228630110523,-0.6364908,8.839087,4.2592244,3
21228632489586,-0.71306115,8.863015,4.063013,3
21228634868700,-0.80877405,8.863015,3.8476589,3
21228637247815,-0.91884387,8.891729,3.723232,3
21228639626877,-0.9954142,8.920443,3.8237305,3
21228642005992,-1.0336994,8.920443,4.0773697,3
21228644385054,-1.0576276,8.915657,4.2687955,3
21228646764169,-1.0624132,8.944371,4.240082,3
21228649143284,-0.9762716,8.968299,4.0390844,3
21228651522346,-0.83748794,8.997013,3.7998023,3
21228653901461,-0.6652047,8.997013,3.6801612,3
21228656280575,-0.44506502,8.9826565,3.6897326,3
21228658659638,-0.17228323,8.973084,3.7423747,3
21228661038752,0.0526421,8.872586,3.7184465,3
21228663417815,0.3493521,8.882157,3.7328033,3
21228665796929,0.7082755,9.025727,3.6083765,3
21228668176044,0.9379865,9.073584,3.37388,3
21228670555106,1.1581261,9.044869,3.2638102,3
21228672934221,1.4069797,9.01137,3.306881,3
21228675313284,1.4500505,8.953942,3.4791641,3
21228677692398,1.3591232,8.877372,3.7806597,3
21228680071513,1.3112668,8.800801,4.091727,3
21228682450575,1.0289137,8.82473,4.211368,3
21228684829690,0.6125626,8.9013,4.2017965,3
21228687208752,0.22013968,8.977871,4.1491547,3
21228689587867,-0.22492532,9.102298,4.1491547,3
21228691966981,-0.7082755,9.15494,4.1778684,3
21228694346044,-1.1389836,9.164511,4.321438,3
21228696725106,-1.550549,9.221938,4.4458647,3
21228699104169,-2.0195422,9.327223,4.493721,3
21228701483336,-2.2827528,9.217153,4.3070807,3
21228703862450,-2.565106,9.217153,4.249653,3
21228706241513,-2.684747,9.2075815,4.3501515,3
21228708620627,-2.7948167,9.102298,4.6707897,3
21228710999690,-2.7230322,9.001799,5.029713,3
21228713378804,-2.5555346,8.973084,5.2498527,3
21228715757919,-2.2492533,8.9826565,5.245067,3
21228718136981,-1.8664017,9.025727,5.063213,3
21228720516096,-1.3878372,9.092726,4.8191447,3
21228722895159,-0.93320084,9.035298,4.5942197,3
21228725274273,-0.44985065,8.9108715,4.570291,3
21228727653388,0.047856454,8.772088,4.709075,3
21228730032450,0.53599226,8.724232,4.85743,3
21228732411565,0.9667004,8.666803,4.7952166,3
21228734790627,1.3016955,8.671589,4.551149,3
21228737169690,1.5314065,8.743374,4.220939,3
21228739548856,1.6319051,8.786445,3.9050865,3
21228741927919,1.4548361,8.800801,3.8285162,3
21228744307034,1.1676974,8.805588,3.9050865,3
21228746686096,0.72263247,8.796016,4.0869412,3
21228749065211,0.17706887,8.762517,4.206582,3
21228751444325,-0.37328035,8.7673025,4.26401,3
21228753823388,-0.8566305,8.762517,4.182654,3
21228756202502,-1.2586247,8.805588,4.058227,3
21228758581617,-1.6845472,8.848659,3.9673,3
21228760960679,-2.009971,8.872586,3.9768713,3
21228763339794,-2.2492533,8.9013,4.0534415,3
21228765718856,-2.3832514,8.896515,4.139583,3
21228768097971,-2.4023938,8.9108715,4.173083,3
21228770477034,-2.3258235,8.939586,4.1204405,3
21228772856148,-2.1296122,8.953942,4.0103707,3
21228775235263,-1.8281165,8.963513,3.9098723,3
21228777614325,-1.4548361,8.953942,3.8907297,3
21228779993440,-1.0480564,8.973084,3.952943,3
21228782372502,-0.6269195,8.987442,4.0007997,3
21228784751617,-0.18185452,9.01137,4.0007997,3
21228787130731,0.2727818,9.025727,3.9146578,3
21228789509794,0.70348984,9.006584,3.7615173,3
21228791888909,1.0145568,9.0544405,3.694518,3
21228794268023,1.1964114,8.9826565,3.7471602,3
21228796647086,1.2634103,8.877372,3.8955152,3
21228799026200,1.1389836,8.867801,4.101298,3
21228801405263,0.86141616,8.815159,4.182654,3
21228803784377,0.4546363,8.815159,4.2017965,3
21228806163440,0.014356935,8.853444,4.0773697,3
21228808542554,-0.4211368,8.9108715,3.900301,3
21228810921669,-0.82313097,8.9108715,3.8380876,3
21228813300731,-1.1916257,8.882157,3.9338005,3
21228815679794,-1.5744773,8.848659,4.1587257,3
21228818058909,-1.8376877,8.829515,4.354937,3
21228820438023,-2.0291135,8.843872,4.4602213,3
21228822817138,-2.143969,8.853444,4.321438,3
21228825196200,-2.1678972,8.882157,4.091727,3
21228827575315,-2.053042,8.9348,3.9577286,3
21228829954429,-1.9046868,8.968299,4.0151563,3
21228832333492,-1.6558332,8.944371,4.182654,3
21228834712606,-1.3351951,8.949157,4.421936,3
21228837091669,-1.0001999,8.977871,4.546363,3
21228839470784,-0.63170516,9.01137,4.5272202,3
21228841849898,-0.22013968,9.001799,4.4315076,3
21228844228961,0.15792629,9.044869,4.331009,3
21228846608023,0.5072784,9.040084,4.278367,3
21228848987138,0.7513463,9.016156,4.3357944,3
21228851366252,0.9284152,8.987442,4.4841495,3
21228853745367,0.971486,8.939586,4.618148,3
21228856124429,0.9092726,8.920443,4.642076,3
21228858503492,0.7369894,8.9108715,4.5655055,3
21228860882606,0.47856453,8.9108715,4.4458647,3
21228863261721,0.12921242,8.872586,4.316652,3
21228865640836,-0.24885355,8.85823,4.26401,3
21228868019898,-0.6221339,8.843872,4.287938,3
21228870399013,-0.94277215,8.853444,4.3405805,3
21228872778075,-1.2490535,8.877372,4.359723,3
21228875157190,-1.4979069,8.920443,4.287938,3
21228877536304,-1.6845472,8.963513,4.130012,3
21228879915367,-1.8329022,9.049655,3.9673,3
21228882294481,-1.8903298,9.102298,3.8668015,3
21228884673544,-1.847259,9.131011,3.8524444,3
21228887052659,-1.7467605,9.145369,3.9816568,3
21228889431773,-1.5696917,9.140582,4.063013,3
21228891810836,-1.3304094,9.150154,4.048656,3
21228894189950,-1.052842,9.150154,3.9816568,3
21228896569013,-0.74177504,9.135797,3.8811584,3
21228898948127,-0.44027936,9.159725,3.7998023,3
21228901327242,-0.11964113,9.126225,3.7758741,3
21228903706304,0.15314065,9.068798,3.8620157,3
21228906085419,0.3924229,9.016156,3.9720855,3
21228908464481,0.5694918,8.963513,4.024728,3
21228910843596,0.67477596,8.9108715,4.0151563,3
21228913222711,0.6795616,8.896515,3.9242291,3
21228915601773,0.57427746,8.896515,3.8572302,3
21228917980888,0.39720857,8.896515,3.8285162,3
21228920359950,0.14356937,8.843872,3.9242291,3
21228922739065,-0.1052842,8.82473,4.063013,3
21228925118179,-0.3924229,8.819944,4.168297,3
21228927497242,-0.65084773,8.82473,4.1587257,3
21228929876356,-0.8757731,8.843872,4.0438704,3
21228932255471,-1.0815558,8.839087,3.9050865,3
21228934634534,-1.2634103,8.848659,3.8668015,3
21228937013648,-1.3830515,8.829515,4.024728,3
21228939392711,-1.4787644,8.776874,4.1922255,3
21228941771825,-1.5074782,8.781659,4.197011,3
21228944150888,-1.4835501,8.867801,4.0965123,3
21228946530002,-1.3543376,8.891729,3.9050865,3
21228948909117,-1.2107682,8.906086,3.7950168,3
21228951288179,-1.0432707,8.882157,3.8668015,3
21228953667242,-0.8327023,8.853444,4.106084,3
21228956046356,-0.5838487,8.839087,4.26401,3
21228958425471,-0.38285163,8.843872,4.2975097,3
21228960804586,-0.148355,8.843872,4.273581,3
21228963183648,0.038285162,8.815159,4.23051,3
21228965562763,0.22971097,8.843872,4.2448673,3
21228967941877,0.34456646,8.886943,4.2927237,3
21228970320940,0.39720857,8.896515,4.331009,3
21228972700054,0.38763726,8.872586,4.3740797,3
21228975079117,0.36370903,8.85823,4.426722,3
21228977458231,0.25842485,8.843872,4.4841495,3
21228979837294,0.11006984,8.819944,4.5559344,3
21228982216409,-0.10049855,8.82473,4.517649,3
21228984595523,-0.29192436,8.839087,4.4171505,3
21228986974586,-0.5407779,8.819944,4.316652,3
21228989353700,-0.72263247,8.776874,4.316652,3
21228991732815,-0.8997013,8.733803,4.4075794,3
21228994111877,-1.0289137,8.709874,4.4841495,3
21228996490992,-1.1724831,8.724232,4.4171505,3
21228998870054,-1.2634103,8.729017,4.2927237,3
21229001249169,-1.3208381,8.7577305,4.1443686,3
21229003628231,-1.3256238,8.762517,4.0534415,3
21229006007346,-1.2969099,8.709874,4.0965123,3
21229008386461,-1.2729816,8.729017,4.321438,3
21229010765523,-1.1916257,8.772088,4.4315076,3
21229013144638,-1.134198,8.848659,4.2831526,3
21229015523752,-1.038485,8.9013,4.0151563,3
21229017902815,-0.91405827,8.973084,3.842873,3
21229020281929,-0.7609176,8.977871,3.8237305,3
21229022660992,-0.6556334,8.949157,4.0007997,3
21229025040106,-0.5599205,8.882157,4.316652,3
21229027419169,-0.47377887,8.872586,4.536792,3
21229029798284,-0.4642076,8.968299,4.4458647,3
21229032177398,-0.4354937,9.073584,4.0869412,3
21229034556461,-0.43070808,9.140582,3.737589,3
21229036935575,-0.47377887,9.145369,3.6323047,3
21229039314690,-0.5694918,9.092726,3.8668015,3
21229041693752,-0.6843473,9.030513,4.369294,3
21229044072867,-0.7322037,9.001799,4.7282176,3
21229046451929,-0.8662018,9.030513,4.709075,3
21229048831044,-0.95712906,9.083155,4.345366,3
21229051210159,-0.9954142,9.092726,3.9194436,3
21229053589169,-1.0911272,9.111869,3.723232,3
21229055968336,-1.1485549,9.092726,3.9050865,3
21229058347398,-1.134198,9.040084,4.3405805,3
21229060726513,-1.134198,9.006584,4.666004,3
21229063105627,-1.1629118,8.958728,4.699504,3
21229065484690,-1.0576276,8.958728,4.421936,3
21229067863804,-0.9523434,9.001799,4.0534415,3
21229070242867,-0.8853444,9.059227,3.818945,3
21229072621981,-0.7752745,9.040084,3.8668015,3
21229075001096,-0.6652047,9.001799,4.1587257,3
21229077380159,-0.65084773,8.973084,4.479364,3
21229079759273,-0.5838487,8.963513,4.5798626,3
21229082138336,-0.5455636,8.939586,4.3932223,3
21229084517450,-0.526421,8.963513,4.0390844,3
21229086896565,-0.52163535,8.992228,3.7471602,3
21229089275627,-0.5455636,8.997013,3.67059,3
21229091654742,-0.5886344,9.006584,3.8380876,3
21229094033804,-0.6843473,9.001799,4.082155,3
21229096412919,-0.7704889,8.9826565,4.254439,3
21229098792034,-0.8470592,8.997013,4.1922255,3
21229101171096,-0.91405827,9.025727,4.0151563,3
21229103550211,-0.9619147,9.068798,3.804588,3
21229105929273,-1.0001999,9.0544405,3.7710886,3
21229108308388,-1.0001999,9.044869,3.8907297,3
21229110687502,-1.0097711,9.044869,4.15394,3
21229113066565,-1.0145568,9.035298,4.3357944,3
21229115445679,-0.971486,9.001799,4.3932223,3
21229117824742,-0.9236295,8.977871,4.2975097,3
21229120203856,-0.8662018,8.977871,4.173083,3
21229122582971,-0.80877405,8.968299,4.106084,3
21229124962034,-0.76570326,8.939586,4.139583,3
21229127341148,-0.7178468,8.9108715,4.2927237,3
21229129720211,-0.72741807,8.843872,4.4315076,3
21229132099325,-0.6987042,8.800801,4.4985065,3
21229134478440,-0.7178468,8.805588,4.421936,3
21229136857502,-0.7704889,8.805588,4.2975097,3
21229139236617,-0.8039884,8.772088,4.197011,3
21229141615679,-0.89013004,8.762517,4.1635113,3
21229143994794,-0.9762716,8.7577305,4.220939,3
21229146373909,-1.0671989,8.729017,4.3118663,3
21229148752971,-1.1485549,8.71466,4.359723,3
21229151132086,-1.2059826,8.743374,4.302295,3
21229153511148,-1.2634103,8.743374,4.182654,3
21229155890263,-1.3160524,8.796016,4.0869412,3
21229158269377,-1.3495519,8.819944,4.048656,3
21229160648388,-1.3591232,8.843872,4.063013,3
21229163027554,-1.3304094,8.839087,4.1108694,3
21229165406617,-1.2634103,8.882157,4.1347976,3
21229167785731,-1.2203395,8.939586,4.115655,3
21229170164846,-1.1533405,8.958728,4.048656,3
21229172543909,-1.0767702,9.001799,3.9673,3
21229174923023,-0.9906286,9.020942,3.9242291,3
21229177302086,-0.8805587,9.030513,3.9433718,3
21229179681200,-0.8039884,9.049655,4.0151563,3
21229182060315,-0.7082755,9.0544405,4.072584,3
21229184439377,-0.6843473,9.016156,4.1108694,3
21229186818492,-0.61734825,9.001799,4.101298,3
21229189197554,-0.56470615,8.973084,4.101298,3
21229191576669,-0.5455636,8.968299,4.0965123,3
21229193955784,-0.5455636,8.963513,4.1204405,3
21229196334846,-0.526421,8.949157,4.173083,3
21229198713961,-0.526421,8.906086,4.2352962,3
21229201093023,-0.5168497,8.9108715,4.273581,3
21229203472138,-0.55513483,8.906086,4.249653,3
21229205851252,-0.6125626,8.872586,4.2017965,3
21229208230315,-0.6029913,8.891729,4.1778684,3
21229210609429,-0.6269195,8.877372,4.182654,3
21229212988492,-0.66041905,8.872586,4.2352962,3
21229215367606,-0.66999036,8.863015,4.273581,3
21229217746721,-0.66041905,8.867801,4.2592244,3
21229220125784,-0.63170516,8.872586,4.2257247,3
21229222504898,-0.6029913,8.867801,4.173083,3
21229224883961,-0.5838487,8.863015,4.115655,3
21229227263075,-0.57427746,8.839087,4.101298,3
21229229642190,-0.526421,8.834301,4.1204405,3
21229232021252,-0.5072784,8.85823,4.1347976,3
21229234400367,-0.47377887,8.853444,4.130012,3
21229236779429,-0.4546363,8.896515,4.0677986,3
21229239158544,-0.4019942,8.9348,4.019942,3
21229241537659,-0.37806597,8.9348,3.9816568,3
21229243916721,-0.3493521,8.949157,3.952943,3
21229246295836,-0.34456646,8.9826565,3.9433718,3
21229248674898,-0.33499518,9.006584,3.952943,3
21229251054013,-0.3493521,9.01137,3.952943,3
21229253433127,-0.3493521,9.020942,3.9242291,3
21229255812190,-0.34456646,9.016156,3.9290147,3
21229258191304,-0.33499518,8.997013,3.9242291,3
21229260570419,-0.3589234,8.992228,3.9481573,3
21229262949481,-0.4211368,8.968299,3.9625144,3
21229265328596,-0.47377887,8.977871,4.005585,3
21229267707659,-0.5072784,8.939586,4.0677986,3
21229270086773,-0.52163535,8.891729,4.091727,3
21229272465836,-0.5599205,8.848659,4.091727,3
21229274844950,-0.5599205,8.853444,4.0773697,3
21229277224065,-0.57906306,8.853444,4.034299,3
21229279603127,-0.6221339,8.82473,4.072584,3
21229281982242,-0.64606214,8.79123,4.1587257,3
21229284361304,-0.66041905,8.7577305,4.211368,3
21229286740419,-0.71306115,8.729017,4.2161536,3
21229289119534,-0.72741807,8.752945,4.1778684,3
21229291498544,-0.7465607,8.7673025,4.1347976,3
21229293877711,-0.75613195,8.772088,4.0965123,3
21229296256773,-0.7704889,8.762517,4.125226,3
21229298635888,-0.76570326,8.800801,4.1778684,3
21229301015002,-0.79441714,8.800801,4.240082,3
21229303394065,-0.8039884,8.810373,4.254439,3
21229305773179,-0.82313097,8.848659,4.2448673,3
21229308152242,-0.8470592,8.85823,4.220939,3
21229310531356,-0.8757731,8.896515,4.182654,3
21229312910471,-0.91884387,8.963513,4.1922255,3
21229315289534,-0.94277215,8.997013,4.206582,3
21229317668648,-0.95712906,9.035298,4.2448673,3
21229320047711,-1.0145568,9.0544405,4.2448673,3
21229322426825,-1.0336994,9.08794,4.211368,3
21229324805940,-1.0336994,9.111869,4.1635113,3
21229327185002,-1.0145568,9.131011,4.1204405,3
21229329564117,-1.0289137,9.140582,4.125226,3
21229331943179,-1.0193424,9.159725,4.1587257,3
21229334322294,-1.0145568,9.131011,4.197011,3
21229336701409,-0.9906286,9.097511,4.23051,3
21229339080471,-0.9619147,9.059227,4.240082,3
21229341459586,-0.91405827,9.040084,4.2257247,3
21229343838648,-0.8709874,9.020942,4.2257247,3
21229346217763,-0.79441714,8.9826565,4.23051,3
21229348596877,-0.7369894,8.953942,4.273581,3
21229350975940,-0.67477596,8.963513,4.278367,3
21229353355054,-0.57427746,8.930014,4.2975097,3
21229355734169,-0.47377887,8.872586,4.316652,3
21229358113231,-0.38285163,8.863015,4.321438,3
21229360492346,-0.31585258,8.877372,4.3070807,3
21229362871409,-0.2440679,8.848659,4.3118663,3
21229365250523,-0.21535404,8.848659,4.3405805,3
21229367629638,-0.16271193,8.85823,4.359723,3
21229370008700,-0.09571291,8.9013,4.331009,3
21229372387815,-0.076570325,8.906086,4.273581,3
21229374766877,-0.076570325,8.963513,4.249653,3
21229377145992,-0.09092726,8.968299,4.2352962,3
21229379525054,-0.14356937,9.001799,4.2687955,3
21229381904169,-0.15314065,9.035298,4.2975097,3
21229384283284,-0.18664017,9.030513,4.26401,3
21229386662346,-0.22971097,9.040084,4.1587257,3
21229389041461,-0.32063824,9.025727,4.082155,3
21229391420471,-0.37806597,8.9826565,4.072584,3
21229393799638,-0.41635114,8.958728,4.182654,3
21229396178752,-0.46899325,8.882157,4.321438,3
21229398557815,-0.5072784,8.810373,4.3501515,3
21229400936929,-0.5072784,8.796016,4.3070807,3
21229403315940,-0.4833502,8.834301,4.15394,3
21229405695106,-0.4977071,8.82473,4.0295134,3
21229408074221,-0.46899325,8.839087,4.005585,3
21229410453284,-0.42592242,8.882157,4.0677986,3
21229412832398,-0.3924229,8.882157,4.1443686,3
21229415211461,-0.37806597,8.9013,4.2161536,3
21229417590575,-0.37806597,8.9348,4.220939,3
21229419969690,-0.34456646,8.9348,4.15394,3
21229422348752,-0.37806597,8.9348,4.063013,3
21229424727867,-0.4019942,8.973084,4.063013,3
21229427106929,-0.4546363,9.001799,4.0965123,3
21229429486044,-0.5072784,8.9826565,4.1347976,3
21229431865159,-0.5886344,8.977871,4.1491547,3
21229434244221,-0.6221339,9.044869,4.0965123,3
21229436623336,-0.6891329,9.097511,3.9720855,3
21229439002346,-0.74177504,8.949157,3.7040894,3
21229441381513,-0.79920274,8.930014,3.6370904,3
21229443760627,-0.8805587,8.953942,3.8093736,3
21229446139690,-0.90448695,8.9013,4.2017965,3
21229448518804,-0.9379865,8.85823,4.570291,3
21229450897867,-0.9619147,8.834301,4.627719,3
21229453276981,-0.95712906,8.829515,4.4410787,3
21229455656096,-0.90448695,8.872586,4.139583,3
21229458035159,-0.8709874,8.958728,4.005585,3
21229460414273,-0.81834537,8.977871,4.130012,3
21229462793336,-0.7704889,8.872586,4.3740797,3
21229465172450,-0.71306115,8.863015,4.613362,3
21229467551565,-0.64606214,8.968299,4.733003,3
21229469930627,-0.56470615,9.001799,4.551149,3
21229472309742,-0.52163535,8.953942,4.2448673,3
21229474688804,-0.5024927,8.9348,4.1204405,3
21229477067867,-0.49292147,8.891729,4.1922255,3
21229479447034,-0.5168497,8.882157,4.412365,3
21229481826096,-0.55034924,8.82473,4.575077,3
21229484205211,-0.6412765,8.805588,4.575077,3
21229486584273,-0.7178468,8.815159,4.421936,3
21229488963388,-0.7848458,8.853444,4.254439,3
21229491342502,-0.8709874,8.872586,4.1443686,3
21229493721565,-0.94277215,9.020942,4.139583,3
21229496100679,-1.0001999,8.968299,3.9098723,3
21229498479742,-1.0049855,9.150154,3.7280176,3
21229500858856,-1.0959128,9.217153,3.603591,3
21229503237971,-1.1294123,9.288938,3.842873,3
21229505617034,-1.1150553,9.126225,4.1108694,3
21229507996148,-1.1389836,9.078369,4.2592244,3
21229510375211,-1.1102697,9.116654,4.15394,3
21229512754325,-0.9954142,9.298509,3.9577286,3
21229515133440,-0.9523434,9.174082,3.6131623,3
21229517512502,-0.8662018,9.303294,3.641876,3
21229519891617,-0.70348984,9.107083,3.6897326,3
21229522270679,-0.6795616,9.035298,4.0103707,3
21229524649794,-0.59342,9.030513,4.1491547,3
21229527028909,-0.52163535,8.958728,4.0677986,3
21229529407971,-0.4354937,8.834301,3.9481573,3
21229531787086,-0.40677986,8.738588,3.8476589,3
21229534166148,-0.3397808,8.738588,3.8811584,3
21229536545263,-0.33499518,8.618947,3.9720855,3
21229538924377,-0.32063824,8.484949,4.1778684,3
