t_ns,ax,ay,az,accuracy
19567938071785,-0.8470592,8.762517,4.345366,3
19567940450951,-0.8422736,8.7577305,4.3262234,3
19567942830118,-0.8470592,8.743374,4.359723,3
19567945209285,-0.89013004,8.772088,4.4075794,3
19567947588451,-0.91405827,8.781659,4.426722,3
19567949967618,-0.95712906,8.776874,4.4410787,3
19567952346785,-1.0193424,8.7577305,4.4554358,3
19567954725951,-1.0815558,8.738588,4.421936,3
19567957105118,-1.1389836,8.7673025,4.402794,3
19567959484337,-1.18684,8.733803,4.412365,3
19567961863503,-1.2442678,8.729017,4.4554358,3
19567964242670,-1.2969099,8.733803,4.4745784,3
19567966621837,-1.3160524,8.743374,4.4889355,3
19567969001003,-1.3208381,8.752945,4.4602213,3
19567971380170,-1.3351951,8.743374,4.4410787,3
19567973759337,-1.3064811,8.7673025,4.4075794,3
19567976138503,-1.3016955,8.776874,4.4410787,3
19567978517670,-1.2873386,8.786445,4.4602213,3
19567980896837,-1.2203395,8.772088,4.4841495,3
19567983276003,-1.1820544,8.748159,4.4889355,3
19567985655170,-1.1533405,8.7577305,4.465007,3
19567988034337,-1.0863415,8.743374,4.4410787,3
19567990413503,-1.038485,8.762517,4.402794,3
19567992792618,-1.038485,8.743374,4.3740797,3
19567995171837,-1.0097711,8.743374,4.3836513,3
19567997551003,-1.0049855,8.719446,4.3788652,3
19567999930170,-0.9906286,8.733803,4.388437,3
19568002309337,-0.9810573,8.729017,4.354937,3
19568004688503,-0.9954142,8.724232,4.321438,3
19568007067670,-0.9954142,8.719446,4.2975097,3
19568009446837,-0.9906286,8.738588,4.302295,3
19568011826003,-1.0001999,8.724232,4.321438,3
19568014205170,-1.0145568,8.738588,4.345366,3
19568016584337,-1.0719845,8.743374,4.3501515,3
19568018963503,-1.1150553,8.7673025,4.345366,3
19568021342670,-1.1389836,8.752945,4.3357944,3
19568023721837,-1.1485549,8.772088,4.354937,3
19568026101003,-1.1676974,8.781659,4.3932223,3
19568028480222,-1.18684,8.7673025,4.426722,3
19568030859337,-1.2059826,8.786445,4.4458647,3
19568033238555,-1.1916257,8.776874,4.45065,3
19568035617722,-1.1772687,8.7577305,4.4554358,3
19568037996837,-1.1629118,8.7577305,4.4410787,3
19568040376055,-1.1437693,8.776874,4.4458647,3
19568042755222,-1.1006985,8.752945,4.465007,3
19568045134389,-1.0289137,8.762517,4.479364,3
19568047513555,-1.0241281,8.752945,4.4889355,3
19568049892722,-0.9762716,8.7577305,4.5128636,3
19568052271889,-0.9523434,8.7673025,4.503292,3
19568054651055,-0.9523434,8.7673025,4.508078,3
19568057030222,-0.9379865,8.733803,4.5128636,3
19568059409389,-0.90448695,8.762517,4.508078,3
19568061788555,-0.9379865,8.752945,4.503292,3
19568064167722,-0.94755775,8.781659,4.4889355,3
19568066546889,-0.9619147,8.781659,4.479364,3
19568068926055,-1.0193424,8.786445,4.4889355,3
19568071305222,-1.0576276,8.781659,4.4841495,3
19568073684389,-1.1246266,8.786445,4.479364,3
19568076063555,-1.1772687,8.776874,4.4602213,3
19568078442722,-1.2059826,8.7673025,4.4554358,3
19568080821889,-1.2203395,8.752945,4.4554358,3
19568083201055,-1.268196,8.752945,4.4554358,3
19568085580222,-1.2729816,8.7673025,4.426722,3
19568087959389,-1.282553,8.7577305,4.412365,3
19568090338555,-1.3064811,8.762517,4.402794,3
19568092717722,-1.3208381,8.7673025,4.402794,3
19568095096889,-1.2634103,8.743374,4.398008,3
19568097476055,-1.253839,8.762517,4.402794,3
19568099855222,-1.2011969,8.79123,4.402794,3
19568102234389,-1.1533405,8.786445,4.3788652,3
19568104613555,-1.1294123,8.786445,4.3501515,3
19568106992774,-1.1150553,8.748159,4.331009,3
19568109371889,-1.0815558,8.781659,4.3501515,3
19568111751055,-1.0767702,8.786445,4.369294,3
19568114130274,-1.0767702,8.7673025,4.3932223,3
19568116509441,-1.0767702,8.752945,4.402794,3
19568118888607,-1.0767702,8.738588,4.388437,3
19568121267774,-1.0911272,8.729017,4.3740797,3
19568123646941,-1.0959128,8.738588,4.3740797,3
19568126026107,-1.134198,8.743374,4.3836513,3
19568128405274,-1.1629118,8.738588,4.3788652,3
19568130784441,-1.2155539,8.748159,4.369294,3
19568133163607,-1.2394822,8.738588,4.369294,3
19568135542774,-1.2969099,8.7577305,4.388437,3
19568137921941,-1.3495519,8.762517,4.3932223,3
19568140301107,-1.3926228,8.7577305,4.398008,3
19568142680274,-1.3974084,8.762517,4.398008,3
19568145059441,-1.3974084,8.762517,4.4171505,3
19568147438607,-1.3926228,8.738588,4.421936,3
19568149817774,-1.402194,8.705089,4.4171505,3
19568152196941,-1.3974084,8.719446,4.412365,3
19568154576107,-1.3926228,8.719446,4.402794,3
19568156955274,-1.3734802,8.700303,4.426722,3
19568159334441,-1.3591232,8.695518,4.4410787,3
19568161713607,-1.3256238,8.671589,4.436293,3
19568164092774,-1.2634103,8.676374,4.4410787,3
19568166471941,-1.2586247,8.652447,4.4410787,3
19568168851107,-1.2299109,8.671589,4.4075794,3
19568171230274,-1.1676974,8.681161,4.402794,3
19568173609441,-1.1294123,8.681161,4.412365,3
19568175988607,-1.0959128,8.724232,4.421936,3
19568178367774,-1.0767702,8.719446,4.421936,3
19568180746941,-1.038485,8.724232,4.4554358,3
19568183126107,-1.0241281,8.752945,4.436293,3
19568185505326,-0.9954142,8.776874,4.4315076,3
19568187884493,-0.9762716,8.79123,4.45065,3
19568190263660,-0.9762716,8.79123,4.426722,3
19568192642826,-0.9810573,8.786445,4.4410787,3
19568195021993,-0.971486,8.796016,4.4410787,3
19568197401160,-0.9667004,8.810373,4.4315076,3
19568199780326,-0.95712906,8.805588,4.426722,3
19568202159493,-0.9762716,8.82473,4.402794,3
19568204538660,-0.9762716,8.829515,4.3932223,3
19568206917826,-0.9810573,8.848659,4.3645086,3
19568209296993,-0.971486,8.872586,4.3740797,3
19568211676160,-0.94755775,8.853444,4.3836513,3
19568214055326,-0.93320084,8.82473,4.354937,3
19568216434493,-0.9379865,8.853444,4.3501515,3
19568218813660,-0.91405827,8.839087,4.3405805,3
19568221192826,-0.9092726,8.843872,4.331009,3
19568223571993,-0.9092726,8.848659,4.3070807,3
19568225951160,-0.9379865,8.843872,4.3070807,3
19568228330326,-0.9810573,8.843872,4.3118663,3
19568230709493,-0.9954142,8.805588,4.3357944,3
19568233088660,-0.98584294,8.786445,4.3405805,3
19568235467826,-1.0097711,8.796016,4.331009,3
19568237846993,-1.0289137,8.772088,4.331009,3
19568240226160,-1.0815558,8.772088,4.3501515,3
19568242605326,-1.1150553,8.762517,4.369294,3
19568244984493,-1.134198,8.776874,4.3932223,3
19568247363660,-1.1389836,8.781659,4.402794,3
19568249742826,-1.1916257,8.7673025,4.412365,3
19568252121993,-1.1916257,8.800801,4.4075794,3
19568254501160,-1.2155539,8.79123,4.4171505,3
19568256880326,-1.268196,8.772088,4.398008,3
19568259259493,-1.2729816,8.762517,4.402794,3
19568261638660,-1.282553,8.752945,4.402794,3
19568264017826,-1.2873386,8.743374,4.4171505,3
19568266396993,-1.2921243,8.743374,4.4171505,3
19568268776160,-1.2921243,8.772088,4.388437,3
19568271155378,-1.2873386,8.7577305,4.388437,3
19568273534545,-1.2586247,8.7673025,4.3788652,3
19568275913712,-1.2442678,8.748159,4.3932223,3
19568278292878,-1.2299109,8.724232,4.398008,3
19568280672045,-1.2059826,8.729017,4.388437,3
19568283051212,-1.1820544,8.709874,4.3836513,3
19568285430378,-1.1629118,8.738588,4.3788652,3
19568287809545,-1.1629118,8.743374,4.345366,3
19568290188712,-1.18684,8.781659,4.3262234,3
19568292567826,-1.1629118,8.781659,4.3070807,3
19568294947045,-1.1676974,8.781659,4.316652,3
19568297326212,-1.1533405,8.786445,4.3501515,3
19568299705378,-1.1485549,8.786445,4.3645086,3
19568302084545,-1.1581261,8.772088,4.3788652,3
19568304463712,-1.1629118,8.772088,4.3740797,3
19568306842878,-1.134198,8.748159,4.3740797,3
19568309222045,-1.1389836,8.729017,4.3501515,3
19568311601212,-1.1150553,8.733803,4.345366,3
19568313980378,-1.1102697,8.724232,4.3740797,3
19568316359545,-1.1294123,8.695518,4.3836513,3
19568318738712,-1.105484,8.709874,4.388437,3
19568321117878,-1.0959128,8.719446,4.3932223,3
19568323497045,-1.0959128,8.705089,4.412365,3
19568325876212,-1.0719845,8.71466,4.3932223,3
19568328255378,-1.0815558,8.709874,4.388437,3
19568330634545,-1.0767702,8.719446,4.402794,3
19568333013712,-1.0815558,8.729017,4.421936,3
19568335392878,-1.0815558,8.733803,4.421936,3
19568337772045,-1.0719845,8.738588,4.4075794,3
19568340151212,-1.0863415,8.762517,4.4075794,3
19568342530378,-1.1150553,8.781659,4.402794,3
19568344909545,-1.1485549,8.800801,4.412365,3
19568347288712,-1.18684,8.829515,4.4315076,3
19568349667878,-1.2203395,8.796016,4.4410787,3
19568352047045,-1.2394822,8.786445,4.4315076,3
19568354426212,-1.2346965,8.772088,4.4410787,3
19568356805378,-1.2729816,8.772088,4.4458647,3
19568359184597,-1.3208381,8.79123,4.436293,3
19568361563764,-1.3208381,8.7673025,4.398008,3
19568363942930,-1.3304094,8.796016,4.398008,3
19568366322097,-1.3304094,8.781659,4.402794,3
19568368701264,-1.3112668,8.7673025,4.388437,3
19568371080430,-1.3160524,8.776874,4.3836513,3
19568373459597,-1.3304094,8.786445,4.3836513,3
19568375838764,-1.3016955,8.796016,4.369294,3
19568378217930,-1.2777673,8.810373,4.388437,3
19568380597097,-1.2490535,8.79123,4.388437,3
19568382976264,-1.2442678,8.805588,4.388437,3
19568385355430,-1.2203395,8.781659,4.3836513,3
19568387734597,-1.2059826,8.800801,4.354937,3
19568390113764,-1.1820544,8.810373,4.3645086,3
19568392492930,-1.1772687,8.839087,4.3645086,3
19568394872097,-1.1964114,8.82473,4.3740797,3
19568397251264,-1.1724831,8.796016,4.354937,3
19568399630430,-1.18684,8.79123,4.3740797,3
19568402009597,-1.1916257,8.800801,4.402794,3
19568404388764,-1.2011969,8.796016,4.412365,3
19568406767930,-1.2107682,8.781659,4.4075794,3
19568409147097,-1.2251252,8.7673025,4.4075794,3
19568411526264,-1.2346965,8.762517,4.426722,3
19568413905378,-1.2442678,8.743374,4.436293,3
19568416284597,-1.253839,8.748159,4.4315076,3
19568418663764,-1.2777673,8.733803,4.436293,3
19568421042930,-1.2969099,8.743374,4.4171505,3
19568423422097,-1.3016955,8.705089,4.421936,3
19568425801264,-1.3064811,8.685946,4.426722,3
19568428180430,-1.3016955,8.695518,4.4410787,3
19568430559597,-1.2921243,8.705089,4.469793,3
19568432938764,-1.268196,8.709874,4.4410787,3
19568435317930,-1.2873386,8.729017,4.436293,3
19568437697097,-1.2969099,8.738588,4.4075794,3
19568440076212,-1.2442678,8.738588,4.3932223,3
19568442455430,-1.2299109,8.748159,4.412365,3
19568444834597,-1.2203395,8.762517,4.4410787,3
19568447213764,-1.1820544,8.781659,4.4602213,3
19568449592930,-1.1676974,8.781659,4.426722,3
19568451972149,-1.1772687,8.772088,4.402794,3
19568454351316,-1.18684,8.776874,4.4171505,3
19568456730326,-1.2107682,8.772088,4.4075794,3
19568459109649,-1.2155539,8.776874,4.398008,3
19568461488816,-1.2059826,8.7577305,4.402794,3
19568463867982,-1.2107682,8.772088,4.4171505,3
19568466247149,-1.18684,8.762517,4.421936,3
19568468626316,-1.1485549,8.772088,4.4075794,3
19568471005482,-1.1246266,8.762517,4.369294,3
19568473384649,-1.1246266,8.762517,4.369294,3
19568475763816,-1.1006985,8.7577305,4.369294,3
19568478142982,-1.0767702,8.772088,4.398008,3
19568480522149,-1.0480564,8.752945,4.398008,3
19568482901316,-1.0336994,8.7673025,4.398008,3
19568485280482,-1.0193424,8.786445,4.3836513,3
19568487659649,-1.0289137,8.79123,4.354937,3
19568490038816,-1.0432707,8.796016,4.345366,3
19568492417982,-1.0624132,8.805588,4.345366,3
19568494797149,-1.0863415,8.800801,4.3645086,3
19568497176316,-1.1150553,8.776874,4.398008,3
19568499555482,-1.119841,8.7673025,4.436293,3
19568501934649,-1.1676974,8.7577305,4.4458647,3
19568504313816,-1.1772687,8.7673025,4.4458647,3
19568506692982,-1.2251252,8.776874,4.45065,3
19568509072149,-1.2394822,8.781659,4.4410787,3
19568511451316,-1.2634103,8.752945,4.45065,3
19568513830482,-1.2777673,8.724232,4.4554358,3
19568516209649,-1.2729816,8.752945,4.469793,3
19568518588816,-1.2729816,8.748159,4.4841495,3
19568520967982,-1.2634103,8.743374,4.5128636,3
19568523347149,-1.1772687,8.762517,4.5128636,3
19568525726316,-1.1246266,8.748159,4.503292,3
19568528105482,-1.0624132,8.733803,4.493721,3
19568530484649,-1.0193424,8.738588,4.5128636,3
19568532863816,-0.95712906,8.738588,4.5320063,3
19568535242982,-0.9092726,8.748159,4.517649,3
19568537622149,-0.86141616,8.733803,4.5128636,3
19568540001316,-0.8279166,8.772088,4.517649,3
19568542380482,-0.8039884,8.772088,4.536792,3
19568544759649,-0.7704889,8.776874,4.517649,3
19568547138816,-0.7800602,8.7673025,4.508078,3
19568549517982,-0.7704889,8.7673025,4.5128636,3
19568551897149,-0.76570326,8.762517,4.503292,3
19568554276368,-0.79441714,8.7577305,4.5128636,3
19568556655535,-0.82313097,8.733803,4.5272202,3
19568559034701,-0.86141616,8.738588,4.517649,3
19568561413868,-0.9092726,8.738588,4.493721,3
19568563793035,-0.9379865,8.7577305,4.4554358,3
19568566172201,-0.9523434,8.748159,4.412365,3
19568568551368,-0.9810573,8.762517,4.4075794,3
19568570930535,-1.0289137,8.79123,4.3932223,3
19568573309701,-1.0624132,8.796016,4.3836513,3
19568575688868,-1.0815558,8.79123,4.3932223,3
19568578068035,-1.0959128,8.810373,4.402794,3
19568580447201,-1.1006985,8.805588,4.359723,3
19568582826368,-1.0815558,8.834301,4.3262234,3
19568585205535,-1.1102697,8.829515,4.3118663,3
19568587584701,-1.1294123,8.815159,4.2927237,3
19568589963868,-1.1150553,8.805588,4.2975097,3
19568592343035,-1.1102697,8.7673025,4.2975097,3
19568594722201,-1.1102697,8.772088,4.2975097,3
19568597101368,-1.105484,8.781659,4.302295,3
19568599480535,-1.0959128,8.776874,4.2927237,3
19568601859701,-1.1006985,8.772088,4.302295,3
19568604238868,-1.0576276,8.762517,4.316652,3
19568606618035,-1.0576276,8.743374,4.316652,3
19568608997201,-1.0241281,8.743374,4.3262234,3
19568611376368,-0.98584294,8.752945,4.3357944,3
19568613755535,-0.971486,8.752945,4.3645086,3
19568616134701,-0.9284152,8.762517,4.402794,3
19568618513868,-0.9092726,8.776874,4.412365,3
19568620893035,-0.8757731,8.7673025,4.421936,3
19568623272201,-0.86141616,8.781659,4.421936,3
19568625651368,-0.8662018,8.7673025,4.4458647,3
19568628030535,-0.86141616,8.762517,4.45065,3
19568630409701,-0.8662018,8.762517,4.4602213,3
19568632788868,-0.91884387,8.772088,4.4554358,3
19568635168035,-0.9667004,8.7673025,4.436293,3
19568637547201,-0.9810573,8.7577305,4.436293,3
19568639926368,-0.9906286,8.7577305,4.45065,3
19568642305535,-1.0001999,8.7673025,4.4889355,3
19568644684701,-1.0624132,8.752945,4.4889355,3
19568647063868,-1.0719845,8.752945,4.4889355,3
19568649443035,-1.0671989,8.752945,4.508078,3
19568651822201,-1.0624132,8.762517,4.503292,3
19568654201316,-1.038485,8.7673025,4.5272202,3
19568656580535,-1.0624132,8.762517,4.5224347,3
19568658959701,-1.0241281,8.752945,4.5128636,3
19568661338868,-1.0001999,8.752945,4.493721,3
19568663718035,-0.971486,8.748159,4.4841495,3
19568666097201,-0.93320084,8.772088,4.4554358,3
19568668476420,-0.85184485,8.752945,4.436293,3
19568670855535,-0.81834537,8.743374,4.4171505,3
19568673234753,-0.7896315,8.748159,4.359723,3
19568675613920,-0.75613195,8.776874,4.2927237,3
19568677993035,-0.75613195,8.800801,4.254439,3
19568680372201,-0.75613195,8.805588,4.240082,3
19568682751420,-0.79441714,8.815159,4.249653,3
19568685130535,-0.8422736,8.82473,4.2592244,3
19568687509753,-0.90448695,8.82473,4.2592244,3
19568689888920,-0.9762716,8.800801,4.2592244,3
19568692268087,-1.038485,8.805588,4.249653,3
19568694647253,-1.0815558,8.800801,4.2592244,3
19568697026420,-1.1485549,8.805588,4.2831526,3
19568699405587,-1.1772687,8.781659,4.3118663,3
19568701784753,-1.2059826,8.772088,4.359723,3
19568704163920,-1.1916257,8.781659,4.369294,3
19568706543087,-1.2203395,8.776874,4.388437,3
19568708922253,-1.2203395,8.748159,4.402794,3
19568711301420,-1.134198,8.748159,4.3836513,3
19568713680587,-1.0767702,8.7577305,4.402794,3
19568716059753,-1.0049855,8.738588,4.421936,3
19568718438920,-0.9379865,8.762517,4.436293,3
19568720818087,-0.83748794,8.7673025,4.436293,3
19568723197253,-0.7704889,8.776874,4.436293,3
19568725576420,-0.6891329,8.786445,4.402794,3
19568727955587,-0.65084773,8.79123,4.3932223,3
19568730334753,-0.6221339,8.781659,4.4075794,3
19568732713920,-0.61734825,8.781659,4.426722,3
19568735093087,-0.6364908,8.786445,4.421936,3
19568737472253,-0.6939186,8.786445,4.436293,3
19568739851420,-0.7609176,8.786445,4.436293,3
19568742230587,-0.8470592,8.776874,4.4458647,3
19568744609753,-0.9236295,8.772088,4.469793,3
19568746988920,-1.0097711,8.752945,4.4745784,3
19568749368087,-1.0911272,8.772088,4.4985065,3
19568751747253,-1.1581261,8.786445,4.503292,3
19568754126420,-1.2107682,8.762517,4.5128636,3
19568756505587,-1.2346965,8.752945,4.5128636,3
19568758884753,-1.253839,8.776874,4.503292,3
19568761263920,-1.1964114,8.776874,4.4889355,3
19568763643087,-1.1294123,8.772088,4.493721,3
19568766022253,-1.0671989,8.79123,4.4841495,3
19568768401420,-0.9619147,8.805588,4.479364,3
19568770780587,-0.86141616,8.82473,4.4410787,3
19568773159753,-0.7896315,8.819944,4.4171505,3
19568775538920,-0.72263247,8.815159,4.398008,3
19568777918087,-0.67477596,8.815159,4.3788652,3
19568780297253,-0.6412765,8.810373,4.3740797,3
19568782676420,-0.6221339,8.819944,4.359723,3
19568785055587,-0.63170516,8.815159,4.369294,3
19568787434753,-0.6556334,8.762517,4.388437,3
19568789813920,-0.70348984,8.748159,4.412365,3
19568792193087,-0.79441714,8.743374,4.3932223,3
19568794572253,-0.8757731,8.752945,4.3645086,3
19568796951420,-1.0001999,8.743374,4.345366,3
19568799330587,-1.0959128,8.729017,4.359723,3
19568801709753,-1.2251252,8.724232,4.3645086,3
19568804088972,-1.3256238,8.738588,4.3788652,3
19568806468087,-1.4069797,8.748159,4.3740797,3
19568808847253,-1.4596218,8.7673025,4.3836513,3
19568811226472,-1.4931214,8.786445,4.3788652,3
19568813605639,-1.5026926,8.805588,4.3788652,3
19568815984805,-1.4739788,8.796016,4.388437,3
19568818363972,-1.4213367,8.79123,4.398008,3
19568820743139,-1.3639089,8.815159,4.388437,3
19568823122305,-1.2873386,8.805588,4.3740797,3
19568825501472,-1.1820544,8.810373,4.3645086,3
19568827880639,-1.1006985,8.810373,4.3357944,3
19568830259805,-1.0432707,8.819944,4.316652,3
19568832638972,-0.9762716,8.805588,4.3501515,3
19568835018139,-0.9236295,8.805588,4.359723,3
19568837397305,-0.8709874,8.781659,4.388437,3
19568839776472,-0.85184485,8.7673025,4.3788652,3
19568842155639,-0.89013004,8.762517,4.3501515,3
19568844534805,-0.91405827,8.752945,4.354937,3
19568846913920,-0.9619147,8.752945,4.3836513,3
19568849293139,-1.0049855,8.752945,4.3836513,3
19568851672305,-1.0480564,8.796016,4.412365,3
19568854051472,-1.0815558,8.800801,4.4458647,3
19568856430639,-1.1246266,8.800801,4.45065,3
19568858809805,-1.1581261,8.82473,4.45065,3
19568861188972,-1.1533405,8.805588,4.465007,3
19568863568139,-1.1437693,8.805588,4.4889355,3
19568865947305,-1.1246266,8.796016,4.5224347,3
19568868326472,-1.0576276,8.805588,4.56072,3
19568870705639,-0.9954142,8.776874,4.6037908,3
19568873084805,-0.94277215,8.772088,4.613362,3
19568875463972,-0.89013004,8.7577305,4.5798626,3
19568877843139,-0.8327023,8.752945,4.5224347,3
19568880222305,-0.74177504,8.738588,4.469793,3
19568882601472,-0.67477596,8.7577305,4.4171505,3
19568884980639,-0.6556334,8.748159,4.4171505,3
19568887359805,-0.6364908,8.743374,4.4171505,3
19568889738972,-0.6412765,8.733803,4.4075794,3
19568892118139,-0.6891329,8.71466,4.402794,3
19568894497305,-0.7082755,8.724232,4.3740797,3
19568896876472,-0.7752745,8.7577305,4.321438,3
19568899255639,-0.8279166,8.772088,4.321438,3
19568901634805,-0.94277215,8.7673025,4.3357944,3
19568904013972,-1.0289137,8.762517,4.3262234,3
19568906393139,-1.105484,8.796016,4.3118663,3
19568908772305,-1.1676974,8.772088,4.3070807,3
19568911151472,-1.2299109,8.729017,4.2927237,3
19568913530639,-1.2586247,8.7577305,4.1635113,3
19568915909805,-1.3160524,8.867801,4.005585,3
19568918288972,-1.3256238,8.9348,3.9242291,3
19568920668139,-1.2969099,8.920443,4.0534415,3
19568923047305,-1.2394822,8.843872,4.388437,3
19568925426472,-1.1820544,8.79123,4.6468616,3
19568927805639,-1.105484,8.843872,4.618148,3
19568930184805,-1.0049855,8.925228,4.3405805,3
19568932563972,-0.91405827,8.963513,4.0295134,3
19568934943139,-0.79441714,8.968299,3.9673,3
19568937322305,-0.6795616,8.920443,4.1491547,3
19568939701472,-0.61734825,8.848659,4.4554358,3
19568942080639,-0.5599205,8.800801,4.666004,3
19568944459805,-0.5072784,8.85823,4.421936,3
19568946838972,-0.49292147,8.9826565,3.723232,3
19568949218139,-0.5886344,9.092726,3.656233,3
19568951597305,-0.6891329,8.82473,4.493721,3
19568953976472,-0.6125626,8.52802,5.197211,3
19568956355639,-0.94755775,8.63809,5.345566,3
19568958734805,-0.9954142,8.709874,4.5942197,3
19568961114024,-1.0719845,8.719446,3.6323047,3
19568963493139,-1.18684,8.800801,3.182454,3
19568965872305,-1.3926228,8.9013,3.7328033,3
19568968251472,-1.402194,8.709874,4.752146,3
19568970630691,-1.4931214,8.566305,5.5944195,3
19568973009857,-1.6319051,8.599805,5.7427745,3
19568975389024,-1.6175481,8.681161,5.0679984,3
19568977768191,-1.6319051,8.79123,4.240082,3
19568980147357,-1.6127625,8.886943,3.7998023,3
19568982526472,-1.5744773,8.872586,4.1491547,3
19568984905691,-1.5074782,8.690732,5.005785,3
19568987284857,-1.430908,8.623733,5.814559,3
19568989664024,-1.3351951,8.623733,5.9437714,3
19568992043191,-1.2203395,8.685946,5.3647084,3
19568994422357,-1.0432707,8.7577305,4.4745784,3
19568996801524,-0.89013004,8.805588,3.8476589,3
19568999180691,-0.76570326,8.79123,3.8572302,3
19569001559857,-0.6843473,8.705089,4.4315076,3
19569003939024,-0.5982057,8.585447,5.0775695,3
19569006318191,-0.57906306,8.595019,5.355137,3
19569008697357,-0.51206404,8.585447,5.020142,3
19569011076524,-0.5024927,8.63809,4.321438,3
19569013455691,-0.52163535,8.738588,3.6753755,3
19569015834857,-0.5838487,8.796016,3.4743786,3
19569018214024,-0.6412765,8.776874,3.7423747,3
19569020593191,-0.72741807,8.7673025,4.2448673,3
19569022972357,-0.8279166,8.819944,4.6085763,3
19569025351524,-0.89013004,8.82473,4.5559344,3
19569027730691,-0.9523434,8.915657,4.173083,3
19569030109857,-0.9762716,8.992228,3.6993039,3
19569032489024,-1.0097711,9.025727,3.5509489,3
19569034868191,-1.0576276,8.944371,3.790231,3
19569037247357,-1.052842,8.829515,4.23051,3
19569039626524,-1.0289137,8.79123,4.4889355,3
19569042005691,-1.0241281,8.834301,4.3740797,3
19569044384857,-0.971486,8.867801,4.0438704,3
19569046764024,-0.8805587,8.85823,3.7328033,3
19569049143191,-0.8422736,8.839087,3.7280176,3
19569051522357,-0.7082755,8.781659,3.8955152,3
19569053901524,-0.6412765,8.7673025,4.211368,3
19569056280691,-0.5694918,8.743374,4.4171505,3
19569058659857,-0.5168497,8.724232,4.426722,3
19569061039024,-0.49292147,8.662018,4.287938,3
19569063418191,-0.4642076,8.628518,4.091727,3
19569065797357,-0.44985065,8.623733,4.082155,3
19569068176524,-0.4546363,8.590233,4.331009,3
19569070555691,-0.47377887,8.585447,4.7042894,3
19569072934857,-0.49292147,8.647661,4.9579287,3
19569075314024,-0.5168497,8.733803,4.914858,3
19569077693191,-0.5694918,8.810373,4.5942197,3
19569080072357,-0.5838487,8.867801,4.254439,3
19569082451524,-0.67477596,8.891729,4.1204405,3
19569084830691,-0.74177504,8.872586,4.278367,3
19569087209805,-0.80877405,8.829515,4.613362,3
19569089589024,-0.8709874,8.781659,4.900501,3
19569091968191,-0.94755775,8.781659,5.0009995,3
19569094347357,-1.0049855,8.776874,4.843073,3
19569096726524,-1.0289137,8.79123,4.6037908,3
19569099105691,-1.0432707,8.863015,4.4171505,3
19569101484857,-1.0432707,8.843872,4.4171505,3
19569103864024,-1.0815558,8.781659,4.584648,3
19569106243191,-1.0671989,8.676374,4.761717,3
19569108622357,-1.052842,8.508878,4.790431,3
19569111001524,-1.0432707,8.4705925,4.709075,3
19569113380691,-1.0049855,8.685946,4.503292,3
19569115759857,-1.0193424,8.977871,4.211368,3
19569118139024,-1.0767702,9.178867,4.2927237,3
19569120518191,-1.0289137,8.997013,4.465007,3
19569122897357,-1.0432707,8.547162,4.536792,3
19569125276524,-1.0576276,8.312666,4.316652,3
19569127655691,-1.0336994,8.633304,3.9816568,3
19569130034857,-0.9619147,9.255438,3.5509489,3
19569132414024,-1.0145568,9.466006,2.9192436,3
19569134793191,-1.0671989,9.389436,2.900101,3
19569137172357,-0.8709874,9.150154,3.6227336,3
19569139551524,-0.8422736,8.877372,4.4985065,3
19569141930691,-0.9284152,8.695518,5.072784,3
19569144309857,-0.91884387,8.729017,5.130212,3
19569146689024,-0.7800602,8.848659,4.709075,3
19569149068191,-0.86141616,8.891729,4.197011,3
19569151447357,-0.91405827,8.9108715,3.952943,3
19569153826524,-0.82313097,8.891729,4.1874394,3
19569156205691,-0.86141616,8.786445,4.685147,3
19569158584857,-0.94755775,8.609376,5.0919266,3
19569160964024,-0.9236295,8.499306,5.1924253,3
19569163343191,-0.89491564,8.547162,4.8526444,3
19569165722357,-0.9954142,8.595019,4.2927237,3
19569168101524,-1.0671989,8.585447,4.0151563,3
19569170480691,-1.0241281,8.4705925,4.220939,3
19569172859857,-1.0959128,8.580662,4.924429,3
19569175239024,-1.1581261,8.451449,5.3407803,3
19569177618191,-1.119841,8.403593,5.465207,3
19569179997357,-1.1102697,8.46102,5.3407803,3
19569182376472,-1.1150553,8.523234,4.981857,3
19569184755691,-1.0480564,8.508878,4.6037908,3
19569187134910,-0.94755775,8.642876,4.5942197,3
19569189514024,-0.91405827,8.71466,4.85743,3
19569191893243,-0.85184485,8.71466,5.144569,3
19569194272305,-0.7609176,8.819944,5.312066,3
19569196651576,-0.7082755,8.925228,5.1924253,3
19569199030743,-0.6795616,8.949157,4.7856455,3
19569201409910,-0.6221339,8.997013,4.402794,3
19569203789076,-0.5599205,9.035298,4.1874394,3
19569206168243,-0.5455636,8.992228,4.2448673,3
19569208547357,-0.5312066,8.968299,4.45065,3
19569210926576,-0.5024927,8.953942,4.666004,3
19569213305743,-0.47856453,8.9108715,4.6229334,3
19569215684910,-0.5024927,8.872586,4.398008,3
19569218064076,-0.52163535,8.839087,4.1108694,3
19569220443243,-0.5024927,8.743374,3.9242291,3
19569222822410,-0.5407779,8.599805,3.8955152,3
19569225201576,-0.57427746,8.504091,3.9577286,3
19569227580743,-0.6364908,8.484949,4.0007997,3
19569229959910,-0.6795616,8.456235,3.9433718,3
19569232339076,-0.6987042,8.5423765,3.818945,3
19569234718243,-0.6652047,8.690732,3.6227336,3
19569237097410,-0.6364908,8.877372,3.4456646,3
19569239476576,-0.57427746,8.9826565,3.330809,3
19569241855743,-0.4833502,9.111869,3.359523,3
19569244234910,-0.37328035,9.150154,3.5270207,3
19569246614076,-0.27756742,9.035298,3.7280176,3
19569248993243,-0.17228323,8.848659,3.8955152,3
19569251372410,0.023928227,8.79123,3.9864426,3
19569253751576,0.2105684,8.920443,3.952943,3
19569256130743,0.32542387,8.992228,3.7471602,3
19569258509910,0.4354937,8.992228,3.603591,3
19569260889076,0.5838487,8.992228,3.5940197,3
19569263268243,0.6125626,8.992228,3.7040894,3
19569265647410,0.60777694,8.872586,3.9577286,3
19569268026576,0.5886344,8.729017,4.316652,3
19569270405743,0.44985065,8.6141615,4.584648,3
19569272784910,0.19621146,8.537591,4.6755753,3
19569275164076,-0.062213387,8.480164,4.6707897,3
19569277543243,-0.33499518,8.441878,4.694718,3
19569279922410,-0.65084773,8.413164,4.8095737,3
19569282301576,-0.9762716,8.350951,5.048856,3
19569284680743,-1.282553,8.370093,5.369494,3
19569287059910,-1.5888343,8.480164,5.5944195,3
19569289439076,-1.8807586,8.571091,5.4699926,3
19569291818191,-2.1391835,8.681161,5.3072805,3
19569294197410,-2.3401806,8.671589,5.1493545,3
19569296576576,-2.4837499,8.724232,5.3072805,3
19569298955743,-2.5316064,8.681161,5.5130634,3
19569301334910,-2.5507488,8.6141615,5.7858453,3
19569303714076,-2.4454648,8.580662,5.9007006,3
19569306093243,-2.3114667,8.5423765,5.8097734,3
19569308472410,-2.0865414,8.595019,5.5130634,3
19569310851576,-1.7802601,8.666803,5.1158547,3
19569313230743,-1.4596218,8.738588,4.7856455,3
19569315609910,-1.1581261,8.7577305,4.570291,3
19569317989076,-0.8757731,8.796016,4.536792,3
19569320368243,-0.66041905,8.752945,4.5272202,3
19569322747410,-0.47856453,8.752945,4.5272202,3
19569325126576,-0.38285163,8.733803,4.3932223,3
19569327505743,-0.35413775,8.733803,4.2161536,3
19569329884910,-0.4211368,8.695518,4.024728,3
19569332264076,-0.53599226,8.729017,3.9338005,3
19569334643243,-0.7082755,8.748159,3.9625144,3
19569337022410,-0.9379865,8.776874,4.0534415,3
19569339401576,-1.1772687,8.781659,4.1204405,3
19569341780743,-1.402194,8.815159,4.115655,3
19569344159910,-1.6031911,8.9108715,4.058227,3
19569346539076,-1.8233309,8.949157,3.9625144,3
19569348918243,-1.9573289,8.968299,3.9098723,3
19569351297410,-2.053042,8.992228,3.9625144,3
19569353676576,-2.0721843,8.9826565,4.0869412,3
19569356055743,-2.0003998,8.968299,4.1874394,3
19569358434910,-1.8711873,8.968299,4.211368,3
19569360814076,-1.6175481,8.992228,4.1491547,3
19569363193243,-1.3639089,8.992228,4.0295134,3
19569365572357,-1.0624132,8.977871,3.9194436,3
19569367951576,-0.7369894,9.001799,3.8620157,3
19569370330743,-0.3924229,8.992228,3.9242291,3
19569372709910,-0.062213387,8.949157,4.034299,3
19569375089076,0.21535404,8.891729,4.182654,3
19569377468243,0.45942193,8.843872,4.26401,3
19569379847410,0.6412765,8.819944,4.2592244,3
19569382226576,0.7082755,8.82473,4.1778684,3
19569384605743,0.71306115,8.82473,4.101298,3
19569386984910,0.5982057,8.834301,4.1108694,3
19569389364076,0.4019942,8.805588,4.1778684,3
19569391743243,0.15314065,8.781659,4.3070807,3
19569394122410,-0.14356937,8.79123,4.4075794,3
19569396501576,-0.4642076,8.786445,4.45065,3
19569398880743,-0.7896315,8.796016,4.3836513,3
19569401259910,-1.038485,8.810373,4.354937,3
19569403639076,-1.2873386,8.82473,4.369294,3
19569406018243,-1.5026926,8.781659,4.45065,3
19569408397410,-1.6654046,8.743374,4.5894337,3
19569410776576,-1.7850457,8.7673025,4.7282176,3
19569413155743,-1.7946169,8.796016,4.790431,3
19569415534910,-1.7467605,8.829515,4.7808595,3
19569417914076,-1.6558332,8.863015,4.694718,3
19569420293243,-1.4739788,8.877372,4.613362,3
19569422672410,-1.2442678,8.877372,4.575077,3
19569425051576,-0.9906286,8.886943,4.5894337,3
19569427430743,-0.6843473,8.853444,4.618148,3
19569429809910,-0.41635114,8.82473,4.627719,3
19569432189076,-0.11964113,8.781659,4.618148,3
19569434568243,0.124426775,8.729017,4.5894337,3
19569436947410,0.3589234,8.724232,4.479364,3
19569439326576,0.53599226,8.733803,4.4315076,3
19569441705743,0.6364908,8.738588,4.4410787,3
19569444084910,0.66999036,8.724232,4.469793,3
19569446464076,0.61734825,8.738588,4.4985065,3
19569448843243,0.5024927,8.786445,4.493721,3
19569451222410,0.3493521,8.800801,4.45065,3
19569453601576,0.16749759,8.853444,4.402794,3
19569455980743,-0.1052842,8.882157,4.359723,3
19569458359910,-0.3684947,8.925228,4.331009,3
19569460739076,-0.6364908,8.930014,4.3405805,3
19569463118243,-0.8757731,8.953942,4.388437,3
19569465497410,-1.0815558,8.968299,4.4075794,3
19569467876576,-1.2203395,9.006584,4.388437,3
19569470255743,-1.3686945,9.030513,4.3357944,3
19569472634910,-1.4356936,9.030513,4.2592244,3
19569475014076,-1.4500505,9.001799,4.211368,3
19569477393243,-1.4404793,8.977871,4.197011,3
19569479772410,-1.3782659,8.944371,4.2257247,3
19569482151576,-1.2394822,8.9348,4.278367,3
19569484530743,-1.0624132,8.896515,4.26401,3
19569486909910,-0.85184485,8.882157,4.240082,3
19569489289076,-0.6221339,8.867801,4.206582,3
19569491668243,-0.43070808,8.843872,4.1778684,3
19569494047410,-0.22971097,8.863015,4.1874394,3
19569496426576,-0.06699903,8.82473,4.2257247,3
19569498805743,0.0526421,8.815159,4.2927237,3
19569501184857,0.13878371,8.796016,4.3070807,3
19569503564076,0.18185452,8.781659,4.3070807,3
19569505943243,0.19621146,8.796016,4.278367,3
19569508322410,0.11006984,8.819944,4.273581,3
19569510701576,-0.038285162,8.839087,4.316652,3
19569513080743,-0.16271193,8.85823,4.3501515,3
19569515459910,-0.33020952,8.853444,4.3932223,3
19569517839076,-0.55034924,8.9013,4.436293,3
19569520218243,-0.72741807,8.9013,4.4458647,3
19569522597410,-0.91884387,8.882157,4.4315076,3
19569524976576,-1.0719845,8.863015,4.4171505,3
19569527355743,-1.2203395,8.843872,4.402794,3
19569529734910,-1.3447664,8.819944,4.421936,3
19569532114076,-1.402194,8.800801,4.503292,3
19569534493243,-1.4213367,8.786445,4.551149,3
19569536872410,-1.4069797,8.800801,4.584648,3
19569539251524,-1.3543376,8.805588,4.546363,3
19569541630743,-1.2586247,8.853444,4.517649,3
19569544009910,-1.1676974,8.891729,4.5224347,3
19569546389024,-1.0289137,8.925228,4.503292,3
19569548768243,-0.85184485,8.977871,4.5272202,3
19569551147410,-0.71306115,9.016156,4.5415773,3
19569553526524,-0.5982057,9.025727,4.5798626,3
19569555905743,-0.47377887,9.040084,4.6037908,3
19569558284910,-0.3589234,9.020942,4.6037908,3
19569560664076,-0.28713873,9.006584,4.618148,3
19569563043243,-0.25842485,8.944371,4.6085763,3
19569565422410,-0.2727818,8.853444,4.613362,3
19569567801576,-0.3062813,8.781659,4.6037908,3
19569570180743,-0.4019942,8.738588,4.6372905,3
19569572559910,-0.52163535,8.676374,4.685147,3
19569574939076,-0.6556334,8.695518,4.733003,3
19569577318243,-0.82313097,8.709874,4.7856455,3
19569579697410,-1.0097711,8.738588,4.7712884,3
19569582076576,-1.1581261,8.800801,4.723432,3
19569584455743,-1.3686945,8.920443,4.6707897,3
19569586834910,-1.5361922,8.977871,4.627719,3
19569589214076,-1.7180467,9.016156,4.6803613,3
19569591593243,-1.875973,9.016156,4.723432,3
19569593972410,-1.9812572,9.016156,4.7377887,3
19569596351576,-2.062613,9.020942,4.6899323,3
19569598730743,-2.0817556,8.997013,4.5559344,3
19569601109910,-2.07697,8.977871,4.421936,3
19569603489076,-2.0386848,8.9348,4.359723,3
19569605868243,-1.9573289,8.968299,4.465007,3
19569608247410,-1.7850457,8.920443,4.536792,3
19569610626576,-1.6031911,8.906086,4.5272202,3
19569613005743,-1.3064811,8.963513,4.4745784,3
19569615384910,-0.9954142,8.805588,4.15394,3
19569617764076,-0.8039884,8.690732,3.9768713,3
19569620143243,-0.5072784,8.676374,4.0390844,3
19569622522410,-0.32542387,8.518449,4.2831526,3
19569624901576,-0.22971097,8.456235,4.4841495,3
19569627280743,-0.22013968,8.4705925,4.465007,3
19569629659910,-0.22013968,8.571091,4.2448673,3
19569632039076,-0.27756742,8.585447,3.8811584,3
19569634418243,-0.4019942,8.63809,3.6466618,3
19569636797410,-0.5407779,8.695518,3.6610186,3
19569639176576,-0.72741807,8.690732,3.8620157,3
19569641555743,-0.8997013,8.671589,4.1108694,3
19569643934910,-1.0480564,8.738588,4.182654,3
19569646314076,-1.2011969,8.85823,4.0534415,3
19569648693243,-1.3208381,8.882157,3.8285162,3
19569651072410,-1.4644074,8.891729,3.694518,3
19569653451576,-1.5696917,8.886943,3.8141594,3
19569655830743,-1.6462619,8.810373,4.182654,3
19569658209910,-1.6893328,8.743374,4.5415773,3
19569660589076,-1.6749759,8.695518,4.761717,3
19569662968243,-1.6558332,8.719446,4.7282176,3
19569665347410,-1.550549,8.719446,4.5559344,3
19569667726576,-1.4117653,8.724232,4.398008,3
19569670105743,-1.2251252,8.729017,4.3262234,3
19569672484910,-1.0193424,8.676374,4.4889355,3
19569674864076,-0.81834537,8.618947,4.7042894,3
19569677243243,-0.63170516,8.60459,4.814359,3
19569679622410,-0.44506502,8.595019,4.752146,3
19569682001576,-0.2727818,8.633304,4.5655055,3
19569684380743,-0.13399807,8.676374,4.321438,3
19569686759910,-0.009571291,8.700303,4.2448673,3
19569689139076,0.02871387,8.719446,4.3262234,3
19569691518243,0.02871387,8.666803,4.5272202,3
19569693897410,0.019142581,8.652447,4.7042894,3
19569696276576,-0.014356935,8.719446,4.74736,3
19569698655743,-0.033499517,8.738588,4.5894337,3
19569701034910,-0.10049855,8.71466,4.4171505,3
19569703414076,-0.13399807,8.681161,4.3405805,3
19569705793243,-0.15792629,8.709874,4.469793,3
19569708172410,-0.23449662,8.700303,4.6468616,3
19569710551576,-0.29671,8.695518,4.74736,3
19569712930743,-0.35413775,8.733803,4.718646,3
19569715309910,-0.41635114,8.733803,4.5655055,3
19569717689076,-0.42592242,8.729017,4.4458647,3
19569720068243,-0.4019942,8.724232,4.426722,3
19569722447410,-0.3589234,8.762517,4.465007,3
19569724826576,-0.29192436,8.805588,4.479364,3
19569727205743,-0.22013968,8.796016,4.465007,3
19569729584910,-0.124426775,8.82473,4.4075794,3
19569731964076,-0.014356935,8.829515,4.3070807,3
19569734343243,0.09092726,8.85823,4.23051,3
19569736722410,0.2009971,8.863015,4.182654,3
19569739101576,0.2632105,8.872586,4.197011,3
19569741480743,0.29671,8.867801,4.2257247,3
19569743859910,0.33499518,8.867801,4.2352962,3
19569746239076,0.33020952,8.886943,4.211368,3
19569748618243,0.29192436,8.896515,4.197011,3
19569750997410,0.2105684,8.872586,4.168297,3
19569753376576,0.124426775,8.843872,4.1347976,3
19569755755743,0.014356935,8.843872,4.1778684,3
19569758134910,-0.1052842,8.834301,4.2352962,3
19569760514076,-0.20578274,8.819944,4.3070807,3
19569762893243,-0.34456646,8.800801,4.3405805,3
19569765272410,-0.47377887,8.796016,4.2927237,3
19569767651576,-0.6029913,8.781659,4.26401,3
19569770030743,-0.6891329,8.733803,4.2831526,3
19569772409910,-0.76570326,8.705089,4.3357944,3
19569774789076,-0.81834537,8.743374,4.4075794,3
19569777168243,-0.8279166,8.738588,4.421936,3
19569779547410,-0.8327023,8.7577305,4.412365,3
19569781926576,-0.8039884,8.7577305,4.3836513,3
19569784305743,-0.75613195,8.7577305,4.3645086,3
19569786684910,-0.6891329,8.743374,4.398008,3
19569789064076,-0.5982057,8.719446,4.4602213,3
19569791443243,-0.5072784,8.772088,4.5320063,3
19569793822410,-0.43070808,8.79123,4.56072,3
19569796201576,-0.31585258,8.781659,4.493721,3
19569798580743,-0.21535404,8.79123,4.426722,3
19569800959910,-0.13878371,8.815159,4.402794,3
19569803339076,-0.06699903,8.786445,4.469793,3
19569805718243,-0.019142581,8.796016,4.5559344,3
19569808097410,-0.014356935,8.800801,4.618148,3
19569810476576,-0.033499517,8.839087,4.570291,3
19569812855743,-0.0526421,8.863015,4.465007,3
19569815234910,-0.09571291,8.9108715,4.388437,3
19569817614076,-0.15314065,8.9108715,4.3501515,3
19569819993243,-0.22492532,8.872586,4.4315076,3
19569822372357,-0.31585258,8.853444,4.56072,3
19569824751576,-0.38285163,8.839087,4.651647,3
19569827130743,-0.44027936,8.863015,4.651647,3
19569829509910,-0.4977071,8.867801,4.5655055,3
19569831889076,-0.55513483,8.9013,4.465007,3
19569834268243,-0.57906306,8.891729,4.4171505,3
19569836647410,-0.59342,8.867801,4.436293,3
19569839026576,-0.57906306,8.863015,4.517649,3
19569841405743,-0.5455636,8.863015,4.5798626,3
19569843784910,-0.5024927,8.834301,4.5655055,3
19569846164076,-0.44506502,8.839087,4.551149,3
19569848543243,-0.38763726,8.834301,4.508078,3
19569850922410,-0.3062813,8.829515,4.4841495,3
19569853301576,-0.2009971,8.819944,4.469793,3
19569855680743,-0.12921242,8.805588,4.465007,3
19569858059910,-0.0526421,8.786445,4.493721,3
19569860439076,0.019142581,8.752945,4.517649,3
19569862818243,0.062213387,8.71466,4.5415773,3
19569865197410,0.11964113,8.738588,4.508078,3
19569867576576,0.124426775,8.729017,4.4554358,3
19569869955743,0.148355,8.729017,4.3836513,3
19569872334910,0.09092726,8.762517,4.3262234,3
19569874714076,0.06699903,8.738588,4.2927237,3
19569877093243,0.0047856453,8.743374,4.2927237,3
19569879472410,-0.086141616,8.752945,4.3262234,3
19569881851576,-0.18185452,8.724232,4.3645086,3
19569884230691,-0.26799613,8.71466,4.354937,3
19569886609910,-0.34456646,8.71466,4.345366,3
19569888989076,-0.38763726,8.719446,4.369294,3
19569891368243,-0.4354937,8.695518,4.388437,3
19569893747410,-0.5024927,8.709874,4.4315076,3
19569896126576,-0.55513483,8.733803,4.4602213,3
19569898505743,-0.5982057,8.729017,4.4554358,3
19569900884910,-0.61734825,8.733803,4.45065,3
19569903264076,-0.64606214,8.705089,4.469793,3
19569905643243,-0.65084773,8.685946,4.508078,3
19569908022357,-0.67477596,8.685946,4.5894337,3
19569910401524,-0.6843473,8.709874,4.6229334,3
19569912780743,-0.66999036,8.738588,4.5942197,3
19569915159857,-0.66999036,8.7577305,4.5224347,3
19569917539024,-0.6939186,8.79123,4.4602213,3
19569919918191,-0.6939186,8.79123,4.469793,3
19569922297357,-0.70348984,8.781659,4.5272202,3
19569924676524,-0.71306115,8.786445,4.599005,3
19569927055691,-0.7322037,8.786445,4.6085763,3
19569929434857,-0.7896315,8.82473,4.5415773,3
19569931814024,-0.8039884,8.829515,4.4745784,3
19569934193191,-0.8135597,8.834301,4.45065,3
19569936572357,-0.8422736,8.82473,4.4554358,3
19569938951524,-0.89491564,8.82473,4.5224347,3
19569941330691,-0.8997013,8.82473,4.5942197,3
19569943709857,-0.9523434,8.815159,4.6085763,3
19569946089024,-0.9619147,8.796016,4.575077,3
19569948468139,-0.9762716,8.79123,4.4985065,3
19569950847357,-1.0145568,8.781659,4.4458647,3
19569953226524,-0.9906286,8.800801,4.4841495,3
19569955605691,-1.0193424,8.815159,4.56072,3
19569957984857,-1.052842,8.839087,4.5655055,3
19569960364024,-1.038485,8.843872,4.517649,3
19569962743191,-1.0241281,8.877372,4.4410787,3
19569965122357,-1.0097711,8.891729,4.3501515,3
19569967501524,-0.9619147,8.891729,4.278367,3
19569969880691,-0.9284152,8.882157,4.26401,3
19569972259857,-0.89491564,8.906086,4.278367,3
19569974639024,-0.8327023,8.920443,4.2687955,3
19569977018139,-0.7752745,8.9348,4.2352962,3
19569979397357,-0.6987042,8.944371,4.1587257,3
19569981776524,-0.6412765,8.9348,4.101298,3
19569984155691,-0.57427746,8.930014,4.082155,3
19569986534857,-0.5024927,8.925228,4.1204405,3
19569988914024,-0.45942193,8.920443,4.1874394,3
19569991293191,-0.44985065,8.891729,4.2592244,3
19569993672357,-0.45942193,8.877372,4.273581,3
19569996051524,-0.47856453,8.863015,4.249653,3
19569998430639,-0.4977071,8.872586,4.23051,3
19570000809857,-0.5694918,8.85823,4.220939,3
19570003189024,-0.64606214,8.85823,4.249653,3
19570005568191,-0.7513463,8.834301,4.302295,3
19570007947357,-0.8662018,8.82473,4.402794,3
19570010326524,-0.9619147,8.805588,4.4458647,3
19570012705691,-1.0480564,8.79123,4.426722,3
19570015084857,-1.1581261,8.776874,4.398008,3
19570017464024,-1.2442678,8.79123,4.369294,3
19570019843191,-1.3016955,8.796016,4.3836513,3
19570022222357,-1.3591232,8.800801,4.402794,3
19570024601524,-1.402194,8.748159,4.465007,3
19570026980691,-1.4261223,8.729017,4.517649,3
19570029359857,-1.4213367,8.738588,4.56072,3
19570031739024,-1.4069797,8.743374,4.56072,3
19570034118191,-1.3543376,8.7577305,4.493721,3
19570036497357,-1.2921243,8.781659,4.4458647,3
19570038876524,-1.2203395,8.781659,4.436293,3
19570041255691,-1.1294123,8.7577305,4.465007,3
19570043634857,-1.0671989,8.733803,4.4985065,3
19570046014024,-0.9954142,8.738588,4.5128636,3
19570048393191,-0.91405827,8.7673025,4.4745784,3
19570050772357,-0.8279166,8.772088,4.412365,3
19570053151524,-0.7704889,8.79123,4.3645086,3
19570055530691,-0.7178468,8.776874,4.354937,3
19570057909857,-0.67477596,8.786445,4.3501515,3
19570060289024,-0.6412765,8.781659,4.369294,3
19570062668191,-0.6364908,8.796016,4.3740797,3
19570065047357,-0.6221339,8.786445,4.3788652,3
19570067426524,-0.61734825,8.776874,4.354937,3
19570069805691,-0.6652047,8.781659,4.302295,3
19570072184857,-0.6939186,8.79123,4.2975097,3
19570074564024,-0.7178468,8.819944,4.2831526,3
19570076943191,-0.7322037,8.82473,4.2831526,3
19570079322357,-0.7609176,8.829515,4.3262234,3
19570081701524,-0.7752745,8.815159,4.359723,3
19570084080691,-0.79920274,8.829515,4.3501515,3
19570086459857,-0.80877405,8.82473,4.3501515,3
19570088839024,-0.7848458,8.815159,4.3405805,3
19570091218191,-0.7369894,8.839087,4.354937,3
19570093597357,-0.67477596,8.82473,4.359723,3
19570095976524,-0.6364908,8.819944,4.3788652,3
19570098355691,-0.5982057,8.815159,4.3788652,3
19570100734857,-0.5312066,8.810373,4.388437,3
19570103114024,-0.45942193,8.819944,4.3836513,3
19570105493191,-0.3924229,8.815159,4.3788652,3
19570107872357,-0.35413775,8.82473,4.388437,3
19570110251524,-0.33020952,8.800801,4.402794,3
19570112630691,-0.31585258,8.805588,4.4171505,3
19570115009805,-0.31585258,8.810373,4.4410787,3
19570117389024,-0.32063824,8.800801,4.4315076,3
19570119768191,-0.3397808,8.786445,4.4458647,3
19570122147357,-0.41635114,8.776874,4.4458647,3
19570124526524,-0.47377887,8.781659,4.4458647,3
19570126905691,-0.53599226,8.748159,4.4602213,3
19570129284857,-0.6412765,8.743374,4.469793,3
19570131663972,-0.7752745,8.738588,4.4889355,3
19570134043191,-0.8662018,8.738588,4.4985065,3
19570136422357,-0.971486,8.729017,4.5224347,3
19570138801524,-1.038485,8.724232,4.4985065,3
19570141180639,-1.119841,8.705089,4.4841495,3
19570143559805,-1.1916257,8.690732,4.5128636,3
19570145938972,-1.2107682,8.700303,4.5415773,3
19570148318087,-1.2346965,8.71466,4.5559344,3
19570150697357,-1.2490535,8.709874,4.56072,3
19570153076524,-1.2299109,8.71466,4.5655055,3
19570155455639,-1.1820544,8.7673025,4.546363,3
19570157834805,-1.1150553,8.781659,4.5559344,3
19570160213972,-1.0576276,8.7673025,4.570291,3
19570162593139,-0.9906286,8.7673025,4.5894337,3
19570164972305,-0.90448695,8.79123,4.6085763,3
19570167351472,-0.82313097,8.786445,4.5942197,3
19570169730639,-0.75613195,8.805588,4.56072,3
19570172109805,-0.6843473,8.829515,4.517649,3
19570174488972,-0.6269195,8.834301,4.493721,3
19570176868139,-0.57906306,8.839087,4.469793,3
19570179247305,-0.55034924,8.82473,4.4554358,3
19570181626472,-0.51206404,8.82473,4.465007,3
19570184005639,-0.49292147,8.800801,4.479364,3
19570186384805,-0.5168497,8.815159,4.45065,3
19570188763972,-0.5455636,8.819944,4.426722,3
19570191143139,-0.5982057,8.800801,4.388437,3
19570193522305,-0.63170516,8.805588,4.3788652,3
19570195901472,-0.7082755,8.79123,4.402794,3
19570198280639,-0.7369894,8.781659,4.412365,3
19570200659805,-0.80877405,8.776874,4.426722,3
19570203038972,-0.82313097,8.7577305,4.398008,3
19570205418139,-0.8566305,8.752945,4.359723,3
19570207797305,-0.89491564,8.762517,4.3262234,3
19570210176472,-0.89491564,8.748159,4.316652,3
19570212555639,-0.9284152,8.7577305,4.3262234,3
19570214934805,-0.89013004,8.748159,4.345366,3
19570217313972,-0.8279166,8.752945,4.3357944,3
19570219693139,-0.7896315,8.752945,4.3357944,3
19570222072305,-0.7513463,8.7673025,4.331009,3
19570224451472,-0.6652047,8.772088,4.3262234,3
19570226830639,-0.6125626,8.800801,4.3118663,3
19570229209805,-0.5694918,8.79123,4.321438,3
19570231588972,-0.51206404,8.772088,4.354937,3
19570233968139,-0.4642076,8.772088,4.369294,3
19570236347305,-0.44506502,8.752945,4.3836513,3
19570238726472,-0.4354937,8.748159,4.398008,3
19570241105639,-0.41156548,8.748159,4.402794,3
19570243484805,-0.42592242,8.743374,4.426722,3
19570245863972,-0.45942193,8.724232,4.436293,3
19570248243139,-0.51206404,8.743374,4.45065,3
19570250622305,-0.5838487,8.729017,4.4602213,3
19570253001472,-0.6269195,8.743374,4.4841495,3
19570255380639,-0.6795616,8.729017,4.4889355,3
19570257759805,-0.7513463,8.733803,4.4889355,3
19570260138972,-0.8039884,8.738588,4.4841495,3
19570262518087,-0.86141616,8.762517,4.4985065,3
19570264897305,-0.8997013,8.781659,4.503292,3
19570267276472,-0.9379865,8.776874,4.5128636,3
19570269655639,-0.9762716,8.776874,4.5128636,3
19570272034805,-0.9667004,8.79123,4.5224347,3
19570274413972,-0.9619147,8.800801,4.5224347,3
19570276793139,-0.95712906,8.810373,4.508078,3
19570279172305,-0.9379865,8.829515,4.503292,3
19570281551472,-0.8662018,8.839087,4.4889355,3
19570283930639,-0.8566305,8.839087,4.4889355,3
19570286309805,-0.80877405,8.85823,4.4889355,3
19570288688920,-0.7800602,8.843872,4.479364,3
19570291068139,-0.7369894,8.853444,4.465007,3
19570293447305,-0.66041905,8.863015,4.4458647,3
19570295826472,-0.6029913,8.863015,4.4171505,3
19570298205639,-0.55034924,8.85823,4.4075794,3
19570300584805,-0.5168497,8.834301,4.426722,3
19570302963972,-0.4881358,8.843872,4.4315076,3
19570305343139,-0.47377887,8.839087,4.4315076,3
19570307722305,-0.44985065,8.829515,4.421936,3
19570310101420,-0.42592242,8.810373,4.4075794,3
19570312480639,-0.4211368,8.805588,4.4171505,3
19570314859805,-0.41156548,8.796016,4.4315076,3
19570317238972,-0.41635114,8.796016,4.4171505,3
19570319618087,-0.45942193,8.800801,4.4075794,3
19570321997253,-0.47377887,8.7577305,4.436293,3
19570324376420,-0.5024927,8.7577305,4.436293,3
19570326755587,-0.52163535,8.776874,4.4171505,3
19570329134753,-0.52163535,8.776874,4.426722,3
19570331513920,-0.5455636,8.796016,4.402794,3
19570333893087,-0.56470615,8.786445,4.412365,3
19570336272253,-0.59342,8.781659,4.4075794,3
19570338651420,-0.60777694,8.776874,4.388437,3
19570341030587,-0.6412765,8.776874,4.3932223,3
19570343409753,-0.6556334,8.79123,4.388437,3
19570345788920,-0.6652047,8.796016,4.3788652,3
19570348168087,-0.6939186,8.800801,4.398008,3
19570350547253,-0.71306115,8.79123,4.388437,3
19570352926420,-0.72263247,8.815159,4.3836513,3
19570355305587,-0.72263247,8.819944,4.3788652,3
19570357684753,-0.6891329,8.815159,4.388437,3
19570360063920,-0.6987042,8.786445,4.388437,3
19570362443087,-0.71306115,8.786445,4.3788652,3
19570364822253,-0.72263247,8.805588,4.354937,3
19570367201420,-0.72741807,8.805588,4.3645086,3
19570369580587,-0.72263247,8.82473,4.3645086,3
19570371959753,-0.7178468,8.839087,4.369294,3
19570374338920,-0.71306115,8.843872,4.3645086,3
19570376718087,-0.71306115,8.829515,4.3740797,3
19570379097253,-0.7322037,8.819944,4.3645086,3
19570381476420,-0.7178468,8.843872,4.3788652,3
19570383855587,-0.6987042,8.85823,4.398008,3
19570386234753,-0.6939186,8.853444,4.398008,3
19570388613868,-0.70348984,8.848659,4.412365,3
19570390993087,-0.7082755,8.839087,4.4171505,3
19570393372253,-0.70348984,8.82473,4.4171505,3
19570395751420,-0.6891329,8.82473,4.4315076,3
19570398130587,-0.6891329,8.819944,4.421936,3
19570400509753,-0.6891329,8.805588,4.426722,3
19570402888920,-0.6987042,8.810373,4.4315076,3
19570405268087,-0.6795616,8.810373,4.4315076,3
19570407647253,-0.6652047,8.79123,4.426722,3
19570410026420,-0.66999036,8.776874,4.4171505,3
19570412405587,-0.6843473,8.776874,4.4075794,3
19570414784753,-0.66999036,8.776874,4.4075794,3
19570417163920,-0.66041905,8.786445,4.3932223,3
19570419543087,-0.6795616,8.800801,4.3932223,3
19570421922253,-0.6795616,8.810373,4.4171505,3
19570424301420,-0.67477596,8.796016,4.4075794,3
19570426680587,-0.66999036,8.781659,4.426722,3
19570429059753,-0.66999036,8.810373,4.436293,3
19570431438920,-0.6269195,8.815159,4.4171505,3
19570433818087,-0.61734825,8.805588,4.4075794,3
19570436197253,-0.6221339,8.781659,4.3932223,3
19570438576420,-0.63170516,8.786445,4.3932223,3
19570440955587,-0.6412765,8.79123,4.3932223,3
19570443334753,-0.63170516,8.79123,4.402794,3
19570445713868,-0.63170516,8.79123,4.412365,3
19570448093087,-0.64606214,8.776874,4.3932223,3
19570450472201,-0.65084773,8.762517,4.3932223,3
19570452851368,-0.67477596,8.781659,4.3788652,3
19570455230535,-0.67477596,8.781659,4.3788652,3
19570457609701,-0.6652047,8.79123,4.3788652,3
19570459988868,-0.6891329,8.815159,4.3788652,3
19570462368035,-0.71306115,8.815159,4.402794,3
19570464747201,-0.7178468,8.800801,4.426722,3
19570467126368,-0.7465607,8.776874,4.4315076,3
19570469505535,-0.72741807,8.805588,4.421936,3
19570471884701,-0.7178468,8.82473,4.4315076,3
19570474263868,-0.72741807,8.839087,4.436293,3
19570476643035,-0.7513463,8.819944,4.4410787,3
19570479022201,-0.74177504,8.815159,4.45065,3
19570481401368,-0.75613195,8.805588,4.4745784,3
19570483780535,-0.7896315,8.800801,4.4889355,3
19570486159701,-0.7800602,8.819944,4.4889355,3
19570488538868,-0.79441714,8.79123,4.493721,3
19570490918035,-0.79920274,8.781659,4.493721,3
19570493297201,-0.79441714,8.7673025,4.4985065,3
19570495676368,-0.7896315,8.772088,4.503292,3
19570498055535,-0.8039884,8.762517,4.4985065,3
19570500434701,-0.79441714,8.762517,4.4841495,3
19570502813868,-0.80877405,8.7577305,4.4602213,3
19570505193035,-0.8135597,8.762517,4.469793,3
19570507572201,-0.7800602,8.7673025,4.4554358,3
19570509951368,-0.7369894,8.786445,4.4410787,3
19570512330535,-0.74177504,8.786445,4.4410787,3
19570514709701,-0.71306115,8.79123,4.436293,3
19570517088868,-0.6891329,8.79123,4.4410787,3
19570519468035,-0.65084773,8.781659,4.436293,3
19570521847201,-0.6556334,8.796016,4.4075794,3
19570524226368,-0.64606214,8.815159,4.3932223,3
19570526605535,-0.63170516,8.829515,4.3932223,3
19570528984701,-0.61734825,8.843872,4.3788652,3
19570531363868,-0.60777694,8.843872,4.3740797,3
19570533743035,-0.60777694,8.848659,4.3405805,3
19570536122201,-0.6125626,8.853444,4.345366,3
19570538501368,-0.6269195,8.867801,4.3836513,3
19570540880482,-0.64606214,8.839087,4.4075794,3
19570543259701,-0.6652047,8.853444,4.398008,3
19570545638868,-0.6556334,8.834301,4.3788652,3
19570548018035,-0.67477596,8.829515,4.369294,3
19570550397201,-0.6891329,8.834301,4.369294,3
19570552776368,-0.72263247,8.834301,4.388437,3
19570555155535,-0.7513463,8.82473,4.421936,3
19570557534649,-0.74177504,8.815159,4.4410787,3
19570559913868,-0.7322037,8.839087,4.45065,3
19570562292982,-0.71306115,8.810373,4.426722,3
19570564672201,-0.7178468,8.829515,4.421936,3
19570567051316,-0.71306115,8.82473,4.4171505,3
19570569430482,-0.6939186,8.82473,4.4315076,3
19570571809649,-0.67477596,8.815159,4.4458647,3
19570574188816,-0.65084773,8.800801,4.469793,3
19570576567982,-0.60777694,8.819944,4.4985065,3
19570578947149,-0.55513483,8.829515,4.479364,3
19570581326316,-0.53599226,8.810373,4.4602213,3
19570583705482,-0.5168497,8.82473,4.45065,3
19570586084649,-0.526421,8.839087,4.4602213,3
19570588463816,-0.5312066,8.829515,4.4602213,3
19570590842982,-0.55513483,8.843872,4.469793,3
19570593222149,-0.59342,8.829515,4.4554358,3
19570595601316,-0.6125626,8.819944,4.4554358,3
19570597980482,-0.66041905,8.829515,4.436293,3
19570600359649,-0.72741807,8.815159,4.4315076,3
19570602738816,-0.79920274,8.79123,4.4602213,3
19570605117982,-0.8422736,8.796016,4.465007,3
19570607497149,-0.89013004,8.786445,4.4745784,3
19570609876316,-0.94277215,8.776874,4.4841495,3
19570612255482,-1.0097711,8.762517,4.479364,3
19570614634649,-1.0336994,8.772088,4.4602213,3
19570617013816,-1.0480564,8.752945,4.45065,3
19570619392982,-1.0624132,8.772088,4.4458647,3
19570621772149,-1.0767702,8.752945,4.4554358,3
19570624151316,-1.0624132,8.743374,4.45065,3
19570626530482,-1.0193424,8.776874,4.4602213,3
19570628909649,-0.9667004,8.781659,4.45065,3
19570631288816,-0.89491564,8.7673025,4.4315076,3
19570633667982,-0.82313097,8.7673025,4.402794,3
19570636047149,-0.74177504,8.762517,4.3645086,3
19570638426316,-0.66041905,8.743374,4.359723,3
19570640805482,-0.5694918,8.733803,4.354937,3
19570643184649,-0.51206404,8.7577305,4.331009,3
19570645563816,-0.4546363,8.776874,4.321438,3
19570647942982,-0.38285163,8.772088,4.321438,3
19570650322149,-0.3397808,8.748159,4.331009,3
19570652701316,-0.31106696,8.7577305,4.3262234,3
19570655080482,-0.26799613,8.772088,4.3262234,3
19570657459649,-0.2632105,8.762517,4.321438,3
19570659838816,-0.26799613,8.7673025,4.331009,3
19570662217982,-0.30149564,8.772088,4.3501515,3
19570664597149,-0.3493521,8.772088,4.3645086,3
19570666976316,-0.4019942,8.786445,4.3836513,3
19570669355482,-0.47377887,8.776874,4.388437,3
19570671734597,-0.5168497,8.796016,4.412365,3
19570674113764,-0.55034924,8.810373,4.412365,3
19570676492930,-0.5982057,8.805588,4.421936,3
19570678872149,-0.6652047,8.839087,4.4410787,3
19570681251264,-0.6843473,8.815159,4.4458647,3
19570683630430,-0.7082755,8.786445,4.465007,3
19570686009597,-0.72263247,8.786445,4.436293,3
19570688388764,-0.7513463,8.786445,4.45065,3
19570690767930,-0.7465607,8.762517,4.4410787,3
19570693147045,-0.75613195,8.7577305,4.4410787,3
19570695526264,-0.7369894,8.7673025,4.436293,3
19570697905430,-0.6891329,8.738588,4.421936,3
19570700284597,-0.64606214,8.7673025,4.4171505,3
19570702663764,-0.60777694,8.776874,4.4075794,3
19570705042930,-0.5599205,8.786445,4.398008,3
19570707422097,-0.49292147,8.800801,4.388437,3
19570709801264,-0.4546363,8.796016,4.388437,3
19570712180430,-0.42592242,8.796016,4.3836513,3
19570714559597,-0.40677986,8.819944,4.388437,3
19570716938764,-0.34456646,8.834301,4.4075794,3
19570719317930,-0.3397808,8.829515,4.3645086,3
19570721697097,-0.33499518,8.82473,4.3740797,3
19570724076264,-0.3684947,8.82473,4.354937,3
19570726455430,-0.37806597,8.805588,4.369294,3
19570728834597,-0.41156548,8.829515,4.3740797,3
19570731213764,-0.4546363,8.839087,4.3836513,3
19570733592930,-0.5024927,8.843872,4.3932223,3
19570735972045,-0.55034924,8.863015,4.3932223,3
19570738351264,-0.5982057,8.877372,4.421936,3
19570740730430,-0.64606214,8.882157,4.402794,3
19570743109545,-0.72741807,8.886943,4.398008,3
19570745488764,-0.76570326,8.867801,4.398008,3
19570747867930,-0.8135597,8.848659,4.402794,3
19570750247097,-0.8422736,8.843872,4.421936,3
19570752626264,-0.8757731,8.863015,4.45065,3
19570755005430,-0.90448695,8.872586,4.469793,3
19570757384597,-0.8805587,8.863015,4.465007,3
19570759763764,-0.8709874,8.834301,4.4602213,3
19570762142930,-0.85184485,8.815159,4.4745784,3
19570764522097,-0.80877405,8.815159,4.4889355,3
19570766901264,-0.7609176,8.800801,4.508078,3
19570769280430,-0.6891329,8.805588,4.503292,3
19570771659597,-0.6221339,8.796016,4.503292,3
19570774038660,-0.56470615,8.79123,4.493721,3
19570776417878,-0.4833502,8.79123,4.479364,3
19570778797045,-0.41635114,8.79123,4.493721,3
19570781176212,-0.35413775,8.810373,4.508078,3
19570783555378,-0.33499518,8.810373,4.503292,3
19570785934545,-0.28235307,8.762517,4.4889355,3
19570788313712,-0.2440679,8.743374,4.469793,3
19570790692878,-0.2440679,8.733803,4.4554358,3
19570793071993,-0.23449662,8.738588,4.45065,3
19570795451212,-0.2727818,8.743374,4.421936,3
19570797830378,-0.31585258,8.748159,4.4075794,3
19570800209545,-0.3493521,8.743374,4.388437,3
19570802588712,-0.41156548,8.772088,4.398008,3
19570804967878,-0.47856453,8.762517,4.3836513,3
19570807347045,-0.51206404,8.7577305,4.388437,3
19570809726212,-0.55513483,8.776874,4.3645086,3
19570812105378,-0.6269195,8.786445,4.345366,3
19570814484545,-0.6556334,8.79123,4.3501515,3
19570816863712,-0.70348984,8.810373,4.359723,3
19570819242826,-0.7752745,8.829515,4.359723,3
19570821622045,-0.7896315,8.834301,4.3501515,3
19570824001212,-0.8039884,8.863015,4.3501515,3
19570826380378,-0.7896315,8.853444,4.3405805,3
19570828759545,-0.7752745,8.863015,4.3405805,3
19570831138712,-0.7609176,8.863015,4.3405805,3
19570833517878,-0.7369894,8.863015,4.331009,3
19570835897045,-0.6795616,8.867801,4.3357944,3
19570838276212,-0.6029913,8.85823,4.331009,3
19570840655378,-0.55034924,8.872586,4.354937,3
19570843034545,-0.4881358,8.877372,4.369294,3
19570845413712,-0.45942193,8.872586,4.388437,3
19570847792878,-0.43070808,8.848659,4.398008,3
19570850172045,-0.38763726,8.829515,4.412365,3
19570852551212,-0.3397808,8.82473,4.421936,3
19570854930378,-0.28713873,8.815159,4.436293,3
19570857309545,-0.29192436,8.82473,4.4458647,3
19570859688712,-0.33020952,8.819944,4.4410787,3
19570862067878,-0.37806597,8.810373,4.436293,3
19570864447045,-0.4019942,8.796016,4.421936,3
19570866826160,-0.4642076,8.805588,4.398008,3
19570869205326,-0.51206404,8.819944,4.398008,3
19570871584545,-0.59342,8.839087,4.4075794,3
19570873963660,-0.67477596,8.85823,4.4171505,3
19570876342826,-0.76570326,8.867801,4.4171505,3
19570878721993,-0.85184485,8.882157,4.402794,3
19570881101160,-0.8853444,8.872586,4.412365,3
19570883480326,-0.9284152,8.872586,4.4075794,3
19570885859493,-0.9619147,8.882157,4.402794,3
19570888238660,-0.9954142,8.863015,4.4075794,3
19570890617826,-1.0001999,8.839087,4.4171505,3
19570892996993,-0.9667004,8.82473,4.4315076,3
19570895376160,-0.9236295,8.829515,4.4554358,3
19570897755326,-0.8470592,8.82473,4.4602213,3
19570900134493,-0.75613195,8.819944,4.4745784,3
19570902513660,-0.6652047,8.810373,4.469793,3
19570904892826,-0.5694918,8.796016,4.4889355,3
19570907271993,-0.46899325,8.786445,4.4889355,3
19570909651160,-0.38285163,8.796016,4.4841495,3
19570912030326,-0.2727818,8.762517,4.4889355,3
19570914409493,-0.2009971,8.786445,4.4841495,3
19570916788660,-0.14356937,8.800801,4.4889355,3
19570919167826,-0.05742774,8.810373,4.4889355,3
19570921546993,-0.043070808,8.810373,4.4602213,3
19570923926160,-0.047856454,8.82473,4.469793,3
19570926305326,-0.062213387,8.815159,4.4554358,3
19570928684493,-0.10049855,8.805588,4.436293,3
19570931063660,-0.15314065,8.79123,4.426722,3
19570933442826,-0.22492532,8.810373,4.412365,3
19570935821993,-0.3397808,8.810373,4.3836513,3
19570938201160,-0.44985065,8.82473,4.3740797,3
19570940580326,-0.5312066,8.82473,4.359723,3
19570942959493,-0.63170516,8.829515,4.3501515,3
19570945338660,-0.7369894,8.834301,4.345366,3
19570947717826,-0.8039884,8.834301,4.3788652,3
19570950096993,-0.8997013,8.829515,4.369294,3
19570952476160,-0.94755775,8.82473,4.345366,3
19570954855326,-0.971486,8.848659,4.345366,3
19570957234389,-0.98584294,8.863015,4.359723,3
19570959613660,-1.0097711,8.848659,4.3740797,3
19570961992774,-0.9810573,8.839087,4.3788652,3
19570964371941,-0.9379865,8.853444,4.3740797,3
19570966751107,-0.8853444,8.843872,4.3836513,3
19570969130274,-0.8135597,8.839087,4.3932223,3
19570971509441,-0.7609176,8.834301,4.412365,3
19570973888607,-0.6556334,8.829515,4.4171505,3
19570976267774,-0.6029913,8.819944,4.4171505,3
19570978646941,-0.5024927,8.82473,4.421936,3
19570981026107,-0.44027936,8.796016,4.436293,3
19570983405274,-0.37806597,8.79123,4.4410787,3
19570985784441,-0.34456646,8.819944,4.4315076,3
19570988163607,-0.33499518,8.815159,4.4315076,3
19570990542774,-0.32063824,8.829515,4.4458647,3
19570992921941,-0.33020952,8.819944,4.4554358,3
19570995301107,-0.35413775,8.829515,4.426722,3
19570997680274,-0.40677986,8.800801,4.402794,3
19571000059441,-0.4211368,8.815159,4.402794,3
19571002438607,-0.47856453,8.819944,4.4171505,3
19571004817774,-0.5407779,8.815159,4.426722,3
19571007196941,-0.57427746,8.800801,4.426722,3
19571009576107,-0.6364908,8.800801,4.4410787,3
19571011955274,-0.6412765,8.810373,4.4602213,3
19571014334441,-0.6652047,8.805588,4.436293,3
19571016713607,-0.6652047,8.800801,4.4315076,3
19571019092774,-0.64606214,8.82473,4.45065,3
19571021471941,-0.6125626,8.819944,4.4458647,3
19571023851107,-0.5694918,8.82473,4.4554358,3
19571026230274,-0.5072784,8.800801,4.4458647,3
19571028609441,-0.44985065,8.800801,4.4602213,3
19571030988607,-0.4019942,8.786445,4.4745784,3
19571033367774,-0.33020952,8.79123,4.4554358,3
19571035746941,-0.24885355,8.786445,4.45065,3
19571038126107,-0.20578274,8.79123,4.45065,3
19571040505274,-0.16749759,8.796016,4.4315076,3
19571042884389,-0.16271193,8.829515,4.4315076,3
19571045263555,-0.13878371,8.82473,4.4458647,3
19571047642722,-0.14356937,8.800801,4.4410787,3
19571050021889,-0.18185452,8.82473,4.4458647,3
19571052401055,-0.22971097,8.819944,4.436293,3
19571054780222,-0.28713873,8.843872,4.4410787,3
19571057159389,-0.36370903,8.853444,4.436293,3
19571059538555,-0.4546363,8.867801,4.45065,3
19571061917722,-0.5407779,8.867801,4.4602213,3
19571064296889,-0.6029913,8.848659,4.4554358,3
19571066676055,-0.66041905,8.85823,4.45065,3
19571069055222,-0.6891329,8.839087,4.4554358,3
19571071434389,-0.72741807,8.834301,4.469793,3
19571073813555,-0.7369894,8.800801,4.45065,3
19571076192722,-0.7465607,8.796016,4.4554358,3
19571078571889,-0.74177504,8.796016,4.4458647,3
19571080951055,-0.70348984,8.800801,4.4410787,3
19571083330222,-0.65084773,8.772088,4.4410787,3
19571085709389,-0.60777694,8.772088,4.412365,3
19571088088555,-0.57906306,8.781659,4.412365,3
19571090467722,-0.49292147,8.7673025,4.3932223,3
19571092846889,-0.4354937,8.781659,4.3836513,3
19571095226055,-0.39720857,8.772088,4.359723,3
19571097605222,-0.3684947,8.7577305,4.345366,3
19571099984389,-0.3062813,8.7673025,4.354937,3
19571102363555,-0.29671,8.7673025,4.3262234,3
19571104742722,-0.28713873,8.786445,4.3405805,3
19571107121889,-0.30149564,8.781659,4.354937,3
19571109501055,-0.31585258,8.810373,4.3645086,3
19571111880222,-0.3684947,8.805588,4.345366,3
19571114259389,-0.3924229,8.815159,4.3501515,3
19571116638555,-0.43070808,8.819944,4.3740797,3
19571119017722,-0.46899325,8.796016,4.3788652,3
19571121396889,-0.4833502,8.796016,4.3836513,3
19571123776055,-0.55034924,8.805588,4.369294,3
19571126155170,-0.60777694,8.82473,4.3740797,3
19571128534389,-0.60777694,8.82473,4.388437,3
19571130913503,-0.66041905,8.805588,4.4075794,3
19571133292670,-0.6939186,8.800801,4.4171505,3
19571135671837,-0.6556334,8.786445,4.402794,3
19571138051003,-0.67477596,8.805588,4.3932223,3
19571140430170,-0.6652047,8.79123,4.412365,3
19571142809337,-0.66041905,8.7673025,4.4171505,3
19571145188503,-0.65084773,8.772088,4.4075794,3
19571147567670,-0.6125626,8.776874,4.412365,3
19571149946837,-0.5886344,8.772088,4.4410787,3
19571152326003,-0.5982057,8.762517,4.4458647,3
19571154705170,-0.5838487,8.776874,4.4410787,3
19571157084337,-0.5599205,8.7673025,4.4458647,3
19571159463503,-0.53599226,8.776874,4.436293,3
19571161842670,-0.53599226,8.786445,4.4315076,3
19571164221837,-0.5312066,8.781659,4.4410787,3
19571166601003,-0.5455636,8.786445,4.4458647,3
19571168980170,-0.55034924,8.796016,4.45065,3
19571171359337,-0.5599205,8.786445,4.4602213,3
19571173738503,-0.57427746,8.805588,4.469793,3
19571176117670,-0.56470615,8.796016,4.465007,3
19571178496837,-0.5886344,8.786445,4.4458647,3
19571180876003,-0.5838487,8.781659,4.4410787,3
19571183255170,-0.57906306,8.772088,4.4554358,3
19571185634337,-0.59342,8.772088,4.4458647,3
19571188013503,-0.57427746,8.781659,4.4554358,3
19571190392670,-0.55513483,8.781659,4.4410787,3
19571192771837,-0.5455636,8.7673025,4.426722,3
19571195151003,-0.52163535,8.7673025,4.4315076,3
19571197530118,-0.526421,8.762517,4.421936,3
19571199909337,-0.5168497,8.7673025,4.4458647,3
19571202288451,-0.5024927,8.752945,4.4554358,3
19571204667618,-0.47856453,8.752945,4.465007,3
19571207046785,-0.4642076,8.729017,4.479364,3
19571209425951,-0.44985065,8.724232,4.465007,3
19571211805118,-0.4211368,8.743374,4.4745784,3
19571214184285,-0.39720857,8.709874,4.469793,3
19571216563451,-0.37806597,8.709874,4.4602213,3
19571218942618,-0.37328035,8.71466,4.469793,3
19571221321785,-0.4019942,8.71466,4.479364,3
19571223700951,-0.38763726,8.719446,4.4985065,3
19571226080118,-0.3589234,8.748159,4.479364,3
19571228459285,-0.37328035,8.79123,4.4841495,3
19571230838399,-0.38285163,8.819944,4.465007,3
19571233217566,-0.36370903,8.82473,4.436293,3
19571235596785,-0.34456646,8.867801,4.4075794,3
19571237975951,-0.32542387,8.9013,4.3932223,3
19571240355118,-0.31585258,8.920443,4.369294,3
19571242734285,-0.3062813,8.920443,4.321438,3
19571245113451,-0.28713873,8.925228,4.2927237,3
19571247492618,-0.2727818,8.906086,4.2687955,3
19571249871785,-0.2440679,8.9013,4.2161536,3
19571252250847,-0.2105684,8.9108715,4.206582,3
19571254630118,-0.21535404,8.915657,4.206582,3
19571257009285,-0.22013968,8.930014,4.1778684,3
19571259388451,-0.23449662,8.953942,4.1635113,3
19571261767618,-0.25842485,8.9348,4.1491547,3
19571264146785,-0.28713873,8.906086,4.1347976,3
19571266525951,-0.32063824,8.920443,4.1443686,3
19571268905118,-0.36370903,8.891729,4.1778684,3
19571271284285,-0.39720857,8.896515,4.206582,3
19571273663451,-0.44985065,8.896515,4.2161536,3
19571276042566,-0.46899325,8.882157,4.220939,3
19571278421785,-0.47856453,8.853444,4.2592244,3
19571280800899,-0.44985065,8.834301,4.2975097,3
19571283180066,-0.42592242,8.834301,4.2927237,3
19571285559232,-0.3924229,8.848659,4.316652,3
19571287938399,-0.32542387,8.906086,4.436293,3
19571290317566,-0.21535404,8.886943,4.4841495,3
19571292696732,-0.13399807,8.877372,4.493721,3
19571295075899,0.02871387,8.906086,4.479364,3
19571297455066,0.19142582,8.925228,4.4458647,3
19571299834232,0.34456646,8.930014,4.4171505,3
19571302213399,0.4833502,8.9013,4.4410787,3
19571304592566,0.60777694,8.906086,4.4602213,3
19571306971732,0.7178468,8.891729,4.508078,3
19571309350899,0.7896315,8.867801,4.5272202,3
19571311730066,0.83748794,8.886943,4.517649,3
19571314109232,0.81834537,8.906086,4.4985065,3
19571316488399,0.7752745,8.882157,4.493721,3
19571318867566,0.6939186,8.867801,4.503292,3
19571321246732,0.5694918,8.863015,4.546363,3
19571323625847,0.4546363,8.82473,4.5942197,3
19571326005066,0.31585258,8.815159,4.618148,3
19571328384232,0.19142582,8.819944,4.627719,3
19571330763399,0.076570325,8.815159,4.613362,3
19571333142566,-0.033499517,8.810373,4.6037908,3
19571335521732,-0.11964113,8.79123,4.6085763,3
19571337900899,-0.2009971,8.79123,4.6229334,3
19571340280066,-0.29192436,8.7673025,4.6037908,3
19571342659232,-0.3589234,8.796016,4.584648,3
19571345038399,-0.4019942,8.810373,4.551149,3
19571347417514,-0.41156548,8.7673025,4.5128636,3
19571349796732,-0.43070808,8.762517,4.4841495,3
19571352175899,-0.4211368,8.748159,4.45065,3
19571354555014,-0.4211368,8.738588,4.4315076,3
19571356934180,-0.37806597,8.729017,4.402794,3
19571359313347,-0.34456646,8.729017,4.3836513,3
19571361692514,-0.3397808,8.709874,4.369294,3
19571364071680,-0.33499518,8.719446,4.3501515,3
19571366450847,-0.32542387,8.729017,4.321438,3
19571368830014,-0.37328035,8.738588,4.2975097,3
19571371209180,-0.44027936,8.729017,4.273581,3
19571373588347,-0.4881358,8.719446,4.2831526,3
19571375967462,-0.55513483,8.762517,4.3070807,3
19571378346680,-0.6556334,8.800801,4.321438,3
19571380725847,-0.74177504,8.786445,4.354937,3
19571383105014,-0.8566305,8.786445,4.3357944,3
19571385484180,-0.9667004,8.800801,4.331009,3
19571387863347,-1.0336994,8.82473,4.3118663,3
19571390242514,-1.0911272,8.829515,4.2975097,3
19571392621680,-1.119841,8.810373,4.331009,3
19571395000847,-1.1485549,8.79123,4.3501515,3
19571397380014,-1.1437693,8.810373,4.388437,3
19571399759180,-1.1294123,8.776874,4.3932223,3
19571402138347,-1.1006985,8.815159,4.3788652,3
19571404517514,-1.0432707,8.82473,4.354937,3
19571406896680,-0.9762716,8.810373,4.369294,3
19571409275847,-0.8805587,8.843872,4.388437,3
19571411655014,-0.7848458,8.853444,4.398008,3
19571414034180,-0.6795616,8.85823,4.465007,3
19571416413347,-0.56470615,8.863015,4.4985065,3
19571418792514,-0.4546363,8.9013,4.493721,3
19571421171628,-0.36370903,8.944371,4.4841495,3
19571423550743,-0.24885355,8.973084,4.4602213,3
19571425929962,-0.15792629,8.992228,4.4554358,3
19571428309076,-0.09571291,8.992228,4.465007,3
19571430688295,-0.08135597,9.01137,4.4602213,3
19571433067462,-0.062213387,9.025727,4.4410787,3
19571435446576,-0.062213387,9.001799,4.421936,3
19571437825795,-0.076570325,8.997013,4.402794,3
19571440204962,-0.14356937,8.973084,4.3788652,3
19571442584128,-0.19621146,8.930014,4.359723,3
19571444963295,-0.2727818,8.9013,4.3740797,3
19571447342462,-0.34456646,8.906086,4.398008,3
19571449721628,-0.41156548,8.9013,4.3932223,3
19571452100795,-0.4546363,8.877372,4.402794,3
19571454479962,-0.5024927,8.867801,4.4075794,3
19571456859128,-0.526421,8.863015,4.398008,3
19571459238295,-0.55513483,8.853444,4.402794,3
19571461617462,-0.57906306,8.863015,4.412365,3
19571463996628,-0.5982057,8.867801,4.45065,3
19571466375795,-0.6029913,8.896515,4.469793,3
19571468754962,-0.6029913,8.920443,4.465007,3
19571471134128,-0.6125626,8.949157,4.4745784,3
19571473513295,-0.5886344,8.953942,4.465007,3
19571475892462,-0.60777694,8.9348,4.421936,3
19571478271628,-0.6125626,8.939586,4.4075794,3
19571480650795,-0.59342,8.953942,4.3740797,3
19571483029962,-0.6412765,8.9348,4.3836513,3
19571485409128,-0.6843473,8.891729,4.398008,3
19571487788243,-0.7369894,8.863015,4.4171505,3
19571490167410,-0.79441714,8.819944,4.436293,3
19571492546576,-0.8422736,8.7673025,4.479364,3
19571494925743,-0.89491564,8.752945,4.4889355,3
19571497304910,-0.9379865,8.743374,4.4985065,3
19571499684024,-0.9906286,8.700303,4.546363,3
19571502063243,-1.0432707,8.705089,4.5942197,3
19571504442357,-1.0815558,8.700303,4.6325045,3
19571506821576,-1.134198,8.724232,4.6037908,3
19571509200743,-1.1772687,8.719446,4.6037908,3
19571511579910,-1.2011969,8.748159,4.5894337,3
19571513959076,-1.2346965,8.79123,4.5798626,3
19571516338243,-1.2442678,8.819944,4.5559344,3
19571518717410,-1.2729816,8.829515,4.5415773,3
19571521096576,-1.2969099,8.839087,4.5224347,3
19571523475743,-1.2921243,8.85823,4.503292,3
19571525854910,-1.2921243,8.863015,4.4554358,3
19571528234076,-1.2729816,8.853444,4.412365,3
19571530613243,-1.2586247,8.843872,4.388437,3
19571532992410,-1.18684,8.815159,4.3501515,3
19571535371576,-1.1102697,8.796016,4.3357944,3
19571537750743,-1.0241281,8.776874,4.3357944,3
19571540129910,-0.9284152,8.762517,4.345366,3
19571542509076,-0.82313097,8.719446,4.331009,3
19571544888243,-0.70348984,8.71466,4.331009,3
19571547267410,-0.60777694,8.729017,4.331009,3
19571549646576,-0.526421,8.719446,4.345366,3
19571552025691,-0.44027936,8.71466,4.3357944,3
19571554404910,-0.35413775,8.695518,4.3405805,3
19571556784076,-0.28713873,8.685946,4.3740797,3
19571559163191,-0.2536392,8.690732,4.3932223,3
19571561542357,-0.19142582,8.685946,4.4171505,3
19571563921524,-0.148355,8.662018,4.4075794,3
19571566300691,-0.124426775,8.685946,4.398008,3
19571568679857,-0.12921242,8.71466,4.3932223,3
19571571059024,-0.13878371,8.719446,4.412365,3
19571573438191,-0.17228323,8.7577305,4.426722,3
19571575817357,-0.2105684,8.743374,4.421936,3
19571578196524,-0.22013968,8.752945,4.426722,3
19571580575691,-0.29671,8.762517,4.402794,3
19571582954857,-0.3493521,8.786445,4.426722,3
19571585334024,-0.42592242,8.79123,4.4458647,3
19571587713191,-0.4977071,8.786445,4.4410787,3
19571590092357,-0.55513483,8.762517,4.4410787,3
19571592471524,-0.6029913,8.7577305,4.4745784,3
19571594850691,-0.6556334,8.7577305,4.465007,3
19571597229857,-0.6891329,8.762517,4.465007,3
19571599609024,-0.74177504,8.762517,4.465007,3
19571601988191,-0.7369894,8.752945,4.4602213,3
19571604367357,-0.70348984,8.7577305,4.4602213,3
19571606746472,-0.6987042,8.7577305,4.4458647,3
19571609125691,-0.6843473,8.752945,4.4315076,3
19571611504857,-0.6364908,8.743374,4.4171505,3
19571613883972,-0.5599205,8.762517,4.3788652,3
19571616263191,-0.5312066,8.7577305,4.3788652,3
19571618642357,-0.47377887,8.743374,4.354937,3
19571621021472,-0.42592242,8.781659,4.3405805,3
19571623400639,-0.37806597,8.800801,4.302295,3
19571625779805,-0.34456646,8.772088,4.2687955,3
19571628158972,-0.32542387,8.781659,4.26401,3
19571630538139,-0.32063824,8.781659,4.220939,3
19571632917305,-0.32063824,8.781659,4.211368,3
19571635296472,-0.3589234,8.810373,4.2257247,3
19571637675639,-0.41156548,8.815159,4.23051,3
19571640054805,-0.4642076,8.843872,4.2352962,3
19571642433972,-0.526421,8.843872,4.26401,3
19571644813139,-0.5886344,8.863015,4.26401,3
19571647192305,-0.66041905,8.853444,4.2831526,3
19571649571472,-0.72741807,8.843872,4.3118663,3
19571651950639,-0.80877405,8.829515,4.3262234,3
19571654329805,-0.86141616,8.810373,4.354937,3
19571656708972,-0.89491564,8.796016,4.3836513,3
19571659088139,-0.9619147,8.796016,4.412365,3
19571661467305,-1.0049855,8.79123,4.412365,3
19571663846472,-1.0432707,8.796016,4.4458647,3
19571666225639,-1.0767702,8.815159,4.479364,3
19571668604805,-1.119841,8.805588,4.493721,3
19571670983972,-1.1533405,8.796016,4.503292,3
19571673363139,-1.134198,8.800801,4.5224347,3
19571675742305,-1.1485549,8.796016,4.517649,3
19571678121472,-1.1102697,8.800801,4.5320063,3
19571680500639,-1.1006985,8.79123,4.5415773,3
19571682879805,-1.0336994,8.772088,4.56072,3
19571685258920,-0.9667004,8.800801,4.56072,3
19571687638087,-0.8566305,8.786445,4.546363,3
19571690017253,-0.7848458,8.796016,4.5320063,3
19571692396420,-0.72741807,8.810373,4.508078,3
19571694775587,-0.6891329,8.805588,4.503292,3
19571697154753,-0.63170516,8.79123,4.5128636,3
19571699533920,-0.57427746,8.805588,4.4985065,3
19571701913087,-0.526421,8.796016,4.503292,3
19571704292253,-0.4977071,8.800801,4.4745784,3
19571706671420,-0.4642076,8.786445,4.465007,3
19571709050587,-0.47377887,8.805588,4.4458647,3
19571711429753,-0.44985065,8.800801,4.4410787,3
19571713808920,-0.4642076,8.796016,4.426722,3
19571716188087,-0.5024927,8.800801,4.412365,3
19571718567253,-0.52163535,8.834301,4.402794,3
19571720946420,-0.6029913,8.829515,4.3788652,3
19571723325587,-0.6652047,8.848659,4.369294,3
19571725704753,-0.75613195,8.839087,4.359723,3
19571728083920,-0.79441714,8.839087,4.354937,3
19571730463087,-0.8662018,8.843872,4.354937,3
19571732842253,-0.89491564,8.834301,4.3645086,3
19571735221420,-0.9284152,8.829515,4.359723,3
19571737600587,-0.95712906,8.853444,4.3501515,3
19571739979701,-0.9667004,8.848659,4.3357944,3
19571742358920,-0.9667004,8.839087,4.3262234,3
19571744738035,-0.94277215,8.815159,4.3262234,3
19571747117201,-0.91405827,8.819944,4.3405805,3
19571749496368,-0.89013004,8.819944,4.3405805,3
19571751875535,-0.8279166,8.810373,4.354937,3
19571754254701,-0.7609176,8.805588,4.3740797,3
19571756633868,-0.71306115,8.819944,4.369294,3
19571759013035,-0.6556334,8.815159,4.369294,3
19571761392201,-0.5694918,8.796016,4.3740797,3
19571763771368,-0.5407779,8.786445,4.3836513,3
19571766150535,-0.5072784,8.776874,4.402794,3
19571768529701,-0.4833502,8.796016,4.412365,3
19571770908868,-0.47377887,8.762517,4.426722,3
19571773288035,-0.5168497,8.748159,4.45065,3
19571775667201,-0.52163535,8.762517,4.45065,3
19571778046368,-0.5455636,8.781659,4.436293,3
19571780425535,-0.5886344,8.7577305,4.4458647,3
19571782804701,-0.6269195,8.781659,4.465007,3
19571785183868,-0.6652047,8.772088,4.469793,3
19571787563035,-0.7178468,8.781659,4.4745784,3
19571789942201,-0.75613195,8.772088,4.4889355,3
19571792321368,-0.7800602,8.7673025,4.493721,3
19571794700535,-0.79920274,8.743374,4.503292,3
19571797079701,-0.80877405,8.738588,4.508078,3
19571799458868,-0.8039884,8.743374,4.5128636,3
19571801837982,-0.7752745,8.733803,4.5128636,3
19571804217201,-0.7369894,8.733803,4.517649,3
19571806596368,-0.72741807,8.71466,4.517649,3
19571808975535,-0.66999036,8.733803,4.508078,3
19571811354649,-0.61734825,8.733803,4.479364,3
19571813733764,-0.5838487,8.743374,4.469793,3
19571816112982,-0.53599226,8.738588,4.436293,3
19571818492149,-0.51206404,8.762517,4.4410787,3
19571820871316,-0.47856453,8.752945,4.4315076,3
19571823250482,-0.44985065,8.7577305,4.426722,3
19571825629649,-0.4642076,8.7673025,4.421936,3
19571828008816,-0.45942193,8.781659,4.402794,3
19571830387982,-0.4833502,8.752945,4.402794,3
19571832767149,-0.526421,8.7577305,4.3740797,3
19571835146316,-0.5455636,8.800801,4.4075794,3
19571837525482,-0.60777694,8.796016,4.3932223,3
19571839904649,-0.66999036,8.781659,4.398008,3
19571842283816,-0.7322037,8.810373,4.398008,3
19571844662982,-0.7704889,8.810373,4.412365,3
19571847042149,-0.8422736,8.815159,4.4171505,3
19571849421316,-0.8662018,8.805588,4.4315076,3
19571851800482,-0.90448695,8.843872,4.426722,3
19571854179649,-0.91884387,8.863015,4.436293,3
19571856558816,-0.9092726,8.853444,4.436293,3
19571858937982,-0.8757731,8.843872,4.436293,3
19571861317149,-0.82313097,8.839087,4.4315076,3
19571863696316,-0.7704889,8.843872,4.45065,3
19571866075430,-0.72741807,8.829515,4.436293,3
19571868454597,-0.6843473,8.819944,4.4315076,3
19571870833764,-0.6221339,8.839087,4.4171505,3
19571873212930,-0.5599205,8.819944,4.412365,3
19571875592097,-0.5168497,8.805588,4.402794,3
19571877971264,-0.47377887,8.79123,4.402794,3
19571880350430,-0.44985065,8.815159,4.3836513,3
19571882729597,-0.4354937,8.810373,4.388437,3
19571885108764,-0.4546363,8.815159,4.3740797,3
19571887487930,-0.45942193,8.834301,4.3740797,3
19571889867097,-0.5072784,8.848659,4.3788652,3
19571892246264,-0.5694918,8.843872,4.3836513,3
19571894625430,-0.6269195,8.843872,4.3788652,3
19571897004597,-0.6795616,8.834301,4.3788652,3
19571899383764,-0.71306115,8.863015,4.3932223,3
19571901762930,-0.7752745,8.829515,4.4075794,3
19571904142097,-0.8039884,8.834301,4.421936,3
19571906521264,-0.83748794,8.863015,4.4315076,3
19571908900430,-0.8422736,8.85823,4.436293,3
19571911279597,-0.86141616,8.834301,4.426722,3
19571913658764,-0.8709874,8.819944,4.4075794,3
19571916037930,-0.81834537,8.829515,4.4315076,3
19571918417097,-0.7848458,8.848659,4.426722,3
19571920796264,-0.72263247,8.843872,4.4410787,3
19571923175430,-0.67477596,8.853444,4.4458647,3
19571925554545,-0.5886344,8.829515,4.45065,3
19571927933712,-0.5168497,8.82473,4.4458647,3
19571930312878,-0.4546363,8.815159,4.4315076,3
19571932692045,-0.41156548,8.776874,4.4458647,3
19571935071212,-0.3684947,8.800801,4.436293,3
19571937450378,-0.32542387,8.805588,4.421936,3
19571939829545,-0.29671,8.829515,4.426722,3
19571942208712,-0.31585258,8.839087,4.412365,3
19571944587878,-0.33499518,8.810373,4.398008,3
19571946967045,-0.37328035,8.819944,4.398008,3
19571949346212,-0.37328035,8.82473,4.3836513,3
19571951725378,-0.41635114,8.848659,4.3836513,3
19571954104545,-0.47377887,8.85823,4.3740797,3
19571956483712,-0.5072784,8.848659,4.3740797,3
19571958862878,-0.5694918,8.848659,4.3788652,3
19571961242045,-0.6029913,8.867801,4.3932223,3
19571963621212,-0.6269195,8.843872,4.388437,3
19571966000378,-0.66041905,8.829515,4.3932223,3
19571968379545,-0.70348984,8.834301,4.398008,3
19571970758712,-0.70348984,8.815159,4.412365,3
19571973137878,-0.6939186,8.786445,4.426722,3
19571975516993,-0.66999036,8.805588,4.421936,3
19571977896160,-0.66041905,8.781659,4.421936,3
19571980275326,-0.63170516,8.772088,4.412365,3
19571982654493,-0.6221339,8.776874,4.4075794,3
19571985033660,-0.5838487,8.748159,4.388437,3
19571987412826,-0.5694918,8.7673025,4.388437,3
19571989791993,-0.55034924,8.7577305,4.398008,3
19571992171160,-0.5312066,8.748159,4.4075794,3
19571994550326,-0.5024927,8.7577305,4.402794,3
19571996929493,-0.4881358,8.724232,4.3932223,3
19571999308660,-0.49292147,8.719446,4.4075794,3
19572001687826,-0.5024927,8.709874,4.4075794,3
19572004066993,-0.55513483,8.719446,4.426722,3
19572006446160,-0.56470615,8.700303,4.426722,3
19572008825326,-0.56470615,8.700303,4.4410787,3
19572011204493,-0.5982057,8.724232,4.436293,3
19572013583660,-0.63170516,8.738588,4.436293,3
19572015962826,-0.63170516,8.738588,4.4315076,3
19572018341993,-0.63170516,8.729017,4.4410787,3
19572020721160,-0.66041905,8.743374,4.465007,3
19572023100326,-0.65084773,8.762517,4.4458647,3
19572025479493,-0.6269195,8.7577305,4.4315076,3
19572027858607,-0.59342,8.772088,4.426722,3
19572030237826,-0.5599205,8.810373,4.426722,3
19572032616941,-0.5407779,8.819944,4.4315076,3
19572034996107,-0.51206404,8.815159,4.4171505,3
19572037375274,-0.47377887,8.815159,4.426722,3
19572039754441,-0.43070808,8.82473,4.412365,3
19572042133607,-0.4019942,8.800801,4.421936,3
19572044512774,-0.37806597,8.810373,4.412365,3
19572046891941,-0.38285163,8.810373,4.4171505,3
19572049271107,-0.3493521,8.82473,4.4075794,3
19572051650274,-0.33020952,8.829515,4.412365,3
19572054029441,-0.34456646,8.834301,4.4171505,3
19572056408607,-0.36370903,8.843872,4.4075794,3
19572058787774,-0.4019942,8.853444,4.402794,3
19572061166941,-0.42592242,8.839087,4.402794,3
19572063546107,-0.4833502,8.85823,4.412365,3
19572065925274,-0.52163535,8.863015,4.412365,3
19572068304441,-0.55034924,8.872586,4.4171505,3
19572070683607,-0.5694918,8.877372,4.3788652,3
19572073062774,-0.6125626,8.906086,4.388437,3
19572075441941,-0.66041905,8.877372,4.4075794,3
19572077821107,-0.7082755,8.853444,4.402794,3
19572080200274,-0.75613195,8.834301,4.402794,3
19572082579441,-0.7513463,8.834301,4.4075794,3
19572084958607,-0.7609176,8.863015,4.402794,3
19572087337774,-0.7465607,8.853444,4.421936,3
19572089716889,-0.7465607,8.829515,4.4171505,3
19572092096055,-0.7322037,8.834301,4.4075794,3
19572094475222,-0.70348984,8.843872,4.412365,3
19572096854389,-0.65084773,8.82473,4.421936,3
19572099233555,-0.61734825,8.815159,4.426722,3
19572101612722,-0.56470615,8.810373,4.421936,3
19572103991889,-0.5312066,8.839087,4.426722,3
19572106371055,-0.4833502,8.863015,4.436293,3
19572108750222,-0.46899325,8.863015,4.4458647,3
19572111129389,-0.43070808,8.872586,4.436293,3
19572113508555,-0.4019942,8.877372,4.421936,3
19572115887722,-0.37328035,8.867801,4.426722,3
19572118266889,-0.3684947,8.863015,4.436293,3
19572120646055,-0.35413775,8.834301,4.426722,3
19572123025222,-0.3493521,8.853444,4.4171505,3
19572125404389,-0.3493521,8.848659,4.412365,3
19572127783555,-0.38285163,8.839087,4.3932223,3
19572130162722,-0.4019942,8.843872,4.421936,3
19572132541889,-0.4354937,8.829515,4.3932223,3
19572134921055,-0.4642076,8.815159,4.398008,3
19572137300222,-0.46899325,8.805588,4.421936,3
19572139679389,-0.5024927,8.805588,4.412365,3
19572142058503,-0.4977071,8.796016,4.4075794,3
19572144437670,-0.49292147,8.781659,4.4171505,3
19572146816837,-0.5024927,8.796016,4.412365,3
19572149196003,-0.47856453,8.800801,4.421936,3
19572151575170,-0.44506502,8.7673025,4.421936,3
19572153954337,-0.4211368,8.79123,4.402794,3
19572156333503,-0.3684947,8.819944,4.388437,3
19572158712670,-0.33020952,8.819944,4.3836513,3
19572161091837,-0.29671,8.82473,4.3836513,3
19572163471003,-0.24885355,8.82473,4.3740797,3
19572165850170,-0.22971097,8.796016,4.359723,3
19572168229285,-0.19621146,8.810373,4.354937,3
19572170608503,-0.20578274,8.776874,4.354937,3
19572172987670,-0.20578274,8.7673025,4.3501515,3
19572175366837,-0.20578274,8.772088,4.3501515,3
19572177746003,-0.23449662,8.776874,4.3501515,3
19572180125170,-0.2727818,8.762517,4.3501515,3
19572182504337,-0.3062813,8.772088,4.3740797,3
19572184883503,-0.3589234,8.7673025,4.3836513,3
19572187262670,-0.42592242,8.772088,4.388437,3
19572189641837,-0.47377887,8.786445,4.4075794,3
19572192020951,-0.52163535,8.786445,4.426722,3
19572194400118,-0.57427746,8.79123,4.4171505,3
19572196779285,-0.5982057,8.805588,4.412365,3
19572199158451,-0.6221339,8.800801,4.421936,3
19572201537618,-0.61734825,8.810373,4.4458647,3
19572203916785,-0.6125626,8.810373,4.4602213,3
19572206295951,-0.5886344,8.800801,4.4745784,3
19572208675118,-0.5694918,8.800801,4.469793,3
19572211054285,-0.526421,8.82473,4.465007,3
19572213433451,-0.4833502,8.82473,4.4554358,3
19572215812618,-0.42592242,8.805588,4.45065,3
19572218191785,-0.3924229,8.776874,4.45065,3
19572220570951,-0.34456646,8.79123,4.45065,3
19572222950066,-0.27756742,8.800801,4.4458647,3
19572225329285,-0.25842485,8.786445,4.45065,3
19572227708451,-0.22971097,8.781659,4.4458647,3
19572230087618,-0.22971097,8.79123,4.436293,3
19572232466785,-0.19621146,8.839087,4.421936,3
19572234845951,-0.22013968,8.853444,4.421936,3
19572237225118,-0.2727818,8.848659,4.4075794,3
19572239604285,-0.32542387,8.867801,4.426722,3
19572241983451,-0.38763726,8.886943,4.421936,3
19572244362618,-0.43070808,8.882157,4.402794,3
19572246741732,-0.4833502,8.867801,4.388437,3
19572249120899,-0.51206404,8.886943,4.388437,3
19572251500066,-0.5599205,8.886943,4.3836513,3
19572253879232,-0.6029913,8.863015,4.398008,3
19572256258399,-0.63170516,8.886943,4.3932223,3
19572258637566,-0.61734825,8.9013,4.388437,3
19572261016732,-0.6125626,8.9108715,4.402794,3
19572263395899,-0.6029913,8.9108715,4.398008,3
19572265775066,-0.57427746,8.891729,4.398008,3
19572268154232,-0.526421,8.891729,4.3932223,3
19572270533399,-0.5024927,8.882157,4.388437,3
19572272912514,-0.4354937,8.867801,4.3836513,3
19572275291732,-0.38763726,8.872586,4.3836513,3
19572277670899,-0.33020952,8.843872,4.369294,3
19572280050066,-0.28713873,8.85823,4.3740797,3
19572282429232,-0.27756742,8.85823,4.402794,3
19572284808399,-0.26799613,8.848659,4.3932223,3
19572287187566,-0.27756742,8.853444,4.398008,3
19572289566732,-0.29192436,8.853444,4.398008,3
19572291945899,-0.33499518,8.810373,4.388437,3
19572294325014,-0.39720857,8.810373,4.421936,3
19572296704180,-0.4642076,8.815159,4.4315076,3
19572299083347,-0.526421,8.810373,4.436293,3
19572301462514,-0.57427746,8.800801,4.45065,3
19572303841680,-0.6269195,8.786445,4.4602213,3
19572306220847,-0.66999036,8.776874,4.4841495,3
19572308600014,-0.7465607,8.743374,4.493721,3
19572310979180,-0.8039884,8.729017,4.493721,3
19572313358347,-0.8327023,8.743374,4.508078,3
19572315737514,-0.8805587,8.743374,4.5128636,3
19572318116680,-0.89491564,8.743374,4.5415773,3
19572320495847,-0.8997013,8.729017,4.5415773,3
19572322875014,-0.8757731,8.733803,4.517649,3
19572325254180,-0.8327023,8.748159,4.493721,3
19572327633347,-0.7848458,8.762517,4.493721,3
19572330012514,-0.7465607,8.776874,4.469793,3
19572332391680,-0.6652047,8.776874,4.4602213,3
19572334770847,-0.6269195,8.786445,4.4458647,3
19572337150014,-0.5694918,8.796016,4.4410787,3
19572339529180,-0.4977071,8.815159,4.421936,3
19572341908347,-0.42592242,8.810373,4.402794,3
19572344287514,-0.38763726,8.834301,4.369294,3
19572346666628,-0.3493521,8.839087,4.369294,3
19572349045795,-0.33020952,8.848659,4.3501515,3
19572351424962,-0.32542387,8.848659,4.3262234,3
19572353804128,-0.3397808,8.867801,4.316652,3
19572356183295,-0.3493521,8.882157,4.3405805,3
19572358562462,-0.34456646,8.853444,4.3405805,3
19572360941628,-0.3589234,8.853444,4.345366,3
19572363320795,-0.36370903,8.848659,4.359723,3
19572365699962,-0.3924229,8.829515,4.3645086,3
19572368079128,-0.41635114,8.839087,4.3932223,3
19572370458295,-0.44027936,8.829515,4.398008,3
19572372837462,-0.44506502,8.810373,4.3788652,3
19572375216628,-0.4546363,8.786445,4.369294,3
19572377595795,-0.41635114,8.786445,4.3788652,3
19572379974962,-0.41635114,8.796016,4.3740797,3
19572382354128,-0.4019942,8.796016,4.402794,3
19572384733295,-0.39720857,8.819944,4.412365,3
19572387112462,-0.37328035,8.815159,4.4171505,3
19572389491628,-0.35413775,8.819944,4.412365,3
19572391870743,-0.3397808,8.800801,4.412365,3
19572394249910,-0.30149564,8.800801,4.4075794,3
19572396629076,-0.27756742,8.819944,4.412365,3
19572399008243,-0.25842485,8.815159,4.436293,3
19572401387410,-0.2440679,8.79123,4.4315076,3
19572403766576,-0.2727818,8.772088,4.45065,3
19572406145743,-0.27756742,8.776874,4.45065,3
19572408524910,-0.30149564,8.752945,4.465007,3
19572410904076,-0.32542387,8.7673025,4.465007,3
19572413283243,-0.3589234,8.772088,4.4889355,3
19572415662410,-0.37806597,8.7673025,4.4889355,3
19572418041576,-0.43070808,8.7673025,4.508078,3
19572420420743,-0.44985065,8.752945,4.4841495,3
19572422799910,-0.4881358,8.772088,4.469793,3
19572425179076,-0.5312066,8.781659,4.4745784,3
19572427558243,-0.51206404,8.79123,4.4841495,3
19572429937410,-0.5168497,8.7673025,4.479364,3
19572432316576,-0.4833502,8.762517,4.4745784,3
19572434695743,-0.47856453,8.7577305,4.4889355,3
19572437074910,-0.46899325,8.743374,4.4889355,3
19572439454024,-0.43070808,8.748159,4.4602213,3
19572441833243,-0.40677986,8.733803,4.4554358,3
19572444212357,-0.37806597,8.733803,4.4410787,3
19572446591524,-0.35413775,8.733803,4.436293,3
19572448970691,-0.31585258,8.700303,4.4315076,3
19572451349857,-0.31106696,8.71466,4.4315076,3
19572453729024,-0.28235307,8.719446,4.4315076,3
19572456108191,-0.29192436,8.695518,4.4171505,3
19572458487357,-0.29671,8.719446,4.3836513,3
19572460866524,-0.3062813,8.719446,4.3836513,3
19572463245691,-0.33020952,8.733803,4.3645086,3
19572465624857,-0.3589234,8.762517,4.3645086,3
19572468004024,-0.3924229,8.781659,4.3788652,3
19572470383191,-0.41156548,8.786445,4.354937,3
19572472762357,-0.4546363,8.772088,4.354937,3
19572475141524,-0.5024927,8.796016,4.369294,3
19572477520691,-0.52163535,8.752945,4.354937,3
19572479899857,-0.55034924,8.752945,4.359723,3
19572482279024,-0.5694918,8.748159,4.388437,3
19572484658191,-0.5838487,8.7673025,4.4171505,3
19572487037357,-0.5982057,8.752945,4.426722,3
19572489416524,-0.57427746,8.748159,4.45065,3
19572491795639,-0.55034924,8.738588,4.45065,3
19572494174805,-0.5024927,8.752945,4.4458647,3
19572496553972,-0.46899325,8.762517,4.4315076,3
19572498933139,-0.41635114,8.796016,4.421936,3
19572501312305,-0.3589234,8.82473,4.4458647,3
19572503691472,-0.28235307,8.834301,4.436293,3
19572506070639,-0.2440679,8.843872,4.426722,3
19572508449753,-0.20578274,8.872586,4.4410787,3
19572510828972,-0.17706887,8.9013,4.412365,3
19572513208139,-0.11964113,8.925228,4.3932223,3
19572515587305,-0.07178468,8.944371,4.3740797,3
19572517966472,-0.033499517,8.977871,4.354937,3
19572520345639,-0.009571291,8.997013,4.354937,3
19572522724805,-0.019142581,9.025727,4.331009,3
19572525103972,-0.014356935,9.0544405,4.3262234,3
19572527483139,-0.019142581,9.059227,4.3070807,3
19572529862305,-0.023928227,9.059227,4.302295,3
19572532241420,-0.0526421,9.035298,4.3262234,3
19572534620639,-0.076570325,9.040084,4.3357944,3
19572536999805,-0.10049855,9.0544405,4.3357944,3
19572539378920,-0.11485548,9.049655,4.354937,3
19572541758087,-0.124426775,9.035298,4.345366,3
19572544137253,-0.17228323,9.016156,4.3501515,3
19572546516420,-0.16271193,9.020942,4.3740797,3
19572548895587,-0.18185452,9.006584,4.388437,3
19572551274753,-0.17706887,9.001799,4.4075794,3
19572553653920,-0.17228323,8.9826565,4.402794,3
19572556033087,-0.16271193,8.987442,4.388437,3
19572558412253,-0.17228323,8.987442,4.3932223,3
19572560791420,-0.15792629,8.997013,4.402794,3
19572563170587,-0.13878371,8.9826565,4.421936,3
19572565549753,-0.086141616,8.977871,4.4315076,3
19572567928920,-0.086141616,8.997013,4.4315076,3
19572570308087,-0.06699903,8.997013,4.426722,3
19572572687253,-0.06699903,8.997013,4.412365,3
19572575066420,-0.019142581,9.006584,4.426722,3
19572577445587,-0.009571291,8.977871,4.426722,3
19572579824753,-0.019142581,8.949157,4.388437,3
19572582203868,-0.014356935,8.930014,4.402794,3
19572584583035,-0.0047856453,8.9013,4.412365,3
19572586962201,-0.014356935,8.872586,4.4554358,3
19572589341316,-0.014356935,8.853444,4.469793,3
19572591720535,-0.033499517,8.82473,4.4602213,3
19572594099701,-0.047856454,8.79123,4.4554358,3
19572596478868,-0.07178468,8.7577305,4.469793,3
19572598858035,-0.09092726,8.772088,4.4841495,3
19572601237201,-0.124426775,8.738588,4.479364,3
19572603616368,-0.14356937,8.719446,4.4889355,3
19572605995535,-0.17706887,8.700303,4.503292,3
19572608374701,-0.22971097,8.695518,4.5272202,3
19572610753868,-0.25842485,8.657232,4.517649,3
19572613133035,-0.31106696,8.63809,4.503292,3
19572615512201,-0.3493521,8.6141615,4.4889355,3
19572617891368,-0.38285163,8.60459,4.4889355,3
19572620270535,-0.38763726,8.60459,4.479364,3
19572622649701,-0.39720857,8.585447,4.4841495,3
19572625028868,-0.39720857,8.590233,4.4745784,3
19572627407982,-0.4019942,8.590233,4.4602213,3
19572629787149,-0.37806597,8.599805,4.4410787,3
19572632166316,-0.32542387,8.609376,4.436293,3
19572634545482,-0.29192436,8.642876,4.4410787,3
19572636924649,-0.25842485,8.642876,4.426722,3
19572639303816,-0.22013968,8.671589,4.426722,3
19572641682982,-0.19142582,8.671589,4.4458647,3
19572644062149,-0.15314065,8.695518,4.436293,3
19572646441264,-0.11964113,8.733803,4.426722,3
19572648820482,-0.09571291,8.762517,4.4410787,3
19572651199649,-0.11006984,8.810373,4.421936,3
19572653578816,-0.11485548,8.867801,4.421936,3
19572655957982,-0.11964113,8.906086,4.426722,3
19572658337149,-0.124426775,8.930014,4.426722,3
19572660716316,-0.14356937,8.968299,4.402794,3
19572663095482,-0.15792629,8.987442,4.402794,3
19572665474649,-0.16749759,8.963513,4.3788652,3
19572667853816,-0.16271193,8.958728,4.3788652,3
19572670232930,-0.18664017,8.930014,4.331009,3
19572672612097,-0.18185452,8.853444,4.3262234,3
19572674991264,-0.16271193,8.815159,4.3118663,3
19572677370430,-0.15314065,8.796016,4.3357944,3
19572679749597,-0.14356937,8.786445,4.359723,3
19572682128764,-0.16271193,8.752945,4.354937,3
19572684507930,-0.15314065,8.7577305,4.3740797,3
19572686887097,-0.16271193,8.752945,4.4075794,3
19572689266264,-0.18185452,8.762517,4.421936,3
19572691645430,-0.18664017,8.805588,4.4315076,3
19572694024597,-0.19142582,8.829515,4.4458647,3
19572696403764,-0.22492532,8.829515,4.45065,3
19572698782930,-0.27756742,8.853444,4.436293,3
19572701162097,-0.29671,8.867801,4.4458647,3
19572703541264,-0.33020952,8.848659,4.4315076,3
19572705920430,-0.38763726,8.829515,4.426722,3
19572708299597,-0.44506502,8.82473,4.421936,3
19572710678764,-0.47856453,8.829515,4.421936,3
19572713057930,-0.5024927,8.848659,4.4315076,3
19572715437045,-0.5407779,8.85823,4.426722,3
19572717816212,-0.5886344,8.863015,4.4458647,3
19572720195378,-0.5838487,8.839087,4.45065,3
19572722574545,-0.5694918,8.843872,4.4745784,3
19572724953712,-0.5838487,8.877372,4.4985065,3
19572727332878,-0.59342,8.886943,4.493721,3
19572729712045,-0.55034924,8.896515,4.5128636,3
19572732091212,-0.526421,8.9013,4.4985065,3
19572734470378,-0.51206404,8.896515,4.493721,3
19572736849545,-0.49292147,8.882157,4.508078,3
19572739228712,-0.43070808,8.853444,4.517649,3
19572741607878,-0.39720857,8.872586,4.5128636,3
19572743987045,-0.35413775,8.882157,4.493721,3
19572746366212,-0.32542387,8.882157,4.479364,3
19572748745378,-0.29671,8.848659,4.465007,3
19572751124545,-0.25842485,8.829515,4.4458647,3
19572753503712,-0.22971097,8.839087,4.4458647,3
19572755882878,-0.18185452,8.843872,4.4458647,3
19572758262045,-0.14356937,8.834301,4.436293,3
19572760641212,-0.086141616,8.829515,4.45065,3
19572763020326,-0.047856454,8.834301,4.45065,3
19572765399493,-0.038285162,8.848659,4.4315076,3
19572767778660,-0.023928227,8.853444,4.421936,3
19572770157826,0.014356935,8.843872,4.4075794,3
19572772536993,0.023928227,8.839087,4.398008,3
19572774916160,0.014356935,8.853444,4.398008,3
19572777295326,0.009571291,8.853444,4.3836513,3
19572779674493,0.009571291,8.867801,4.3932223,3
19572782053660,0.009571291,8.867801,4.3932223,3
19572784432826,0.023928227,8.85823,4.3788652,3
19572786811993,0.033499517,8.85823,4.369294,3
19572789191160,0.0526421,8.819944,4.3501515,3
19572791570326,0.086141616,8.82473,4.345366,3
19572793949493,0.124426775,8.796016,4.354937,3
19572796328660,0.17706887,8.786445,4.354937,3
19572798707826,0.22492532,8.776874,4.359723,3
19572801086993,0.24885355,8.772088,4.345366,3
19572803466107,0.28235307,8.776874,4.3645086,3
19572805845274,0.32542387,8.7673025,4.354937,3
19572808224441,0.35413775,8.762517,4.369294,3
19572810603607,0.4019942,8.743374,4.3836513,3
19572812982774,0.4211368,8.7577305,4.3836513,3
19572815361889,0.42592242,8.772088,4.3836513,3
19572817741107,0.43070808,8.800801,4.412365,3
19572820120274,0.41635114,8.786445,4.4075794,3
19572822499441,0.37806597,8.776874,4.4315076,3
19572824878607,0.3397808,8.786445,4.4075794,3
19572827257774,0.30149564,8.796016,4.402794,3
19572829636941,0.2440679,8.805588,4.4171505,3
19572832016107,0.17228323,8.805588,4.421936,3
19572834395274,0.086141616,8.82473,4.4171505,3
19572836774441,0.014356935,8.800801,4.402794,3
19572839153607,-0.086141616,8.800801,4.4171505,3
19572841532774,-0.15314065,8.786445,4.4171505,3
19572843911941,-0.2440679,8.776874,4.426722,3
19572846291055,-0.31585258,8.776874,4.402794,3
19572848670222,-0.3589234,8.796016,4.3836513,3
19572851049389,-0.42592242,8.786445,4.388437,3
19572853428555,-0.46899325,8.7673025,4.3932223,3
19572855807722,-0.5072784,8.7673025,4.3788652,3
19572858186889,-0.5024927,8.786445,4.3740797,3
19572860566055,-0.5312066,8.786445,4.3645086,3
19572862945222,-0.5312066,8.7673025,4.354937,3
19572865324389,-0.53599226,8.781659,4.345366,3
19572867703555,-0.5407779,8.796016,4.3357944,3
19572870082722,-0.526421,8.79123,4.3405805,3
19572872461889,-0.4881358,8.79123,4.3501515,3
19572874841055,-0.4546363,8.805588,4.3501515,3
19572877220222,-0.41635114,8.786445,4.3405805,3
19572879599389,-0.3684947,8.786445,4.321438,3
19572881978555,-0.37806597,8.810373,4.3262234,3
19572884357722,-0.33499518,8.805588,4.359723,3
19572886736837,-0.32063824,8.800801,4.3788652,3
19572889116003,-0.32542387,8.805588,4.4075794,3
19572891495170,-0.3589234,8.805588,4.412365,3
19572893874337,-0.38763726,8.82473,4.421936,3
19572896253503,-0.41156548,8.781659,4.421936,3
19572898632670,-0.4642076,8.796016,4.436293,3
19572901011837,-0.52163535,8.781659,4.45065,3
19572903391003,-0.55034924,8.800801,4.4602213,3
19572905770170,-0.5886344,8.781659,4.45065,3
19572908149337,-0.6221339,8.805588,4.4745784,3
19572910528503,-0.6556334,8.781659,4.4889355,3
19572912907670,-0.7082755,8.781659,4.4889355,3
19572915286837,-0.72741807,8.819944,4.508078,3
19572917666003,-0.71306115,8.839087,4.5128636,3
19572920045170,-0.6795616,8.85823,4.4985065,3
19572922424337,-0.64606214,8.872586,4.4841495,3
19572924803503,-0.5982057,8.877372,4.479364,3
19572927182670,-0.5312066,8.85823,4.4602213,3
19572929561785,-0.45942193,8.872586,4.4458647,3
19572931940951,-0.41635114,8.872586,4.4458647,3
19572934320118,-0.32063824,8.834301,4.4410787,3
19572936699285,-0.23449662,8.800801,4.412365,3
19572939078451,-0.2105684,8.762517,4.359723,3
19572941457618,-0.18664017,8.79123,4.331009,3
19572943836785,-0.19142582,8.772088,4.3357944,3
19572946215951,-0.21535404,8.743374,4.3932223,3
19572948595118,-0.2727818,8.748159,4.45065,3
19572950974285,-0.3397808,8.762517,4.4841495,3
19572953353451,-0.3924229,8.79123,4.493721,3
19572955732618,-0.47856453,8.79123,4.479364,3
19572958111785,-0.56470615,8.810373,4.465007,3
19572960490951,-0.64606214,8.829515,4.4745784,3
19572962870118,-0.70348984,8.848659,4.493721,3
19572965249285,-0.75613195,8.867801,4.503292,3
19572967628399,-0.80877405,8.877372,4.517649,3
19572970007514,-0.86141616,8.882157,4.4985065,3
19572972386732,-0.9284152,8.915657,4.4554358,3
19572974765899,-0.93320084,8.939586,4.4315076,3
19572977145066,-0.9762716,8.9108715,4.412365,3
19572979524232,-1.0145568,8.925228,4.4315076,3
19572981903399,-0.9906286,8.925228,4.436293,3
19572984282566,-0.9906286,8.9013,4.4745784,3
19572986661732,-0.93320084,8.877372,4.4841495,3
19572989040899,-0.85184485,8.872586,4.465007,3
19572991420066,-0.7752745,8.863015,4.45065,3
19572993799232,-0.7082755,8.863015,4.426722,3
19572996178399,-0.6221339,8.843872,4.426722,3
19572998557566,-0.5599205,8.839087,4.4315076,3
19573000936732,-0.51206404,8.843872,4.4458647,3
19573003315899,-0.47377887,8.863015,4.4315076,3
19573005695066,-0.44506502,8.839087,4.4315076,3
19573008074232,-0.44027936,8.829515,4.412365,3
19573010453399,-0.4642076,8.805588,4.412365,3
19573012832514,-0.46899325,8.810373,4.402794,3
19573015211680,-0.4642076,8.796016,4.402794,3
19573017590847,-0.4977071,8.776874,4.412365,3
19573019970014,-0.5168497,8.776874,4.412365,3
19573022349180,-0.526421,8.7673025,4.421936,3
19573024728347,-0.55034924,8.776874,4.402794,3
19573027107514,-0.57427746,8.781659,4.3836513,3
19573029486680,-0.59342,8.762517,4.3645086,3
19573031865847,-0.57906306,8.762517,4.3645086,3
19573034245014,-0.59342,8.786445,4.3501515,3
19573036624180,-0.57906306,8.79123,4.345366,3
19573039003347,-0.55034924,8.781659,4.3645086,3
19573041382514,-0.5168497,8.781659,4.3788652,3
19573043761680,-0.4881358,8.786445,4.3645086,3
19573046140847,-0.4354937,8.810373,4.3645086,3
19573048519962,-0.39720857,8.800801,4.359723,3
19573050899128,-0.35413775,8.815159,4.331009,3
19573053278295,-0.26799613,8.82473,4.3357944,3
19573055657462,-0.22492532,8.82473,4.3357944,3
19573058036628,-0.20578274,8.839087,4.3405805,3
19573060415795,-0.16271193,8.839087,4.3501515,3
19573062794962,-0.13399807,8.867801,4.3405805,3
19573065174128,-0.13878371,8.863015,4.3405805,3
19573067553295,-0.14356937,8.853444,4.3501515,3
19573069932462,-0.148355,8.863015,4.359723,3
19573072311628,-0.18185452,8.848659,4.3836513,3
19573074690795,-0.2009971,8.877372,4.388437,3
19573077069962,-0.23449662,8.853444,4.421936,3
19573079449128,-0.2632105,8.853444,4.45065,3
19573081828295,-0.31106696,8.863015,4.4745784,3
19573084207462,-0.35413775,8.867801,4.5128636,3
19573086586628,-0.3684947,8.843872,4.5320063,3
19573088965795,-0.3684947,8.872586,4.536792,3
19573091344962,-0.36370903,8.882157,4.5224347,3
19573093724076,-0.32542387,8.867801,4.4841495,3
19573096103243,-0.29192436,8.85823,4.469793,3
19573098482410,-0.22971097,8.853444,4.4554358,3
19573100861576,-0.18185452,8.839087,4.479364,3
19573103240743,-0.16271193,8.819944,4.4889355,3
19573105619910,-0.09092726,8.834301,4.4889355,3
19573107999076,-0.047856454,8.839087,4.45065,3
19573110378243,-0.023928227,8.819944,4.426722,3
19573112757410,0.02871387,8.800801,4.4171505,3
19573115136576,0.062213387,8.800801,4.426722,3
19573117515743,0.086141616,8.79123,4.45065,3
19573119894910,0.10049855,8.772088,4.4554358,3
19573122274076,0.11964113,8.776874,4.465007,3
19573124653243,0.14356937,8.796016,4.4458647,3
19573127032410,0.148355,8.796016,4.4315076,3
19573129411524,0.13399807,8.800801,4.3932223,3
19573131790691,0.11006984,8.834301,4.3740797,3
19573134169857,0.05742774,8.815159,4.3788652,3
19573136549024,0.019142581,8.805588,4.3932223,3
19573138928191,-0.038285162,8.815159,4.412365,3
19573141307357,-0.05742774,8.805588,4.412365,3
19573143686524,-0.09092726,8.815159,4.398008,3
19573146065691,-0.13878371,8.810373,4.388437,3
19573148444857,-0.18664017,8.815159,4.398008,3
19573150824024,-0.2105684,8.82473,4.412365,3
19573153203191,-0.23449662,8.810373,4.4075794,3
19573155582357,-0.23928227,8.796016,4.412365,3
19573157961524,-0.2632105,8.800801,4.4410787,3
19573160340691,-0.2727818,8.805588,4.426722,3
19573162719857,-0.28713873,8.796016,4.4075794,3
19573165098972,-0.27756742,8.800801,4.3740797,3
19573167478191,-0.3062813,8.79123,4.3836513,3
19573169857305,-0.29671,8.776874,4.369294,3
19573172236472,-0.29192436,8.776874,4.388437,3
19573174615639,-0.33020952,8.7577305,4.402794,3
19573176994805,-0.32063824,8.762517,4.398008,3
19573179373972,-0.32542387,8.7673025,4.398008,3
19573181753139,-0.31585258,8.7577305,4.3645086,3
19573184132305,-0.33499518,8.776874,4.3645086,3
19573186511472,-0.3397808,8.7577305,4.388437,3
19573188890639,-0.36370903,8.752945,4.3932223,3
19573191269805,-0.38285163,8.752945,4.402794,3
19573193648972,-0.39720857,8.800801,4.398008,3
19573196028139,-0.4211368,8.79123,4.4075794,3
19573198407305,-0.43070808,8.815159,4.402794,3
19573200786472,-0.4354937,8.819944,4.426722,3
19573203165639,-0.44985065,8.810373,4.4410787,3
19573205544753,-0.46899325,8.819944,4.4410787,3
19573207923972,-0.4833502,8.82473,4.4315076,3
19573210303087,-0.4546363,8.815159,4.4075794,3
19573212682253,-0.4642076,8.815159,4.4171505,3
19573215061420,-0.47856453,8.805588,4.421936,3
19573217440587,-0.46899325,8.800801,4.412365,3
19573219819753,-0.44985065,8.815159,4.412365,3
19573222198920,-0.4546363,8.805588,4.421936,3
19573224578087,-0.4354937,8.800801,4.421936,3
19573226957253,-0.41635114,8.796016,4.4410787,3
19573229336420,-0.3924229,8.810373,4.45065,3
19573231715587,-0.4019942,8.839087,4.465007,3
19573234094753,-0.41156548,8.867801,4.4410787,3
19573236473920,-0.39720857,8.867801,4.4458647,3
19573238853087,-0.37806597,8.872586,4.4410787,3
19573241232253,-0.37328035,8.877372,4.4458647,3
19573243611368,-0.3589234,8.867801,4.4554358,3
19573245990535,-0.38285163,8.85823,4.469793,3
19573248369701,-0.4019942,8.848659,4.4745784,3
19573250748868,-0.41635114,8.839087,4.4602213,3
19573253128035,-0.44027936,8.834301,4.4410787,3
19573255507201,-0.42592242,8.843872,4.4410787,3
19573257886368,-0.43070808,8.853444,4.4171505,3
19573260265535,-0.43070808,8.829515,4.421936,3
19573262644701,-0.44027936,8.843872,4.4315076,3
19573265023868,-0.4546363,8.872586,4.4315076,3
19573267403035,-0.4546363,8.85823,4.426722,3
19573269782201,-0.4354937,8.848659,4.4171505,3
19573272161368,-0.44506502,8.85823,4.412365,3
19573274540535,-0.43070808,8.886943,4.4075794,3
19573276919701,-0.43070808,8.886943,4.4075794,3
19573279298816,-0.44506502,8.867801,4.369294,3
19573281677982,-0.4354937,8.867801,4.3788652,3
19573284057149,-0.4019942,8.872586,4.4315076,3
19573286436316,-0.38285163,8.85823,4.4410787,3
19573288815482,-0.3589234,8.853444,4.4602213,3
19573291194649,-0.31585258,8.863015,4.4075794,3
19573293573816,-0.32063824,8.872586,4.3836513,3
19573295952982,-0.31585258,8.877372,4.3645086,3
19573298332149,-0.31585258,8.867801,4.3788652,3
19573300711316,-0.31585258,8.815159,4.4315076,3
19573303090482,-0.33499518,8.819944,4.45065,3
19573305469649,-0.3397808,8.843872,4.436293,3
19573307848816,-0.36370903,8.85823,4.3788652,3
19573310227982,-0.3684947,8.882157,4.3501515,3
19573312607149,-0.38763726,8.886943,4.369294,3
19573314986316,-0.3924229,8.853444,4.388437,3
19573317365430,-0.37328035,8.843872,4.4458647,3
19573319744597,-0.3924229,8.82473,4.479364,3
19573322123764,-0.3924229,8.843872,4.469793,3
19573324502930,-0.4019942,8.872586,4.426722,3
19573326882097,-0.42592242,8.85823,4.398008,3
19573329261264,-0.44027936,8.843872,4.369294,3
19573331640430,-0.4546363,8.843872,4.398008,3
19573334019597,-0.4546363,8.834301,4.426722,3
19573336398764,-0.4881358,8.82473,4.4458647,3
19573338777930,-0.47856453,8.786445,4.4458647,3
19573341157097,-0.5024927,8.805588,4.4171505,3
19573343536264,-0.51206404,8.815159,4.388437,3
19573345915430,-0.5024927,8.815159,4.402794,3
19573348294597,-0.4881358,8.815159,4.3932223,3
19573350673764,-0.46899325,8.79123,4.402794,3
19573353052878,-0.47377887,8.781659,4.4410787,3
19573355432097,-0.47377887,8.79123,4.4458647,3
19573357811212,-0.44506502,8.79123,4.4315076,3
19573360190378,-0.4211368,8.79123,4.398008,3
19573362569545,-0.41156548,8.781659,4.3836513,3
19573364948712,-0.38285163,8.781659,4.3740797,3
19573367327878,-0.36370903,8.796016,4.3836513,3
19573369707045,-0.32542387,8.786445,4.402794,3
19573372086212,-0.32542387,8.762517,4.398008,3
19573374465378,-0.30149564,8.786445,4.3932223,3
19573376844545,-0.27756742,8.79123,4.369294,3
19573379223712,-0.2440679,8.79123,4.3645086,3
19573381602878,-0.24885355,8.786445,4.359723,3
19573383982045,-0.2440679,8.810373,4.3740797,3
19573386361212,-0.28235307,8.800801,4.398008,3
19573388740326,-0.28235307,8.800801,4.426722,3
19573391119493,-0.3062813,8.815159,4.4458647,3
19573393498660,-0.34456646,8.810373,4.436293,3
19573395877826,-0.3684947,8.810373,4.426722,3
19573398256993,-0.38763726,8.810373,4.436293,3
19573400636160,-0.40677986,8.79123,4.4458647,3
19573403015326,-0.4211368,8.7673025,4.4602213,3
19573405394493,-0.44985065,8.772088,4.4602213,3
19573407773660,-0.44027936,8.772088,4.465007,3
19573410152826,-0.47856453,8.762517,4.465007,3
19573412531993,-0.4642076,8.7673025,4.479364,3
19573414911160,-0.44027936,8.7577305,4.465007,3
19573417290326,-0.4354937,8.7673025,4.436293,3
19573419669493,-0.42592242,8.79123,4.426722,3
19573422048660,-0.39720857,8.762517,4.426722,3
19573424427722,-0.37328035,8.752945,4.421936,3
19573426806941,-0.36370903,8.781659,4.402794,3
19573429186160,-0.32542387,8.800801,4.3740797,3
19573431565274,-0.30149564,8.79123,4.3788652,3
19573433944441,-0.28713873,8.781659,4.3740797,3
19573436323607,-0.2727818,8.800801,4.359723,3
19573438702774,-0.29671,8.815159,4.3405805,3
19573441081941,-0.28713873,8.829515,4.331009,3
19573443461107,-0.29192436,8.848659,4.3262234,3
19573445840274,-0.31585258,8.85823,4.359723,3
19573448219441,-0.33020952,8.848659,4.3501515,3
19573450598607,-0.3589234,8.853444,4.3645086,3
19573452977774,-0.3924229,8.867801,4.3645086,3
19573455356941,-0.40677986,8.863015,4.388437,3
19573457736107,-0.4211368,8.848659,4.388437,3
19573460115274,-0.44506502,8.85823,4.402794,3
19573462494389,-0.4354937,8.85823,4.412365,3
19573464873555,-0.42592242,8.848659,4.4075794,3
19573467252722,-0.44027936,8.843872,4.4458647,3
19573469631889,-0.4546363,8.843872,4.4554358,3
19573472011055,-0.44985065,8.853444,4.4745784,3
19573474390222,-0.43070808,8.848659,4.4889355,3
19573476769389,-0.41635114,8.829515,4.503292,3
19573479148555,-0.3684947,8.829515,4.4841495,3
19573481527722,-0.3589234,8.843872,4.493721,3
19573483906889,-0.35413775,8.848659,4.4889355,3
19573486286055,-0.35413775,8.843872,4.479364,3
19573488665222,-0.36370903,8.82473,4.479364,3
19573491044389,-0.35413775,8.848659,4.469793,3
19573493423555,-0.3397808,8.843872,4.4745784,3
19573495802722,-0.32542387,8.829515,4.469793,3
19573498181889,-0.3493521,8.805588,4.4745784,3
19573500561003,-0.36370903,8.810373,4.4745784,3
19573502940170,-0.38285163,8.805588,4.4602213,3
19573505319337,-0.37806597,8.819944,4.4554358,3
19573507698503,-0.41635114,8.805588,4.4602213,3
19573510077670,-0.42592242,8.810373,4.4602213,3
19573512456837,-0.44027936,8.796016,4.4554358,3
19573514835951,-0.47377887,8.796016,4.4458647,3
19573517215170,-0.51206404,8.796016,4.4315076,3
19573519594337,-0.52163535,8.776874,4.426722,3
19573521973503,-0.52163535,8.772088,4.4410787,3
19573524352670,-0.4881358,8.772088,4.4075794,3
19573526731837,-0.51206404,8.7673025,4.402794,3
19573529111003,-0.45942193,8.738588,4.398008,3
19573531490118,-0.4642076,8.752945,4.369294,3
19573533869285,-0.45942193,8.776874,4.369294,3
19573536248451,-0.44506502,8.786445,4.3836513,3
19573538627618,-0.44506502,8.786445,4.3836513,3
19573541006785,-0.44506502,8.796016,4.4075794,3
19573543385951,-0.42592242,8.810373,4.3932223,3
19573545765118,-0.43070808,8.810373,4.3788652,3
19573548144285,-0.4354937,8.776874,4.3836513,3
19573550523451,-0.44506502,8.781659,4.3836513,3
19573552902618,-0.4211368,8.781659,4.3788652,3
19573555281785,-0.43070808,8.7577305,4.398008,3
19573557660951,-0.44985065,8.762517,4.4075794,3
19573560040118,-0.46899325,8.79123,4.4315076,3
19573562419285,-0.5024927,8.776874,4.4458647,3
19573564798399,-0.5072784,8.796016,4.4554358,3
19573567177566,-0.5168497,8.772088,4.479364,3
19573569556732,-0.5168497,8.776874,4.465007,3
19573571935899,-0.49292147,8.810373,4.4602213,3
19573574315066,-0.4977071,8.796016,4.469793,3
19573576694232,-0.4977071,8.79123,4.469793,3
19573579073399,-0.49292147,8.805588,4.4841495,3
19573581452566,-0.4833502,8.810373,4.4745784,3
19573583831732,-0.4642076,8.772088,4.4554358,3
19573586210899,-0.44985065,8.781659,4.4554358,3
19573588590066,-0.42592242,8.781659,4.4410787,3
19573590969180,-0.41156548,8.815159,4.45065,3
19573593348399,-0.37806597,8.805588,4.421936,3
19573595727566,-0.3684947,8.82473,4.4171505,3
19573598106732,-0.3493521,8.843872,4.4075794,3
19573600485847,-0.32542387,8.867801,4.4315076,3
19573602864962,-0.3062813,8.839087,4.426722,3
19573605244180,-0.29192436,8.839087,4.426722,3
19573607623347,-0.29671,8.853444,4.412365,3
19573610002514,-0.29192436,8.839087,4.426722,3
19573612381680,-0.29671,8.829515,4.421936,3
19573614760847,-0.32542387,8.834301,4.4075794,3
19573617140014,-0.3397808,8.82473,4.402794,3
19573619519180,-0.35413775,8.834301,4.4075794,3
19573621898347,-0.34456646,8.863015,4.4458647,3
19573624277514,-0.35413775,8.882157,4.4458647,3
19573626656680,-0.3684947,8.891729,4.4315076,3
19573629035847,-0.40677986,8.9013,4.412365,3
19573631415014,-0.41635114,8.896515,4.421936,3
19573633794128,-0.4211368,8.896515,4.421936,3
19573636173295,-0.41156548,8.886943,4.4315076,3
19573638552462,-0.37806597,8.906086,4.4458647,3
19573640931628,-0.36370903,8.896515,4.4554358,3
19573643310795,-0.34456646,8.867801,4.4602213,3
19573645689962,-0.36370903,8.848659,4.4458647,3
19573648069128,-0.33020952,8.819944,4.45065,3
19573650448295,-0.31585258,8.82473,4.4410787,3
19573652827462,-0.30149564,8.848659,4.436293,3
19573655206628,-0.29192436,8.853444,4.426722,3
19573657585795,-0.29192436,8.805588,4.436293,3
19573659964962,-0.28235307,8.829515,4.45065,3
19573662344128,-0.2727818,8.815159,4.4410787,3
19573664723295,-0.28713873,8.819944,4.436293,3
19573667102410,-0.3062813,8.82473,4.421936,3
19573669481576,-0.3062813,8.810373,4.426722,3
19573671860743,-0.33499518,8.819944,4.4075794,3
19573674239910,-0.3493521,8.796016,4.421936,3
19573676619076,-0.39720857,8.810373,4.412365,3
19573678998243,-0.41635114,8.810373,4.421936,3
19573681377410,-0.44027936,8.810373,4.421936,3
19573683756576,-0.4642076,8.786445,4.4075794,3
19573686135743,-0.5024927,8.776874,4.398008,3
19573688514910,-0.51206404,8.79123,4.388437,3
19573690894076,-0.5168497,8.800801,4.3932223,3
19573693273243,-0.5168497,8.805588,4.3788652,3
19573695652410,-0.5455636,8.79123,4.3932223,3
19573698031576,-0.5455636,8.776874,4.402794,3
19573700410691,-0.57427746,8.781659,4.3932223,3
19573702789857,-0.55513483,8.772088,4.402794,3
19573705169024,-0.52163535,8.781659,4.4171505,3
19573707548191,-0.4881358,8.79123,4.402794,3
19573709927305,-0.4546363,8.79123,4.4075794,3
19573712306524,-0.44506502,8.786445,4.402794,3
19573714685691,-0.42592242,8.786445,4.3932223,3
19573717064857,-0.3924229,8.800801,4.3788652,3
19573719444024,-0.3684947,8.810373,4.3836513,3
19573721823191,-0.33499518,8.79123,4.398008,3
19573724202357,-0.3062813,8.79123,4.388437,3
19573726581524,-0.27756742,8.834301,4.388437,3
19573728960691,-0.25842485,8.805588,4.3932223,3
19573731339857,-0.23928227,8.796016,4.3836513,3
19573733718972,-0.23928227,8.819944,4.3932223,3
19573736098139,-0.2536392,8.805588,4.398008,3
19573738477305,-0.2440679,8.800801,4.402794,3
19573740856472,-0.23449662,8.805588,4.402794,3
19573743235639,-0.26799613,8.829515,4.3788652,3
19573745614805,-0.28235307,8.82473,4.3788652,3
19573747993972,-0.29192436,8.805588,4.388437,3
19573750373139,-0.31106696,8.829515,4.402794,3
19573752752305,-0.33499518,8.85823,4.421936,3
19573755131472,-0.3493521,8.829515,4.4171505,3
19573757510639,-0.3684947,8.82473,4.4315076,3
19573759889805,-0.41635114,8.843872,4.4458647,3
19573762268972,-0.42592242,8.848659,4.4171505,3
19573764648087,-0.44027936,8.82473,4.4075794,3
19573767027253,-0.4546363,8.834301,4.412365,3
19573769406420,-0.46899325,8.843872,4.412365,3
19573771785587,-0.4546363,8.85823,4.398008,3
19573774164753,-0.47377887,8.848659,4.4075794,3
19573776543920,-0.47856453,8.839087,4.412365,3
19573778923087,-0.46899325,8.839087,4.412365,3
19573781302253,-0.4642076,8.839087,4.4171505,3
19573783681420,-0.44506502,8.829515,4.426722,3
19573786060587,-0.40677986,8.853444,4.421936,3
19573788439753,-0.41156548,8.853444,4.4315076,3
19573790818920,-0.41156548,8.839087,4.4410787,3
19573793198087,-0.41156548,8.843872,4.4458647,3
19573795577253,-0.39720857,8.839087,4.4458647,3
19573797956368,-0.40677986,8.848659,4.4458647,3
19573800335535,-0.37806597,8.848659,4.4315076,3
19573802714701,-0.38285163,8.863015,4.4315076,3
19573805093868,-0.37806597,8.853444,4.426722,3
19573807473035,-0.36370903,8.829515,4.412365,3
19573809852201,-0.3493521,8.843872,4.421936,3
19573812231368,-0.32542387,8.834301,4.436293,3
19573814610535,-0.31106696,8.810373,4.436293,3
19573816989701,-0.30149564,8.82473,4.426722,3
19573819368868,-0.29192436,8.819944,4.4075794,3
19573821747982,-0.31106696,8.796016,4.402794,3
19573824127201,-0.29671,8.796016,4.402794,3
19573826506368,-0.28713873,8.79123,4.402794,3
19573828885482,-0.2632105,8.819944,4.3836513,3
19573831264649,-0.25842485,8.829515,4.3788652,3
19573833643816,-0.2727818,8.848659,4.369294,3
19573836022982,-0.28235307,8.853444,4.3501515,3
19573838402149,-0.28713873,8.853444,4.345366,3
19573840781316,-0.32542387,8.853444,4.3645086,3
19573843160482,-0.32542387,8.863015,4.369294,3
19573845539649,-0.3493521,8.863015,4.3932223,3
19573847918816,-0.38763726,8.843872,4.402794,3
19573850297982,-0.41156548,8.834301,4.402794,3
19573852677149,-0.44027936,8.82473,4.412365,3
19573855056316,-0.45942193,8.819944,4.4075794,3
19573857435482,-0.4977071,8.805588,4.436293,3
19573859814597,-0.5072784,8.819944,4.4602213,3
19573862193764,-0.5312066,8.79123,4.4841495,3
19573864572930,-0.5407779,8.796016,4.4745784,3
19573866952097,-0.53599226,8.810373,4.4745784,3
19573869331264,-0.5072784,8.796016,4.4554358,3
19573871710430,-0.5072784,8.796016,4.4602213,3
19573874089597,-0.47856453,8.796016,4.465007,3
19573876468764,-0.45942193,8.781659,4.4554358,3
19573878847930,-0.42592242,8.776874,4.4745784,3
19573881227097,-0.37806597,8.815159,4.4745784,3
19573883606264,-0.36370903,8.796016,4.4602213,3
19573885985430,-0.34456646,8.805588,4.4458647,3
19573888364597,-0.3589234,8.819944,4.4171505,3
19573890743764,-0.33499518,8.810373,4.4171505,3
19573893122878,-0.33020952,8.815159,4.4171505,3
19573895502045,-0.3493521,8.82473,4.3932223,3
19573897881212,-0.36370903,8.834301,4.4315076,3
19573900260378,-0.3924229,8.843872,4.4171505,3
19573902639545,-0.41156548,8.829515,4.402794,3
19573905018712,-0.42592242,8.82473,4.388437,3
19573907397878,-0.4881358,8.85823,4.3932223,3
19573909777045,-0.4881358,8.872586,4.398008,3
19573912156212,-0.5072784,8.867801,4.4171505,3
19573914535378,-0.5694918,8.853444,4.412365,3
19573916914545,-0.6125626,8.848659,4.436293,3
19573919293660,-0.6221339,8.843872,4.4410787,3
19573921672878,-0.61734825,8.85823,4.4075794,3
19573924051993,-0.6125626,8.853444,4.402794,3
19573926431160,-0.6269195,8.848659,4.398008,3
19573928810326,-0.6364908,8.843872,4.402794,3
19573931189493,-0.60777694,8.829515,4.421936,3
19573933568660,-0.61734825,8.800801,4.412365,3
19573935947826,-0.6125626,8.796016,4.4075794,3
19573938326993,-0.57906306,8.839087,4.402794,3
19573940706160,-0.5694918,8.819944,4.398008,3
19573943085222,-0.526421,8.805588,4.402794,3
19573945464493,-0.4977071,8.772088,4.3932223,3
19573947843660,-0.45942193,8.772088,4.398008,3
19573950222826,-0.43070808,8.776874,4.388437,3
19573952601941,-0.41156548,8.810373,4.388437,3
19573954981107,-0.38285163,8.810373,4.3836513,3
19573957360274,-0.37806597,8.805588,4.3836513,3
19573959739441,-0.3589234,8.800801,4.3788652,3
19573962118607,-0.37328035,8.815159,4.359723,3
19573964497774,-0.3684947,8.82473,4.3645086,3
19573966876941,-0.3684947,8.82473,4.369294,3
19573969256107,-0.38763726,8.815159,4.369294,3
19573971635274,-0.41156548,8.839087,4.354937,3
19573974014441,-0.44027936,8.843872,4.345366,3
19573976393607,-0.45942193,8.843872,4.3645086,3
19573978772774,-0.4881358,8.863015,4.369294,3
19573981151941,-0.5024927,8.863015,4.354937,3
19573983531055,-0.526421,8.872586,4.3836513,3
19573985910222,-0.5312066,8.853444,4.4075794,3
19573988289389,-0.5407779,8.843872,4.4171505,3
19573990668555,-0.55034924,8.843872,4.4315076,3
19573993047722,-0.56470615,8.843872,4.4410787,3
19573995426889,-0.56470615,8.867801,4.4458647,3
19573997806055,-0.5838487,8.853444,4.4410787,3
19574000185222,-0.5982057,8.85823,4.465007,3
19574002564389,-0.57427746,8.85823,4.479364,3
19574004943555,-0.5838487,8.82473,4.4841495,3
19574007322722,-0.61734825,8.829515,4.4745784,3
19574009701889,-0.5982057,8.839087,4.479364,3
19574012081003,-0.5886344,8.805588,4.4745784,3
19574014460170,-0.5838487,8.79123,4.4554358,3
19574016839337,-0.5838487,8.79123,4.4458647,3
19574019218503,-0.5982057,8.786445,4.4745784,3
19574021597670,-0.59342,8.7673025,4.4745784,3
19574023976837,-0.5982057,8.786445,4.465007,3
19574026356003,-0.59342,8.776874,4.4841495,3
19574028735170,-0.5886344,8.786445,4.4889355,3
19574031114337,-0.5694918,8.781659,4.4554358,3
